Folder: MPX_specDB/spectra (part 110)

File: VLFR_07-PET_nobio_Raman_2daa0a53.csv
cm-1,Intensity
109.24,7881.15
126.699,7414.55
144.108,7171.3
161.468,7024.35
178.779,6981.15
196.04,6919.15
213.253,6933.7
230.417,6903.85
247.532,6895.4
264.599,6858.05
281.618,6843.85
298.59,6768.4
315.513,6704.7
332.389,6722.35
349.218,6638.35
365.999,6545.7
382.734,6513.2
399.422,6532.95
416.064,6468.25
432.659,6424.7
449.208,6310.05
465.711,6260.8
482.168,6200.65
498.579,6152.65
514.946,6051.05
531.267,6099.25
547.542,6034.55
563.773,5986.25
579.96,5892.4
596.102,5865.5
612.199,5847.4
628.252,5994.5
644.261,5753.2
660.227,5720.85
676.149,5642.85
692.027,5700.15
707.862,5661.4
723.654,5588.5
739.403,5587.95
755.109,5516.7
770.773,5529.05
786.394,5543.35
801.973,5511.6
817.509,5522.7
833.004,5501.5
848.457,5603.2
863.868,5539.15
879.238,5449.0
894.567,5352.6
909.854,5319.7
925.1,5260.9
940.306,5246.1
955.471,5212.6
970.595,5169.55
985.679,5162.6
1000.72,5142.95
1015.73,5139.55
1030.69,5143.4
1045.61,5072.6
1060.5,5049.55
1075.34,5089.2
1090.15,5095.95
1104.92,5088.8
1119.64,5099.65
1134.33,4990.95
1148.98,4934.05
1163.6,4978.6
1178.17,4972.75
1192.7,4864.4
1207.2,4887.75
1221.66,4854.3
1236.08,4872.2
1250.46,4893.75
1264.81,4974.9
1279.12,5017.05
1293.39,4957.6
1307.62,4875.25
1321.82,4813.0
1335.98,4787.3
1350.11,4754.7
1364.19,4747.1
1378.24,4708.95
1392.26,4735.7
1406.24,4705.2
1420.18,4699.85
1434.08,4684.45
1447.96,4697.95
1461.79,4636.25
1475.59,4618.7
1489.35,4613.75
1503.08,4590.05
1516.78,4594.1
1530.44,4556.8
1544.06,4559.05
1557.65,4523.15
1571.2,4498.5
1584.72,4499.35
1598.21,4676.4
1611.66,4780.7
1625.08,4563.7
1638.46,4421.0
1651.81,4405.7
1665.13,4417.4
1678.41,4402.6
1691.66,4404.2
1704.88,4469.3
1718.06,4594.0
1731.21,4561.05
1744.32,4402.6
1757.41,4321.3
1770.46,4296.25
1783.48,4276.6
1796.46,4263.6
1809.42,4223.0
1822.34,4230.55
1835.23,4219.8
1848.08,4207.55
1860.91,4201.85
1873.7,4179.7
1886.46,4170.55
1899.19,4163.25
1911.89,4153.1
1924.56,4128.3
1937.19,4119.0
1949.8,4111.65
1962.37,4095.2
1974.91,4070.15
1987.42,4060.75
1999.9,4038.55
2012.36,4028.55
2024.78,4026.5
2037.16,4007.25
2049.52,4000.8
2061.85,3984.85
2074.15,3983.2
2086.42,3988.4
2098.66,3970.35
2110.87,3963.05
2123.05,3952.85
2135.2,3944.9
2147.32,3936.4
2159.41,3930.1
2171.47,3929.6
2183.51,3922.95
2195.51,3916.75
2207.49,3911.0
2219.43,3901.55
2231.35,3894.45
2243.24,3892.05
2255.1,3889.3
2266.93,3879.0
2278.73,3874.75
2290.51,3870.4
2302.26,3866.4
2313.97,3863.35
2325.67,3864.45
2337.33,3856.1
2348.96,3850.4
2360.57,3842.35
2372.15,3847.55
2383.7,3842.65
2395.23,3840.35
2406.73,3838.2
2418.2,3839.1
2429.64,3832.55
2441.06,3829.8
2452.45,3824.3
2463.81,3820.6
2475.15,3816.15
2486.46,3815.5
2497.74,3809.85
2509.0,3812.55
2520.23,3807.1
2531.43,3806.75
2542.61,3805.5
2553.76,3804.95
2564.88,3801.45
2575.98,3796.8
2587.06,3797.15
2598.1,3796.3
2609.13,3793.05
2620.12,3792.55
2631.09,3789.6
2642.04,3786.7
2652.96,3787.85
2663.85,3786.35
2674.72,3783.5
2685.57,3781.6
2696.39,3777.1
2707.18,3777.7
2717.95,3777.25
2728.69,3772.15
2739.41,3773.95
2750.11,3771.35
2760.78,3770.1
2771.43,3769.1
2782.05,3767.25
2792.65,3767.2
2803.22,3765.2
2813.77,3761.5
2824.3,3761.9
2834.8,3762.6
2845.27,3760.05
2855.73,3758.2
2866.16,3758.3
2876.56,3759.4
2886.95,3756.5
2897.3,3757.2
2907.64,3756.0
2917.95,3754.15
2928.24,3753.45
2938.51,3753.4
2948.75,3755.75
2958.97,3757.4
2969.17,3754.95
2979.34,3751.8
2989.49,3751.95
2999.62,3748.85
3009.72,3748.85
3019.81,3745.15
3029.87,3744.85
3039.9,3746.25
3049.92,3745.85
3059.91,3743.6
3069.88,3745.6
3079.83,3746.8
3089.76,3745.9
3099.66,3742.85
3109.54,3740.6
3119.4,3741.9
3129.24,3741.0
3139.06,3739.15
3148.85,3738.8
3158.62,3738.4
3168.38,3737.2
3178.11,3736.8
3187.81,3738.35
3197.5,3736.75
3207.17,3737.55
3216.81,3735.85
3226.44,3736.15
3236.04,3736.5
3245.62,3736.3
3255.18,3736.65
3264.72,3735.9
3274.24,3734.95
3283.73,3735.85
3293.21,3735.6
3302.67,3735.95
3312.1,3735.85
3321.52,3736.5
3330.91,3734.5
3340.29,3735.95
3349.64,3734.55
3358.97,3733.55
3368.29,3735.4
3375.26,3734.25

File: VLFR_07-PET_nobio_Raman_3c191442.csv
nm,Intensity
791.377,11894.0
792.477,10844.6
793.576,10132.7
794.676,9496.34
795.775,9584.52
796.874,9487.86
797.973,9428.98
799.072,9533.76
800.171,9435.98
801.27,9429.04
802.368,9399.22
803.467,9196.24
804.565,9105.1
805.664,9009.82
806.762,8938.8
807.86,8916.72
808.958,8753.08
810.056,8594.28
811.153,8639.18
812.251,8518.92
813.349,8364.04
814.446,8311.08
815.543,8287.7
816.64,8279.22
817.737,8040.68
818.834,8038.86
819.931,7973.66
821.028,7928.2
822.125,7845.4
823.221,7767.08
824.317,7681.18
825.414,7918.2
826.51,7683.24
827.606,7635.34
828.702,7500.0
829.797,7556.38
830.893,7668.9
831.988,7431.1
833.084,7310.82
834.179,7267.14
835.274,7230.64
836.369,7260.36
837.464,7426.92
838.559,7289.44
839.654,7261.42
840.748,7387.2
841.843,7480.26
842.937,7207.52
844.031,7016.5
845.125,6941.98
846.219,6746.58
847.313,6818.76
848.407,6615.98
849.5,6654.42
850.593,6650.8
851.687,6603.12
852.78,6543.38
853.873,6488.54
854.966,6447.84
856.059,6399.98
857.151,6369.28
858.244,6440.34
859.336,6586.44
860.428,6525.6
861.52,6301.66
862.612,6166.86
863.704,6203.2
864.796,6234.08
865.888,6072.54
866.979,6057.76
868.07,5996.32
869.162,6066.92
870.253,6064.08
871.344,6183.04
872.434,6358.56
873.525,6398.38
874.615,6124.1
875.706,5904.84
876.796,5837.74
877.886,5806.6
878.976,5772.64
880.066,5761.2
881.156,5728.4
882.245,5735.5
883.335,5645.82
884.424,5687.26
885.513,5679.28
886.602,5591.12
887.691,5559.88
888.78,5474.98
889.868,5477.1
890.957,5461.86
892.045,5471.28
893.133,5468.72
894.221,5321.16
895.309,5346.3
896.397,5344.38
897.484,5627.96
898.571,6134.9
899.659,5662.68
900.746,5206.42
901.833,5187.1
902.92,5110.7
904.006,5128.64
905.093,5120.7
906.179,5209.92
907.266,5637.5
908.352,5645.88
909.438,5271.78
910.523,4991.36
911.609,4938.52
912.695,4882.16
913.78,4837.58
914.865,4821.08
915.95,4797.38
917.035,4766.74
918.12,4748.82
919.204,4726.32
920.289,4684.36
921.373,4669.74
922.457,4609.04
923.541,4588.54
924.625,4565.46
925.709,4571.7
926.792,4519.18
927.876,4508.98
928.959,4482.24
930.042,4459.22
931.125,4428.02
932.208,4410.48
933.29,4392.4
934.373,4357.54
935.455,4352.1
936.537,4352.14
937.619,4302.84
938.701,4297.9
939.782,4263.9
940.864,4279.54
941.945,4261.26
943.026,4231.8
944.107,4221.74
945.188,4201.64
946.269,4169.04
947.349,4184.72
948.43,4149.06
949.51,4159.14
950.59,4119.32
951.67,4120.44
952.75,4095.5
953.829,4099.02
954.909,4092.5
955.988,4058.56
957.067,4067.68
958.146,4055.88
959.224,4039.54
960.303,4025.96
961.381,4026.04
962.459,4013.82
963.537,4002.32
964.615,3995.78
965.693,3984.58
966.771,3981.72
967.848,3978.92
968.925,3972.9
970.002,3950.36
971.079,3960.54
972.156,3948.52
973.232,3935.22
974.309,3934.7
975.385,3930.0
976.461,3918.64
977.537,3912.88
978.612,3905.42
979.688,3904.08
980.763,3893.54
981.838,3891.18
982.913,3890.96
983.988,3883.06
985.063,3874.28
986.137,3876.98
987.211,3873.96
988.285,3862.04
989.359,3863.56
990.433,3852.94
991.506,3849.84
992.58,3843.44
993.653,3842.04
994.726,3835.8
995.799,3830.84
996.872,3834.78
997.944,3828.8
999.016,3820.8
1000.09,3823.26
1001.16,3817.14
1002.23,3813.06
1003.3,3810.24
1004.38,3808.5
1005.45,3807.82
1006.52,3801.92
1007.59,3799.14
1008.66,3795.38
1009.73,3796.36
1010.8,3789.54
1011.87,3788.9
1012.94,3789.2
1014.01,3785.42
1015.08,3786.46
1016.15,3783.7
1017.22,3782.56
1018.29,3780.06
1019.36,3779.56
1020.42,3778.48
1021.49,3786.26
1022.56,3789.86
1023.63,3784.8
1024.7,3780.06
1025.76,3772.34
1026.83,3769.94
1027.9,3767.38
1028.97,3761.5
1030.03,3760.04
1031.1,3757.32
1032.17,3758.6
1033.23,3759.56
1034.3,3762.98
1035.36,3763.72
1036.43,3761.52
1037.5,3756.64
1038.56,3751.72
1039.63,3750.22
1040.69,3749.4
1041.76,3748.1
1042.82,3746.54
1043.89,3745.64
1044.95,3744.66
1046.01,3743.52
1047.08,3744.06
1048.14,3742.78
1049.2,3742.88
1050.27,3742.54
1051.33,3742.98
1052.39,3742.84
1053.46,3742.44
1054.52,3740.62
1055.58,3741.92
1056.64,3739.78
1057.7,3739.98
1058.77,3740.04
1059.83,3740.8
1060.89,3739.88
1061.95,3739.76
1063.01,3738.94
1064.07,3739.54
1065.13,3738.5
1066.19,3739.0
1067.25,3738.52
1068.05,3738.02

File: VLFR_07-PET_nobio_Raman_4a919f06.csv
nm,Intensity
791.588,23174.4
792.685,22994.4
793.781,23069.2
794.878,22826.3
795.975,23173.4
797.071,23471.1
798.168,23326.9
799.264,23625.2
800.36,23608.8
801.456,23087.1
802.552,23181.9
803.648,23310.9
804.744,23050.2
805.84,23026.8
806.936,22798.7
808.031,23095.1
809.127,22654.2
810.222,22600.8
811.317,22804.7
812.412,22571.6
813.507,22622.6
814.602,22849.1
815.697,22319.0
816.792,22410.2
817.887,22217.6
818.981,22013.4
820.076,21969.7
821.17,22120.9
822.265,21533.3
823.359,21817.0
824.453,21369.3
825.547,21164.0
826.641,21115.3
827.735,21152.1
828.828,20861.0
829.922,20371.6
831.016,20321.7
832.109,20163.5
833.202,20272.2
834.295,20049.3
835.388,19791.4
836.481,19220.7
837.574,19773.3
838.667,19282.7
839.76,19126.6
840.852,18898.3
841.945,18955.4
843.037,18636.9
844.129,18898.0
845.221,18526.7
846.314,18053.4
847.405,18425.0
848.497,17987.2
849.589,17759.2
850.681,17583.4
851.772,17357.6
852.863,17503.0
853.955,17493.7
855.046,17099.8
856.137,17289.0
857.228,17103.8
858.318,16872.1
859.409,17074.2
860.5,16516.7
861.59,16255.5
862.681,16349.6
863.771,16427.6
864.861,16173.8
865.951,15944.5
867.041,15853.5
868.131,15605.7
869.22,15689.9
870.31,15354.2
871.399,15239.2
872.488,15167.8
873.578,14908.0
874.667,14889.2
875.756,14698.8
876.845,14767.9
877.933,14290.7
879.022,14109.8
880.11,13938.2
881.199,13819.8
882.287,13823.9
883.375,13700.0
884.463,13290.8
885.551,13430.6
886.639,13080.6
887.726,12871.0
888.814,12859.6
889.901,12462.7
890.988,12790.0
892.075,12306.5
893.162,12291.7
894.249,12082.0
895.336,11845.3
896.423,11678.6
897.509,11767.8
898.595,11603.3
899.682,11504.9
900.768,11187.5
901.854,11124.8
902.94,10966.4
904.025,10678.0
905.111,10743.3
906.196,10552.2
907.282,10609.2
908.367,10374.3
909.452,10434.7
910.537,10098.7
911.622,9908.8
912.706,9628.7
913.791,9600.5
914.875,9587.0
915.959,9319.1
917.044,9279.7
918.128,9108.6
919.211,9083.5
920.295,8945.7
921.379,8862.9
922.462,8580.1
923.546,8454.8
924.629,8462.5
925.712,8468.8
926.795,8168.7
927.877,8155.2
928.96,7997.6
930.043,7807.7
931.125,7813.0
932.207,7617.2
933.289,7592.0
934.371,7379.2
935.453,7418.1
936.535,7143.9
937.616,7174.1
938.697,6940.9
939.779,6931.2
940.86,6949.7
941.941,6750.6
943.022,6693.9
944.102,6591.0
945.183,6501.6
946.263,6432.0
947.343,6387.5
948.423,6233.0
949.503,6307.7
950.583,6116.9
951.663,6083.0
952.742,6054.3
953.822,5891.7
954.901,5867.8
955.98,5816.7
957.059,5719.1
958.137,5714.6
959.216,5627.7
960.294,5590.2
961.373,5499.1
962.451,5448.9
963.529,5394.8
964.607,5373.8
965.684,5283.6
966.762,5228.3
967.839,5222.7
968.917,5173.5
969.994,5077.3
971.071,5090.4
972.147,4996.3
973.224,5012.5
974.3,4920.0
975.377,4913.2
976.453,4904.9
977.529,4825.2
978.605,4767.9
979.68,4719.1
980.756,4654.4
981.831,4695.4
982.907,4617.9
983.982,4640.5
985.057,4586.8
986.131,4548.7
987.206,4492.8
988.28,4505.1
989.355,4472.7
990.429,4454.7
991.503,4433.0
992.576,4391.9
993.65,4374.2
994.723,4348.4
995.797,4322.1
996.87,4300.9
997.943,4274.4
999.016,4260.3
1000.09,4241.3
1001.16,4215.8
1002.23,4188.1
1003.31,4170.6
1004.38,4176.6
1005.45,4156.4
1006.52,4134.1
1007.59,4115.1
1008.66,4100.6
1009.73,4075.0
1010.81,4065.3
1011.88,4056.8
1012.95,4041.1
1014.02,4031.3
1015.09,4026.5
1016.16,4006.1
1017.23,3999.5
1018.3,3985.5
1019.37,3965.3
1020.44,3960.8
1021.51,3953.6
1022.58,3936.3
1023.64,3933.9
1024.71,3930.4
1025.78,3918.6
1026.85,3904.1
1027.92,3898.6
1028.99,3895.8
1030.05,3879.0
1031.12,3877.7
1032.19,3873.4
1033.26,3864.2
1034.32,3861.0
1035.39,3863.1
1036.46,3848.0
1037.52,3847.0
1038.59,3839.2
1039.66,3834.0
1040.72,3827.8
1041.79,3825.9
1042.86,3817.4
1043.92,3818.6
1044.99,3812.6
1046.05,3808.8
1047.12,3806.2
1048.18,3804.6
1049.25,3799.8
1050.31,3797.6
1051.37,3800.3
1052.44,3796.5
1053.5,3794.3
1054.57,3794.3
1055.63,3789.6
1056.69,3793.1
1057.76,3790.0
1058.82,3788.6
1059.88,3784.6
1060.95,3784.0
1062.01,3783.0
1063.07,3780.5
1064.13,3783.5
1065.19,3781.7
1066.26,3776.8
1067.32,3775.7
1068.11,3775.5

File: VLFR_07-PET_nobio_Raman_4f191768.csv
nm,Intensity
791.377,12273.6
792.477,11023.3
793.576,10232.6
794.676,9835.18
795.775,9723.82
796.874,9649.42
797.973,9543.26
799.072,9563.98
800.171,9451.96
801.27,9327.86
802.368,9392.76
803.467,9215.76
804.565,8997.26
805.664,8871.38
806.762,8872.64
807.86,8689.14
808.958,8614.88
810.056,8646.64
811.153,8552.5
812.251,8456.04
813.349,8402.78
814.446,8345.3
815.543,8283.66
816.64,8138.82
817.737,8037.7
818.834,8156.02
819.931,8038.8
821.028,8017.9
822.125,7877.56
823.221,7806.3
824.317,7756.74
825.414,7763.02
826.51,7819.24
827.606,7613.64
828.702,7523.56
829.797,7446.72
830.893,7511.54
831.988,7302.36
833.084,7271.76
834.179,7241.28
835.274,7106.88
836.369,7194.24
837.464,7224.9
838.559,7213.92
839.654,7206.94
840.748,7219.48
841.843,7348.28
842.937,7052.38
844.031,6923.0
845.125,6809.54
846.219,6672.5
847.313,6669.48
848.407,6586.98
849.5,6619.92
850.593,6572.54
851.687,6551.6
852.78,6618.18
853.873,6474.26
854.966,6427.38
856.059,6405.92
857.151,6335.96
858.244,6436.72
859.336,6524.54
860.428,6560.66
861.52,6351.58
862.612,6297.84
863.704,6154.64
864.796,6236.7
865.888,6171.58
866.979,6031.76
868.07,6007.92
869.162,6036.78
870.253,6086.42
871.344,6231.56
872.434,6386.84
873.525,6399.3
874.615,6139.22
875.706,6012.22
876.796,5904.18
877.886,5848.62
878.976,5773.84
880.066,5768.84
881.156,5747.26
882.245,5680.3
883.335,5708.0
884.424,5621.48
885.513,5649.78
886.602,5592.56
887.691,5516.7
888.78,5513.3
889.868,5467.78
890.957,5474.76
892.045,5401.8
893.133,5376.4
894.221,5355.38
895.309,5272.02
896.397,5294.26
897.484,5420.92
898.571,5971.86
899.659,5591.72
900.746,5167.88
901.833,5062.18
902.92,5075.0
904.006,5074.26
905.093,5005.68
906.179,5104.9
907.266,5433.72
908.352,5464.02
909.438,5178.76
910.523,4947.78
911.609,4855.1
912.695,4795.0
913.78,4771.74
914.865,4725.76
915.95,4736.52
917.035,4704.26
918.12,4682.8
919.204,4654.78
920.289,4628.66
921.373,4598.84
922.457,4579.74
923.541,4549.94
924.625,4544.0
925.709,4494.44
926.792,4503.48
927.876,4471.86
928.959,4433.02
930.042,4406.14
931.125,4409.2
932.208,4367.84
933.29,4362.64
934.373,4316.5
935.455,4334.64
936.537,4305.88
937.619,4281.88
938.701,4261.44
939.782,4242.62
940.864,4242.52
941.945,4218.96
943.026,4205.26
944.107,4192.02
945.188,4179.54
946.269,4159.92
947.349,4142.64
948.43,4140.56
949.51,4131.42
950.59,4122.22
951.67,4090.2
952.75,4090.96
953.829,4071.4
954.909,4058.46
955.988,4048.86
957.067,4052.24
958.146,4036.54
959.224,4030.0
960.303,4023.28
961.381,3998.6
962.459,4005.64
963.537,3993.14
964.615,3983.36
965.693,3971.86
966.771,3967.08
967.848,3960.04
968.925,3956.94
970.002,3936.42
971.079,3939.5
972.156,3939.8
973.232,3923.46
974.309,3924.4
975.385,3906.1
976.461,3902.48
977.537,3893.8
978.612,3892.64
979.688,3889.12
980.763,3882.4
981.838,3875.36
982.913,3869.16
983.988,3867.86
985.063,3863.84
986.137,3863.6
987.211,3857.14
988.285,3851.14
989.359,3845.76
990.433,3839.7
991.506,3836.32
992.58,3832.06
993.653,3829.0
994.726,3821.36
995.799,3816.86
996.872,3815.1
997.944,3808.8
999.016,3812.8
1000.09,3804.88
1001.16,3800.7
1002.23,3796.28
1003.3,3796.56
1004.38,3790.48
1005.45,3789.78
1006.52,3785.18
1007.59,3784.22
1008.66,3782.7
1009.73,3775.3
1010.8,3776.72
1011.87,3773.66
1012.94,3773.28
1014.01,3770.7
1015.08,3769.24
1016.15,3769.04
1017.22,3767.44
1018.29,3764.1
1019.36,3761.46
1020.42,3763.22
1021.49,3767.46
1022.56,3769.2
1023.63,3767.3
1024.7,3762.86
1025.76,3758.88
1026.83,3752.62
1027.9,3751.74
1028.97,3747.56
1030.03,3746.1
1031.1,3743.06
1032.17,3744.28
1033.23,3744.0
1034.3,3748.78
1035.36,3749.68
1036.43,3747.2
1037.5,3741.5
1038.56,3739.22
1039.63,3736.38
1040.69,3735.34
1041.76,3734.66
1042.82,3733.52
1043.89,3732.32
1044.95,3730.94
1046.01,3730.08
1047.08,3730.56
1048.14,3730.28
1049.2,3729.6
1050.27,3729.48
1051.33,3729.1
1052.39,3727.82
1053.46,3727.28
1054.52,3727.08
1055.58,3727.74
1056.64,3727.16
1057.7,3726.76
1058.77,3726.74
1059.83,3727.06
1060.89,3726.8
1061.95,3726.78
1063.01,3726.44
1064.07,3726.36
1065.13,3725.62
1066.19,3724.94
1067.25,3724.88
1068.05,3724.22

File: VLFR_07-PET_nobio_Raman_05a773a0.csv
cm-1,Intensity
109.24,8210.8
126.699,7781.7
144.108,7549.65
161.468,7408.35
178.779,7334.2
196.04,7289.55
213.253,7362.35
230.417,7309.45
247.532,7269.8
264.599,7255.7
281.618,7223.85
298.59,7124.35
315.513,7094.6
332.389,7038.75
349.218,6974.75
365.999,6940.55
382.734,6863.95
399.422,6808.05
416.064,6777.1
432.659,6669.75
449.208,6606.5
465.711,6513.05
482.168,6487.35
498.579,6423.3
514.946,6344.95
531.267,6308.5
547.542,6327.8
563.773,6258.3
579.96,6101.15
596.102,6153.6
612.199,6093.95
628.252,6197.85
644.261,6068.6
660.227,5958.6
676.149,5907.9
692.027,5939.15
707.862,5898.25
723.654,5870.25
739.403,5793.3
755.109,5741.95
770.773,5766.3
786.394,5781.4
801.973,5733.65
817.509,5769.65
833.004,5690.95
848.457,5790.95
863.868,5708.05
879.238,5638.65
894.567,5557.85
909.854,5536.7
925.1,5421.65
940.306,5438.85
955.471,5396.15
970.595,5346.55
985.679,5347.45
1000.72,5352.4
1015.73,5309.9
1030.69,5283.55
1045.61,5252.95
1060.5,5197.7
1075.34,5218.4
1090.15,5237.15
1104.92,5258.15
1119.64,5215.05
1134.33,5160.55
1148.98,5100.35
1163.6,5105.05
1178.17,5079.1
1192.7,5019.25
1207.2,5019.2
1221.66,5002.85
1236.08,4997.85
1250.46,4998.0
1264.81,5082.3
1279.12,5120.65
1293.39,5055.85
1307.62,5012.2
1321.82,4934.4
1335.98,4916.4
1350.11,4871.5
1364.19,4873.3
1378.24,4830.95
1392.26,4830.9
1406.24,4824.6
1420.18,4803.7
1434.08,4823.75
1447.96,4802.55
1461.79,4748.2
1475.59,4730.55
1489.35,4730.1
1503.08,4709.15
1516.78,4692.9
1530.44,4675.95
1544.06,4650.2
1557.65,4641.1
1571.2,4581.05
1584.72,4589.75
1598.21,4740.55
1611.66,4855.1
1625.08,4645.2
1638.46,4513.05
1651.81,4488.6
1665.13,4479.8
1678.41,4478.2
1691.66,4453.3
1704.88,4521.45
1718.06,4647.3
1731.21,4595.45
1744.32,4472.75
1757.41,4374.4
1770.46,4356.1
1783.48,4323.55
1796.46,4314.5
1809.42,4283.25
1822.34,4271.6
1835.23,4285.95
1848.08,4257.25
1860.91,4261.05
1873.7,4207.3
1886.46,4218.35
1899.19,4207.7
1911.89,4190.0
1924.56,4174.0
1937.19,4163.7
1949.8,4145.75
1962.37,4126.5
1974.91,4109.6
1987.42,4097.2
1999.9,4075.65
2012.36,4055.4
2024.78,4053.95
2037.16,4037.0
2049.52,4037.95
2061.85,4017.75
2074.15,4008.85
2086.42,4012.75
2098.66,3989.3
2110.87,3980.2
2123.05,3986.3
2135.2,3970.2
2147.32,3960.2
2159.41,3956.3
2171.47,3946.0
2183.51,3939.25
2195.51,3936.85
2207.49,3925.8
2219.43,3918.3
2231.35,3917.35
2243.24,3908.6
2255.1,3901.1
2266.93,3901.9
2278.73,3894.35
2290.51,3886.55
2302.26,3883.5
2313.97,3873.1
2325.67,3879.4
2337.33,3868.5
2348.96,3866.75
2360.57,3859.4
2372.15,3858.15
2383.7,3856.25
2395.23,3852.6
2406.73,3851.9
2418.2,3846.65
2429.64,3844.95
2441.06,3841.15
2452.45,3835.7
2463.81,3828.4
2475.15,3829.55
2486.46,3827.4
2497.74,3826.1
2509.0,3820.3
2520.23,3816.7
2531.43,3813.25
2542.61,3811.75
2553.76,3812.65
2564.88,3807.15
2575.98,3804.9
2587.06,3806.65
2598.1,3803.1
2609.13,3801.6
2620.12,3798.5
2631.09,3797.85
2642.04,3792.1
2652.96,3791.15
2663.85,3793.25
2674.72,3788.25
2685.57,3783.1
2696.39,3785.45
2707.18,3783.55
2717.95,3780.8
2728.69,3777.05
2739.41,3776.9
2750.11,3774.6
2760.78,3774.65
2771.43,3772.45
2782.05,3769.3
2792.65,3771.0
2803.22,3767.55
2813.77,3765.85
2824.3,3763.35
2834.8,3763.85
2845.27,3762.05
2855.73,3764.2
2866.16,3761.6
2876.56,3760.85
2886.95,3761.25
2897.3,3760.15
2907.64,3756.65
2917.95,3759.45
2928.24,3754.2
2938.51,3757.3
2948.75,3758.3
2958.97,3758.05
2969.17,3754.55
2979.34,3755.15
2989.49,3750.9
2999.62,3750.25
3009.72,3750.3
3019.81,3748.05
3029.87,3746.65
3039.9,3744.75
3049.92,3745.85
3059.91,3748.1
3069.88,3748.15
3079.83,3747.4
3089.76,3746.95
3099.66,3743.35
3109.54,3743.6
3119.4,3742.15
3129.24,3741.05
3139.06,3742.7
3148.85,3740.9
3158.62,3741.4
3168.38,3740.9
3178.11,3739.2
3187.81,3739.4
3197.5,3738.65
3207.17,3737.75
3216.81,3738.05
3226.44,3738.7
3236.04,3738.4
3245.62,3738.5
3255.18,3738.35
3264.72,3737.5
3274.24,3736.85
3283.73,3736.85
3293.21,3736.9
3302.67,3737.35
3312.1,3736.35
3321.52,3737.35
3330.91,3738.85
3340.29,3737.1
3349.64,3736.45
3358.97,3737.55
3368.29,3735.7
3375.26,3735.65

File: VLFR_07-PET_nobio_Raman_5ef0ce3e.csv
nm,Intensity
791.588,8009.6
792.685,7647.8
793.781,7454.1
794.878,7338.0
795.975,7319.5
797.071,7370.7
798.168,7318.5
799.264,7315.9
800.36,7223.6
801.456,7288.8
802.552,7296.1
803.648,7172.2
804.744,7109.9
805.84,7073.9
806.936,6996.0
808.031,6941.9
809.127,6895.2
810.222,6919.0
811.317,6792.6
812.412,6710.0
813.507,6698.6
814.602,6628.8
815.697,6584.5
816.792,6567.2
817.887,6508.2
818.981,6499.9
820.076,6418.3
821.17,6391.4
822.265,6336.7
823.359,6286.0
824.453,6340.7
825.547,6327.6
826.641,6239.0
827.735,6176.0
828.828,6188.1
829.922,6136.9
831.016,6102.8
832.109,6037.2
833.202,6027.7
834.295,5964.0
835.388,5995.5
836.481,5919.5
837.574,5979.8
838.667,5927.0
839.76,5879.9
840.852,5950.5
841.945,5856.2
843.037,5833.2
844.129,5781.9
845.221,5704.4
846.314,5600.7
847.405,5658.5
848.497,5560.3
849.589,5564.8
850.681,5507.3
851.772,5534.8
852.863,5485.2
853.955,5471.5
855.046,5455.3
856.137,5388.0
857.228,5379.4
858.318,5438.4
859.409,5454.7
860.5,5445.3
861.59,5387.8
862.681,5279.6
863.771,5289.6
864.861,5327.6
865.951,5272.0
867.041,5236.4
868.131,5215.2
869.22,5242.8
870.31,5232.0
871.399,5283.4
872.488,5334.7
873.578,5323.5
874.667,5248.4
875.756,5187.1
876.845,5151.1
877.933,5146.3
879.022,5062.8
880.11,5112.9
881.199,5091.6
882.287,5055.5
883.375,5041.7
884.463,5046.9
885.551,5017.3
886.639,4999.0
887.726,4968.8
888.814,4968.5
889.901,4959.9
890.988,4899.5
892.075,4914.5
893.162,4874.3
894.249,4864.2
895.336,4798.3
896.423,4812.2
897.509,4906.8
898.595,5113.0
899.682,4899.8
900.768,4716.6
901.854,4696.4
902.94,4694.3
904.025,4652.4
905.111,4694.8
906.196,4698.1
907.282,4798.2
908.367,4817.3
909.452,4667.1
910.537,4593.4
911.622,4531.3
912.706,4507.8
913.791,4472.8
914.875,4467.2
915.959,4446.6
917.044,4432.9
918.128,4420.6
919.211,4391.0
920.295,4387.3
921.379,4363.7
922.462,4363.4
923.546,4330.1
924.629,4315.0
925.712,4301.1
926.795,4262.0
927.877,4265.6
928.96,4245.6
930.043,4219.4
931.125,4218.6
932.207,4201.5
933.289,4180.7
934.371,4176.7
935.453,4159.2
936.535,4137.3
937.616,4134.9
938.697,4121.4
939.779,4125.1
940.86,4096.6
941.941,4096.4
943.022,4080.5
944.102,4067.4
945.183,4058.0
946.263,4048.4
947.343,4049.3
948.423,4040.9
949.503,4014.2
950.583,4013.1
951.663,4013.9
952.742,4000.9
953.822,3993.9
954.901,3988.7
955.98,3986.4
957.059,3971.5
958.137,3974.0
959.216,3957.8
960.294,3955.2
961.373,3951.5
962.451,3944.6
963.529,3932.0
964.607,3930.1
965.684,3929.7
966.762,3931.0
967.839,3916.3
968.917,3918.1
969.994,3910.7
971.071,3903.3
972.147,3902.5
973.224,3889.3
974.3,3895.6
975.377,3888.5
976.453,3881.9
977.529,3879.4
978.605,3873.9
979.68,3870.0
980.756,3869.0
981.831,3866.2
982.907,3861.4
983.982,3858.5
985.057,3854.8
986.131,3852.9
987.206,3848.7
988.28,3847.5
989.355,3845.7
990.429,3840.6
991.503,3835.1
992.576,3835.3
993.65,3829.2
994.723,3827.8
995.797,3829.3
996.87,3825.6
997.943,3821.6
999.016,3819.0
1000.09,3816.9
1001.16,3815.4
1002.23,3812.6
1003.31,3811.1
1004.38,3809.7
1005.45,3807.3
1006.52,3803.6
1007.59,3804.1
1008.66,3798.2
1009.73,3797.3
1010.81,3799.5
1011.88,3797.8
1012.95,3796.4
1014.02,3795.2
1015.09,3792.7
1016.16,3789.9
1017.23,3789.1
1018.3,3788.7
1019.37,3785.6
1020.44,3787.2
1021.51,3788.0
1022.58,3791.4
1023.64,3787.4
1024.71,3787.2
1025.78,3781.3
1026.85,3779.8
1027.92,3778.8
1028.99,3779.8
1030.05,3776.9
1031.12,3774.2
1032.19,3775.0
1033.26,3776.5
1034.32,3776.5
1035.39,3778.7
1036.46,3778.3
1037.52,3773.3
1038.59,3772.5
1039.66,3770.8
1040.72,3770.7
1041.79,3769.2
1042.86,3769.6
1043.92,3769.3
1044.99,3767.1
1046.05,3767.5
1047.12,3765.0
1048.18,3767.0
1049.25,3763.6
1050.31,3765.9
1051.37,3767.5
1052.44,3765.0
1053.5,3766.5
1054.57,3763.3
1055.63,3766.0
1056.69,3762.6
1057.76,3765.4
1058.82,3762.9
1059.88,3764.2
1060.95,3764.1
1062.01,3763.3
1063.07,3763.9
1064.13,3762.0
1065.19,3763.1
1066.26,3762.9
1067.32,3763.2
1068.11,3763.5