Folder: MPX_specDB/spectra (part 91)

File: VLFR_06-PET_nobio_Raman_eeccc400.csv
nm,Intensity
528.65,1841.47
529.155,1841.83
529.66,1840.57
530.165,1842.53
530.67,1840.6
531.175,1842.47
531.68,1864.63
532.185,2840.5
532.69,1843.13
533.194,1845.93
533.699,2375.07
534.204,3657.53
534.708,3240.87
535.213,2895.67
535.717,2614.57
536.222,2458.7
536.726,2393.97
537.231,2358.53
537.735,2367.97
538.239,2388.63
538.743,2378.43
539.247,2413.23
539.751,2443.87
540.255,2432.43
540.759,2384.07
541.263,2379.37
541.767,2383.47
542.271,2391.73
542.775,2402.43
543.279,2406.63
543.782,2433.73
544.286,2433.27
544.789,2430.7
545.293,2441.6
545.796,2457.47
546.3,2464.17
546.803,2446.8
547.306,2437.57
547.81,2463.07
548.313,2476.13
548.816,2469.73
549.319,2477.97
549.822,2473.3
550.325,2522.17
550.828,2639.83
551.331,2508.13
551.834,2493.43
552.337,2502.1
552.839,2599.37
553.342,2507.2
553.844,2516.57
554.347,2516.67
554.849,2523.0
555.352,2578.93
555.854,2624.37
556.357,2685.13
556.859,2720.0
557.361,2956.33
557.863,2810.13
558.365,2738.7
558.867,2687.3
559.369,2586.7
559.871,2599.73
560.373,2601.5
560.875,2619.5
561.377,2631.73
561.878,2657.37
562.38,2651.57
562.881,2687.1
563.383,2703.37
563.884,2697.4
564.386,2715.87
564.887,2813.57
565.388,3001.9
565.89,3038.8
566.391,2851.27
566.892,2773.0
567.393,2862.13
567.894,2889.93
568.395,2815.17
568.896,2811.37
569.396,2836.6
569.897,2882.7
570.398,3073.6
570.898,3392.03
571.399,3576.5
571.9,3284.17
572.4,3048.07
572.9,2934.63
573.401,2956.53
573.901,3022.87
574.401,2963.0
574.901,3013.0
575.401,3115.6
575.901,3010.97
576.401,3111.87
576.901,3142.6
577.401,3037.23
577.901,3038.63
578.4,3036.27
578.9,3035.53
579.399,3080.77
579.899,3081.3
580.398,3117.5
580.898,3152.07
581.397,3271.2
581.896,4632.6
582.395,4326.4
582.895,3244.57
583.394,3203.47
583.893,3188.17
584.391,3175.2
584.89,3247.6
585.389,3668.0
585.888,4748.07
586.386,4072.17
586.885,3370.33
587.384,3240.23
587.882,3250.8
588.38,3212.87
588.879,3214.53
589.377,3241.23
589.875,3206.7
590.373,3233.7
590.871,3206.27
591.369,3218.53
591.867,3247.87
592.365,3258.6
592.863,3243.23
593.361,3232.17
593.858,3267.23
594.356,3263.03
594.853,3271.17
595.351,3288.3
595.848,3274.5
596.345,3331.47
596.843,3285.5
597.34,3277.2
597.837,3266.77
598.334,3294.77
598.831,3328.83
599.328,3309.67
599.824,3277.33
600.321,3266.63
600.818,3355.3
601.314,3347.23
601.811,3313.3
602.307,3317.23
602.804,3334.17
603.3,3336.8
603.796,3363.77
604.293,3330.73
604.789,3322.77
605.285,3352.77
605.781,3298.3
606.277,3341.93
606.772,3352.0
607.268,3382.2
607.764,3393.67
608.259,3372.4
608.755,3373.57
609.25,3387.1
609.746,3393.7
610.241,3364.2
610.736,3385.03
611.231,3383.33
611.727,3370.4
612.222,3416.1
612.716,3422.87
613.211,3418.1
613.706,3419.57
614.201,3435.17
614.695,3451.23
615.19,3442.77
615.684,3461.2
616.179,3478.77
616.673,3484.57
617.168,3516.27
617.662,3479.07
618.156,3490.9
618.65,3539.93
619.144,3510.97
619.638,3437.63
620.131,3524.6
620.625,3537.3
621.119,3487.1
621.612,3517.0
622.106,3544.9
622.599,3526.7
623.093,3582.8
623.586,3543.2
624.079,3581.2
624.572,3599.0
625.065,3671.37
625.558,3567.77
626.051,3565.8
626.544,3671.63
627.037,3610.47
627.529,3682.0
628.022,3638.07
628.514,3740.5
629.007,3731.13
629.499,3800.47
629.991,3754.3
630.483,3795.43
630.976,3966.67
631.468,4303.4
631.959,4261.73
632.451,4124.63
632.943,3992.93
633.435,3922.5
633.926,3958.43
634.418,3806.6
634.909,3779.23
635.401,3910.87
635.892,4061.0
636.383,4428.8
636.874,4195.3
637.365,3985.53
637.856,3778.9
638.347,3774.07
638.838,3798.13
639.329,3884.13
639.819,3754.87
640.31,3776.57
640.8,3781.27
641.291,3789.5
641.781,3746.43
642.271,3774.57
642.761,3765.2
643.251,3706.7
643.741,3778.03
644.231,3741.5
644.721,3760.77
645.211,3712.03
645.7,3812.63
646.19,3751.27
646.679,3709.33
647.169,3714.23
647.658,3712.93
648.147,3685.67
648.636,3742.37
649.125,3739.27
649.614,3657.37
650.103,3671.1
650.592,3719.3
651.08,3693.5
651.569,3647.63
652.058,3692.13
652.546,3593.9
653.034,3616.8
653.523,3622.17
654.011,3601.17
654.499,3597.77
654.987,3616.47
655.475,3510.83
655.963,3555.4
656.45,3538.17
656.938,3412.73
657.425,3502.1
657.913,3499.67
658.4,3446.33
658.888,3429.37
659.375,3371.5
659.862,3387.43
660.349,3329.0
660.836,3330.53
661.079,3324.4

File: VLFR_06-PET_nobio_Raman_f0a84154.csv
nm,Intensity
526.547,833.5
527.094,833.5
527.641,833.4
528.188,832.4
528.734,833.4
529.281,832.6
529.827,832.0
530.373,834.9
530.92,833.3
531.466,833.2
532.011,843.1
532.557,833.0
533.103,834.3
533.648,852.0
534.193,2054.0
534.738,1695.0
535.283,1375.4
535.828,1189.2
536.373,1071.2
536.917,1028.1
537.462,1006.7
538.006,998.0
538.55,1010.8
539.094,1009.9
539.638,1028.5
540.182,1036.0
540.726,990.4
541.269,981.6
541.812,976.1
542.356,977.0
542.899,982.3
543.442,974.9
543.985,987.5
544.527,984.3
545.07,987.5
545.612,986.3
546.155,994.5
546.697,996.9
547.239,996.4
547.781,995.9
548.323,996.9
548.865,1004.2
549.406,1001.1
549.948,1010.6
550.489,1035.2
551.03,1022.1
551.572,1010.0
552.113,1021.2
552.654,1034.8
553.194,1037.7
553.735,1033.0
554.276,1031.5
554.816,1039.3
555.356,1055.3
555.896,1099.9
556.437,1121.1
556.977,1126.4
557.516,1306.6
558.056,1148.5
558.596,1141.2
559.135,1093.4
559.675,1078.5
560.214,1067.9
560.753,1076.4
561.292,1084.5
561.831,1094.2
562.37,1107.6
562.909,1127.1
563.448,1124.7
563.986,1114.6
564.525,1136.7
565.063,1190.7
565.601,1258.3
566.139,1245.6
566.677,1151.6
567.215,1133.6
567.753,1228.0
568.291,1155.6
568.828,1146.0
569.366,1161.2
569.903,1186.8
570.441,1246.2
570.978,1402.8
571.515,1503.6
572.052,1342.0
572.589,1227.1
573.126,1203.6
573.662,1210.3
574.199,1224.7
574.735,1223.4
575.272,1260.9
575.808,1229.7
576.344,1256.4
576.88,1275.0
577.416,1242.4
577.952,1235.1
578.488,1239.5
579.024,1244.4
579.559,1244.1
580.095,1257.1
580.63,1262.5
581.166,1284.2
581.701,1416.9
582.236,2684.5
582.771,1336.6
583.306,1296.7
583.841,1288.3
584.376,1311.4
584.911,1325.2
585.445,1461.5
585.98,2002.5
586.514,1667.5
587.048,1374.6
587.583,1339.7
588.117,1328.1
588.651,1318.5
589.185,1314.2
589.719,1319.5
590.253,1319.4
590.786,1324.2
591.32,1324.6
591.853,1327.6
592.387,1336.8
592.92,1324.2
593.454,1334.9
593.987,1327.0
594.52,1338.1
595.053,1350.2
595.586,1359.0
596.119,1355.6
596.651,1354.3
597.184,1361.5
597.717,1358.6
598.249,1364.6
598.782,1359.1
599.314,1364.2
599.846,1372.2
600.379,1369.7
600.911,1375.5
601.443,1372.6
601.975,1373.6
602.507,1382.2
603.038,1378.4
603.57,1383.0
604.102,1379.0
604.633,1384.3
605.165,1381.4
605.696,1372.3
606.228,1363.7
606.759,1365.6
607.29,1376.3
607.821,1381.7
608.352,1389.4
608.883,1382.4
609.414,1389.4
609.945,1385.9
610.476,1396.6
611.006,1394.7
611.537,1396.4
612.067,1389.0
612.598,1407.5
613.128,1421.4
613.659,1422.4
614.189,1435.2
614.719,1427.8
615.249,1424.1
615.779,1427.4
616.309,1428.9
616.839,1434.7
617.369,1433.9
617.899,1444.9
618.428,1468.7
618.958,1459.2
619.487,1434.4
620.017,1445.6
620.546,1446.8
621.076,1450.9
621.605,1458.8
622.134,1465.4
622.663,1468.7
623.193,1475.0
623.722,1486.3
624.251,1487.4
624.78,1491.5
625.308,1497.1
625.837,1491.9
626.366,1502.9
626.895,1497.0
627.423,1508.4
627.952,1511.7
628.48,1543.4
629.009,1559.3
629.537,1558.8
630.065,1563.2
630.594,1565.3
631.122,1636.6
631.65,1745.5
632.178,1726.0
632.706,1664.9
633.234,1643.0
633.762,1634.8
634.29,1615.5
634.818,1596.5
635.346,1617.8
635.873,1679.1
636.401,1804.4
636.929,1776.9
637.456,1664.8
637.984,1639.0
638.511,1633.6
639.039,1630.3
639.566,1646.8
640.093,1646.2
640.62,1661.4
641.148,1651.2
641.675,1653.5
642.202,1671.9
642.729,1671.5
643.256,1664.9
643.783,1650.4
644.31,1655.1
644.837,1647.5
645.364,1661.5
645.891,1656.4
646.417,1671.3
646.944,1682.1
647.471,1684.7
647.997,1674.5
648.524,1688.3
649.051,1676.8
649.577,1680.2
650.104,1680.8
650.63,1679.9
651.157,1659.6
651.683,1690.4
652.209,1675.4
652.736,1674.7
653.262,1682.9
653.788,1682.9
654.314,1691.0
654.84,1672.6
655.366,1675.5
655.893,1692.2
656.419,1679.9
656.945,1685.8
657.471,1674.4
657.997,1670.8
658.522,1686.1
659.048,1674.0
659.574,1680.9
660.1,1684.8
660.626,1671.4
661.152,1680.1
661.677,1657.4
662.203,1649.7
662.729,1662.0
663.123,1646.3

File: VLFR_06-PET_nobio_Raman_f6ff5400.csv
cm-1,Intensity
-123.878,1856.9
-105.821,1856.7
-87.8007,1857.2
-69.8161,1856.2
-51.8675,1857.7
-33.9547,1860.0
-16.0776,1900.75
1.76388,3357.5
19.5698,1863.55
37.3403,1869.7
55.0755,3389.3
72.7754,6660.65
90.4402,5414.65
108.07,4260.2
125.665,3418.7
143.225,2913.8
160.75,2719.75
178.241,2646.0
195.697,2601.55
213.119,2636.7
230.506,2647.65
247.859,2652.1
265.178,2780.0
282.463,2692.0
299.713,2580.6
316.93,2509.05
334.113,2523.5
351.263,2541.35
368.379,2552.1
385.461,2547.95
402.51,2587.3
419.526,2557.25
436.508,2594.15
453.458,2609.9
470.374,2619.45
487.257,2629.1
504.107,2625.55
520.925,2658.05
537.71,2689.25
554.462,2692.45
571.182,2702.9
587.87,2698.35
604.525,2703.55
621.148,2829.0
637.739,3138.65
654.297,2776.45
670.824,2781.95
687.319,2834.95
703.782,3122.75
720.213,2852.3
736.613,2885.2
752.981,2890.65
769.317,2922.65
785.623,3103.25
801.897,3252.6
818.139,3379.8
834.351,3458.5
850.532,4152.95
866.681,3768.5
882.8,3605.75
898.888,3414.75
914.945,3161.6
930.972,3193.75
946.968,3162.9
962.934,3236.95
978.869,3294.8
994.774,3351.0
1010.65,3413.75
1026.49,3518.4
1042.31,3469.05
1058.09,3424.7
1073.85,3461.15
1089.57,3732.8
1105.27,4139.6
1120.93,4361.65
1136.57,3782.65
1152.18,3548.65
1167.75,3766.25
1183.3,3877.75
1198.82,3625.9
1214.31,3590.3
1229.77,3632.95
1245.2,3830.55
1260.6,4216.0
1275.97,4948.1
1291.32,5524.85
1306.63,4701.6
1321.92,4073.35
1337.18,3813.05
1352.41,3839.55
1367.61,3974.9
1382.78,3940.55
1397.93,3994.0
1413.05,4177.6
1428.14,4026.1
1443.2,4262.9
1458.23,4274.65
1473.23,4083.6
1488.21,4000.4
1503.16,4022.2
1518.08,4009.7
1532.97,4035.9
1547.84,4108.65
1562.68,4164.7
1577.49,4284.45
1592.27,4477.1
1607.03,7755.25
1621.76,7150.55
1636.46,4323.45
1651.14,4341.65
1665.78,4340.75
1680.41,4407.35
1695.0,4549.95
1709.57,5409.6
1724.11,8029.75
1738.62,6815.95
1753.11,4816.65
1767.57,4542.95
1782.01,4509.35
1796.41,4461.2
1810.8,4530.35
1825.15,4497.4
1839.48,4522.5
1853.79,4432.1
1868.06,4533.2
1882.31,4501.05
1896.54,4552.15
1910.74,4611.2
1924.91,4535.25
1939.06,4583.85
1953.19,4601.2
1967.28,4665.1
1981.35,4647.2
1995.4,4664.7
2009.42,4629.4
2023.42,4756.4
2037.39,4707.55
2051.33,4772.15
2065.25,4705.7
2079.15,4738.55
2093.01,4674.95
2106.86,4722.3
2120.68,4822.5
2134.47,4718.55
2148.24,4743.5
2161.99,4711.9
2175.71,4761.65
2189.41,4861.25
2203.08,4898.5
2216.73,4787.3
2230.35,4831.65
2243.95,4855.75
2257.52,4795.25
2271.07,4768.4
2284.6,4811.65
2298.1,4757.0
2311.58,4774.2
2325.03,4851.1
2338.46,4819.0
2351.87,4887.15
2365.25,4846.3
2378.61,4836.45
2391.94,4820.75
2405.26,4873.25
2418.54,4843.45
2431.81,4825.3
2445.05,4893.4
2458.27,4850.8
2471.46,4855.7
2484.63,4899.5
2497.78,4893.5
2510.9,4842.55
2524.0,4973.9
2537.08,4820.55
2550.14,4881.1
2563.17,4913.9
2576.18,4894.35
2589.17,4885.3
2602.13,4896.45
2615.07,4992.95
2627.99,4985.7
2640.89,4958.1
2653.76,4991.4
2666.61,4909.3
2679.44,4912.85
2692.25,4945.55
2705.03,4924.25
2717.79,4946.55
2730.53,4929.0
2743.25,4994.85
2755.94,4986.5
2768.61,5009.8
2781.27,5061.45
2793.89,5100.95
2806.5,5063.75
2819.09,5122.7
2831.65,5045.15
2844.19,5158.3
2856.71,5127.3
2869.21,5205.35
2881.69,5332.5
2894.14,5438.3
2906.58,5487.75
2918.99,5419.0
2931.38,5268.5
2943.75,5831.6
2956.1,6475.95
2968.42,6481.1
2980.73,6106.5
2993.01,6041.6
3005.28,5952.25
3017.52,5827.7
3029.74,5677.0
3041.94,5595.45
3054.12,5733.05
3066.28,6133.05
3078.42,6941.55
3090.54,6648.65
3102.63,5964.65
3114.71,5785.8
3126.77,5751.8
3138.8,5671.2
3150.82,5709.65
3162.81,5646.0
3174.78,5737.85
3186.74,5773.75
3198.67,5807.75
3210.58,5713.25
3222.47,5800.9
3234.35,5768.75
3246.2,5837.7
3258.03,5776.0
3269.84,5868.8
3281.64,5810.45
3293.41,5908.7
3305.16,5843.65
3316.89,5777.35
3328.61,5809.7
3340.3,5741.3
3351.97,5828.65
3363.63,5798.3
3375.26,5709.5
3386.88,5729.8
3398.47,5744.6
3410.05,5725.75
3421.6,5741.1
3433.14,5662.8
3444.66,5740.8
3456.15,5703.2
3467.63,5691.75
3479.09,5676.25
3490.53,5725.5
3501.96,5592.15
3513.36,5583.65
3524.74,5569.5
3536.11,5511.35
3547.45,5542.4
3558.78,5404.0
3570.09,5421.9
3581.37,5471.75
3592.64,5410.25
3603.9,5351.85
3615.13,5311.85
3626.34,5186.55
3637.54,5148.65
3648.72,5102.9
3659.87,5310.15
3665.45,5196.2

File: VLFR_06-PET_nobio_Raman_f987e772.csv
cm-1,Intensity
-123.878,1854.85
-105.821,1856.55
-87.8007,1856.3
-69.8161,1857.5
-51.8675,1855.75
-33.9547,1858.85
-16.0776,1915.9
1.76388,3514.25
19.5698,1861.2
37.3403,1862.85
55.0755,2356.0
72.7754,3443.75
90.4402,3116.4
108.07,2781.45
125.665,2531.25
143.225,2352.95
160.75,2324.3
178.241,2289.35
195.697,2294.7
213.119,2306.4
230.506,2319.35
247.859,2348.3
265.178,2377.65
282.463,2354.35
299.713,2335.45
316.93,2331.5
334.113,2325.8
351.263,2342.55
368.379,2361.45
385.461,2359.25
402.51,2394.95
419.526,2377.4
436.508,2414.95
453.458,2417.8
470.374,2437.45
487.257,2429.2
504.107,2446.85
520.925,2458.55
537.71,2459.9
554.462,2478.9
571.182,2498.55
587.87,2494.65
604.525,2504.9
621.148,2562.15
637.739,2682.9
654.297,2557.05
670.824,2587.2
687.319,2590.55
703.782,2665.55
720.213,2605.3
736.613,2631.3
752.981,2655.35
769.317,2672.8
785.623,2760.1
801.897,2779.7
818.139,2880.5
834.351,2893.2
850.532,3118.4
866.681,3037.4
882.8,2977.6
898.888,2929.35
914.945,2859.1
930.972,2869.95
946.968,2881.05
962.934,2918.15
978.869,2958.25
994.774,2975.85
1010.65,3003.75
1026.49,3046.7
1042.31,3049.85
1058.09,3028.9
1073.85,3057.5
1089.57,3158.35
1105.27,3310.55
1120.93,3386.0
1136.57,3182.35
1152.18,3141.65
1167.75,3235.05
1183.3,3287.0
1198.82,3175.65
1214.31,3199.05
1229.77,3211.85
1245.2,3295.35
1260.6,3421.05
1275.97,3675.2
1291.32,3874.45
1306.63,3658.95
1321.92,3423.7
1337.18,3304.05
1352.41,3365.15
1367.61,3431.15
1382.78,3407.9
1397.93,3456.05
1413.05,3530.65
1428.14,3507.55
1443.2,3600.85
1458.23,3582.7
1473.23,3541.95
1488.21,3495.15
1503.16,3510.0
1518.08,3513.8
1532.97,3547.9
1547.84,3583.25
1562.68,3631.25
1577.49,3680.2
1592.27,3784.0
1607.03,4912.1
1621.76,4746.25
1636.46,3721.75
1651.14,3743.2
1665.78,3762.35
1680.41,3771.45
1695.0,3826.65
1709.57,4172.4
1724.11,5113.8
1738.62,4743.25
1753.11,3976.5
1767.57,3898.25
1782.01,3888.1
1796.41,3933.4
1810.8,3929.65
1825.15,3938.95
1839.48,3948.8
1853.79,3968.35
1868.06,3950.1
1882.31,3954.0
1896.54,3982.25
1910.74,4015.9
1924.91,4044.15
1939.06,4000.75
1953.19,4017.0
1967.28,4055.0
1981.35,4069.25
1995.4,4098.15
2009.42,4075.4
2023.42,4210.45
2037.39,4117.4
2051.33,4108.0
2065.25,4154.75
2079.15,4112.1
2093.01,4162.8
2106.86,4166.85
2120.68,4211.95
2134.47,4156.25
2148.24,4130.45
2161.99,4162.95
2175.71,4184.05
2189.41,4261.3
2203.08,4268.5
2216.73,4138.5
2230.35,4208.15
2243.95,4229.85
2257.52,4181.75
2271.07,4129.4
2284.6,4164.55
2298.1,4109.1
2311.58,4195.0
2325.03,4192.65
2338.46,4178.0
2351.87,4213.35
2365.25,4231.75
2378.61,4222.05
2391.94,4211.0
2405.26,4256.2
2418.54,4219.5
2431.81,4221.45
2445.05,4256.95
2458.27,4224.1
2471.46,4221.85
2484.63,4222.0
2497.78,4205.6
2510.9,4218.2
2524.0,4266.35
2537.08,4131.65
2550.14,4238.85
2563.17,4242.65
2576.18,4222.75
2589.17,4232.8
2602.13,4202.65
2615.07,4269.45
2627.99,4302.85
2640.89,4256.35
2653.76,4298.8
2666.61,4243.65
2679.44,4255.0
2692.25,4313.4
2705.03,4285.15
2717.79,4273.85
2730.53,4289.4
2743.25,4294.55
2755.94,4353.2
2768.61,4366.95
2781.27,4370.8
2793.89,4430.85
2806.5,4322.25
2819.09,4417.7
2831.65,4425.5
2844.19,4445.95
2856.71,4445.45
2869.21,4520.1
2881.69,4631.7
2894.14,4614.8
2906.58,4683.1
2918.99,4671.1
2931.38,4556.45
2943.75,4861.85
2956.1,5186.1
2968.42,5137.65
2980.73,5017.25
2993.01,5016.25
3005.28,5008.2
3017.52,4855.65
3029.74,4926.2
3041.94,4856.55
3054.12,4866.9
3066.28,5059.9
3078.42,5441.0
3090.54,5427.95
3102.63,5009.9
3114.71,4928.7
3126.77,4932.2
3138.8,4930.25
3150.82,4993.0
3162.81,4950.65
3174.78,5046.3
3186.74,5041.7
3198.67,5037.35
3210.58,4987.0
3222.47,5067.05
3234.35,5086.9
3246.2,5079.9
3258.03,5121.55
3269.84,5123.75
3281.64,5127.85
3293.41,5225.75
3305.16,5117.9
3316.89,5057.85
3328.61,5188.55
3340.3,5027.1
3351.97,5076.2
3363.63,5110.15
3375.26,5117.95
3386.88,5091.15
3398.47,5042.45
3410.05,5102.25
3421.6,5139.8
3433.14,5151.5
3444.66,5125.65
3456.15,5158.75
3467.63,5120.65
3479.09,5167.35
3490.53,5126.15
3501.96,4966.95
3513.36,4983.25
3524.74,5059.55
3536.11,4952.1
3547.45,4924.45
3558.78,4919.4
3570.09,4831.85
3581.37,4842.55
3592.64,4862.45
3603.9,4846.5
3615.13,4854.65
3626.34,4717.65
3637.54,4687.65
3648.72,4707.45
3659.87,4808.5
3665.45,4794.7

File: VLFR_06-PET_nobio_Raman_f1068197.csv
nm,Intensity
526.5,831.2
527.047,829.5
527.594,829.2
528.14,830.7
528.687,830.7
529.233,828.9
529.779,828.5
530.325,828.0
530.871,829.7
531.417,829.8
531.962,833.0
532.508,828.8
533.053,830.2
533.599,838.8
534.144,1648.0
534.689,1426.1
535.234,1208.0
535.778,1075.2
536.323,1001.1
536.867,964.1
537.412,955.1
537.956,952.8
538.5,958.4
539.044,951.7
539.588,967.0
540.132,976.4
540.675,947.6
541.219,941.0
541.762,940.9
542.305,940.3
542.848,937.9
543.391,939.4
543.934,952.8
544.477,945.3
545.02,949.5
545.562,946.1
546.105,955.2
546.647,955.5
547.189,957.4
547.731,956.1
548.273,963.8
548.815,965.3
549.356,961.9
549.898,968.5
550.439,983.3
550.981,981.5
551.522,975.2
552.063,979.9
552.604,984.7
553.145,992.5
553.686,988.6
554.226,991.3
554.767,988.3
555.307,1003.1
555.848,1028.4
556.388,1040.0
556.928,1045.4
557.468,1145.3
558.008,1062.1
558.547,1063.8
559.087,1035.0
559.626,1018.6
560.166,1020.8
560.705,1021.8
561.244,1030.6
561.783,1032.0
562.322,1043.6
562.861,1063.4
563.4,1061.2
563.939,1058.7
564.477,1066.6
565.015,1096.0
565.554,1139.4
566.092,1139.7
566.63,1078.4
567.168,1068.7
567.706,1129.4
568.244,1084.7
568.781,1098.0
569.319,1088.7
569.857,1110.3
570.394,1146.7
570.931,1234.3
571.468,1303.3
572.005,1200.1
572.542,1130.8
573.079,1119.9
573.616,1128.9
574.153,1149.3
574.689,1137.6
575.226,1156.4
575.762,1144.9
576.298,1164.4
576.834,1180.6
577.371,1167.4
577.907,1156.0
578.442,1157.8
578.978,1156.2
579.514,1157.1
580.049,1167.7
580.585,1174.1
581.12,1189.2
581.656,1253.8
582.191,2049.4
582.726,1227.9
583.261,1196.2
583.796,1202.6
584.331,1204.8
584.865,1213.5
585.4,1284.1
585.935,1657.7
586.469,1468.2
587.004,1249.6
587.538,1227.4
588.072,1211.7
588.606,1227.9
589.14,1219.4
589.674,1214.3
590.208,1219.8
590.742,1224.0
591.275,1224.7
591.809,1224.7
592.342,1229.3
592.876,1223.9
593.409,1234.5
593.942,1237.2
594.476,1244.5
595.009,1236.1
595.542,1247.8
596.075,1250.1
596.607,1247.3
597.14,1250.8
597.673,1247.6
598.205,1260.9
598.738,1260.0
599.27,1256.7
599.803,1260.0
600.335,1258.9
600.867,1263.0
601.399,1263.4
601.931,1252.5
602.463,1256.5
602.995,1261.5
603.527,1264.6
604.058,1271.3
604.59,1258.2
605.122,1261.1
605.653,1250.7
606.184,1257.4
606.716,1249.9
607.247,1252.5
607.778,1262.7
608.309,1267.6
608.84,1268.4
609.371,1259.2
609.902,1267.9
610.433,1261.7
610.964,1265.0
611.494,1264.6
612.025,1271.4
612.556,1270.5
613.086,1276.4
613.616,1286.6
614.147,1289.3
614.677,1291.5
615.207,1283.5
615.737,1288.9
616.267,1295.6
616.797,1301.3
617.327,1294.6
617.857,1307.8
618.387,1318.2
618.917,1309.6
619.446,1304.7
619.976,1300.7
620.505,1302.1
621.035,1304.3
621.564,1314.4
622.093,1308.1
622.623,1313.6
623.152,1322.7
623.681,1318.7
624.21,1330.6
624.739,1333.1
625.268,1343.4
625.797,1340.4
626.326,1335.0
626.855,1345.3
627.383,1347.8
627.912,1362.4
628.441,1370.8
628.969,1392.8
629.498,1405.7
630.026,1395.2
630.554,1392.8
631.083,1446.9
631.611,1554.7
632.139,1530.2
632.667,1479.8
633.195,1469.3
633.724,1449.7
634.252,1433.8
634.779,1420.9
635.307,1433.9
635.835,1491.2
636.363,1594.7
636.891,1585.3
637.418,1478.5
637.946,1458.7
638.474,1467.1
639.001,1468.7
639.529,1471.4
640.056,1469.0
640.583,1463.0
641.111,1471.8
641.638,1483.7
642.165,1486.0
642.692,1490.9
643.22,1497.0
643.747,1474.3
644.274,1481.5
644.801,1481.0
645.328,1482.3
645.854,1487.8
646.381,1493.5
646.908,1499.3
647.435,1502.6
647.962,1510.3
648.488,1491.8
649.015,1504.1
649.542,1510.3
650.068,1503.2
650.595,1505.8
651.121,1503.5
651.648,1511.5
652.174,1513.6
652.7,1509.7
653.227,1520.3
653.753,1529.4
654.279,1530.8
654.805,1516.3
655.331,1526.7
655.858,1520.8
656.384,1518.7
656.91,1526.4
657.436,1535.2
657.962,1522.3
658.488,1522.8
659.013,1521.6
659.539,1524.3
660.065,1527.2
660.591,1523.9
661.117,1520.6
661.642,1514.2
662.168,1510.4
662.694,1517.7
663.088,1515.0

File: VLFR_06-PET_nobio_Raman_f9918620.csv
cm-1,Intensity
-123.878,1853.3
-105.821,1853.75
-87.8007,1853.05
-69.8161,1853.9
-51.8675,1854.65
-33.9547,1857.3
-16.0776,1896.3
1.76388,3889.4
19.5698,1859.65
37.3403,1866.25
55.0755,3176.1
72.7754,6089.4
90.4402,5026.8
108.07,4134.2
125.665,3432.15
143.225,3041.1
160.75,2856.25
178.241,2821.35
195.697,2819.3
213.119,2844.8
230.506,2859.25
247.859,2923.6
265.178,2976.6
282.463,2873.25
299.713,2807.3
316.93,2757.0
334.113,2760.85
351.263,2756.1
368.379,2790.25
385.461,2792.5
402.51,2816.85
419.526,2798.3
436.508,2836.2
453.458,2799.05
470.374,2821.7
487.257,2859.6
504.107,2879.4
520.925,2873.15
537.71,2895.25
554.462,2900.2
571.182,2937.7
587.87,2919.25
604.525,2931.25
621.148,3035.25
637.739,3304.4
654.297,2986.9
670.824,3015.75
687.319,3008.1
703.782,3268.1
720.213,2997.65
736.613,3048.55
752.981,2999.35
769.317,3050.9
785.623,3166.15
801.897,3317.55
818.139,3386.55
834.351,3442.6
850.532,4009.9
866.681,3724.65
882.8,3544.2
898.888,3389.2
914.945,3211.85
930.972,3184.85
946.968,3216.4
962.934,3242.6
978.869,3240.5
994.774,3314.05
1010.65,3378.15
1026.49,3448.45
1042.31,3448.15
1058.09,3375.95
1073.85,3426.1
1089.57,3684.95
1105.27,3985.7
1120.93,4180.4
1136.57,3701.5
1152.18,3540.05
1167.75,3706.75
1183.3,3834.0
1198.82,3620.7
1214.31,3675.5
1229.77,3730.05
1245.2,3863.65
1260.6,4233.3
1275.97,4963.55
1291.32,5489.0
1306.63,4682.55
1321.92,4175.15
1337.18,3925.75
1352.41,3940.55
1367.61,4050.0
1382.78,3974.9
1397.93,4116.35
1413.05,4276.7
1428.14,4112.1
1443.2,4333.6
1458.23,4263.7
1473.23,4173.05
1488.21,4126.15
1503.16,4143.6
1518.08,4151.3
1532.97,4201.5
1547.84,4192.75
1562.68,4273.45
1577.49,4355.5
1592.27,4584.6
1607.03,7645.35
1621.76,6834.45
1636.46,4448.45
1651.14,4338.9
1665.78,4367.65
1680.41,4465.85
1695.0,4516.8
1709.57,5460.0
1724.11,7873.9
1738.62,6434.7
1753.11,4782.35
1767.57,4483.3
1782.01,4465.3
1796.41,4495.6
1810.8,4467.4
1825.15,4363.0
1839.48,4484.25
1853.79,4393.05
1868.06,4440.15
1882.31,4485.5
1896.54,4479.95
1910.74,4479.7
1924.91,4468.8
1939.06,4460.5
1953.19,4506.2
1967.28,4530.55
1981.35,4463.05
1995.4,4503.35
2009.42,4586.3
2023.42,4598.3
2037.39,4542.2
2051.33,4547.15
2065.25,4555.05
2079.15,4574.15
2093.01,4580.85
2106.86,4633.85
2120.68,4694.05
2134.47,4609.85
2148.24,4681.6
2161.99,4717.65
2175.71,4547.45
2189.41,4720.6
2203.08,4693.95
2216.73,4711.25
2230.35,4630.6
2243.95,4703.55
2257.52,4727.25
2271.07,4688.0
2284.6,4746.95
2298.1,4789.95
2311.58,4826.4
2325.03,4773.0
2338.46,4798.95
2351.87,4660.0
2365.25,4806.05
2378.61,4770.35
2391.94,4763.3
2405.26,4872.7
2418.54,4786.9
2431.81,4895.6
2445.05,4841.65
2458.27,4912.05
2471.46,4830.55
2484.63,4854.15
2497.78,4870.25
2510.9,4957.7
2524.0,4873.55
2537.08,4877.35
2550.14,4878.5
2563.17,4926.7
2576.18,4890.15
2589.17,4948.0
2602.13,4940.8
2615.07,5131.2
2627.99,5009.0
2640.89,4963.05
2653.76,5043.55
2666.61,4961.6
2679.44,4966.75
2692.25,5107.65
2705.03,5016.0
2717.79,5049.05
2730.53,4987.25
2743.25,5057.2
2755.94,5164.6
2768.61,5010.75
2781.27,5135.95
2793.89,5213.2
2806.5,5259.35
2819.09,5231.4
2831.65,5244.5
2844.19,5189.6
2856.71,5335.95
2869.21,5357.85
2881.69,5440.1
2894.14,5483.9
2906.58,5674.85
2918.99,5440.65
2931.38,5438.8
2943.75,5818.7
2956.1,6718.9
2968.42,6750.65
2980.73,6227.3
2993.01,6054.35
3005.28,6031.75
3017.52,5893.45
3029.74,5835.1
3041.94,5790.85
3054.12,5803.85
3066.28,6279.15
3078.42,7085.9
3090.54,6641.2
3102.63,5968.3
3114.71,5803.5
3126.77,5720.85
3138.8,5704.9
3150.82,5777.05
3162.81,5811.25
3174.78,5747.7
3186.74,5736.85
3198.67,5681.0
3210.58,5722.25
3222.47,5840.55
3234.35,5768.6
3246.2,5735.8
3258.03,5763.85
3269.84,5748.15
3281.64,5699.95
3293.41,5723.95
3305.16,5672.5
3316.89,5772.45
3328.61,5639.0
3340.3,5710.25
3351.97,5705.85
3363.63,5719.95
3375.26,5668.3
3386.88,5626.35
3398.47,5629.8
3410.05,5637.45
3421.6,5644.5
3433.14,5605.95
3444.66,5493.2
3456.15,5730.1
3467.63,5474.85
3479.09,5467.8
3490.53,5444.35
3501.96,5537.8
3513.36,5411.85
3524.74,5366.65
3536.11,5445.35
3547.45,5341.15
3558.78,5382.05
3570.09,5281.95
3581.37,5308.2
3592.64,5179.15
3603.9,5203.05
3615.13,5116.25
3626.34,5075.0
3637.54,5082.75
3648.72,5070.3
3659.87,5089.1
3665.45,4952.7