Folder: MPX_specDB/spectra (part 40)

File: VLFR_02-HDPE_bio_Raman_660a7cd8.csv
nm,Intensity
526.495,828.3
527.042,829.6
527.589,828.4
528.136,828.9
528.682,828.2
529.229,829.6
529.775,829.7
530.321,830.5
530.867,829.1
531.413,829.4
531.959,831.3
532.505,827.8
533.051,829.4
533.596,830.7
534.141,980.2
534.687,988.9
535.232,992.2
535.777,996.3
536.321,1003.7
536.866,1002.1
537.41,1006.7
537.955,1009.9
538.499,1010.9
539.043,1006.9
539.587,1020.0
540.131,1021.8
540.675,1023.2
541.219,1027.1
541.762,1029.3
542.305,1027.8
542.849,1038.1
543.392,1037.1
543.935,1039.8
544.478,1040.8
545.02,1050.9
545.563,1055.2
546.106,1051.5
546.648,1054.8
547.19,1058.7
547.732,1060.7
548.274,1060.9
548.816,1068.8
549.358,1072.2
549.9,1080.0
550.441,1073.8
550.983,1076.6
551.524,1077.8
552.065,1086.3
552.606,1089.0
553.147,1094.5
553.688,1092.0
554.229,1097.6
554.769,1100.9
555.31,1092.7
555.85,1102.6
556.391,1106.3
556.931,1109.3
557.471,1106.7
558.011,1112.0
558.551,1112.2
559.09,1117.8
559.63,1127.6
560.169,1123.6
560.709,1132.0
561.248,1136.7
561.787,1134.4
562.326,1129.6
562.865,1140.0
563.404,1141.7
563.943,1153.2
564.481,1153.4
565.02,1154.7
565.558,1164.2
566.096,1172.8
566.634,1168.4
567.172,1167.9
567.71,1167.5
568.248,1178.3
568.786,1189.2
569.324,1190.3
569.861,1195.3
570.399,1205.7
570.936,1212.2
571.473,1207.9
572.01,1208.8
572.547,1220.2
573.084,1229.2
573.621,1234.7
574.158,1229.8
574.694,1230.9
575.231,1242.0
575.767,1242.9
576.303,1247.1
576.84,1241.1
577.376,1246.6
577.912,1250.1
578.448,1257.4
578.984,1265.9
579.519,1260.3
580.055,1265.2
580.59,1270.9
581.126,1278.8
581.661,1285.4
582.196,1279.7
582.731,1270.3
583.267,1263.7
583.801,1273.8
584.336,1269.2
584.871,1273.2
585.406,1279.2
585.94,1286.8
586.475,1293.6
587.009,1288.7
587.543,1288.8
588.078,1290.6
588.612,1302.1
589.146,1292.0
589.68,1292.5
590.214,1293.0
590.747,1299.3
591.281,1300.9
591.815,1302.8
592.348,1298.7
592.881,1290.5
593.415,1306.2
593.948,1297.9
594.481,1308.4
595.014,1315.8
595.547,1321.8
596.08,1317.9
596.613,1324.4
597.146,1320.8
597.678,1325.0
598.211,1328.8
598.743,1334.8
599.276,1340.2
599.808,1336.9
600.34,1332.4
600.872,1338.4
601.404,1329.5
601.936,1333.3
602.468,1324.7
603.0,1334.9
603.532,1337.6
604.064,1326.7
604.595,1338.4
605.127,1343.2
605.658,1327.7
606.189,1329.2
606.721,1317.8
607.252,1329.4
607.783,1339.1
608.314,1334.5
608.845,1347.7
609.376,1344.1
609.907,1342.0
610.438,1335.4
610.968,1344.7
611.499,1336.0
612.029,1345.5
612.56,1344.9
613.09,1367.7
613.621,1365.2
614.151,1359.1
614.681,1360.6
615.211,1367.2
615.741,1369.8
616.271,1362.4
616.801,1365.3
617.331,1373.5
617.861,1371.2
618.39,1365.6
618.92,1372.0
619.45,1377.4
619.979,1364.2
620.509,1374.8
621.038,1376.0
621.567,1372.6
622.096,1373.6
622.626,1375.9
623.155,1381.9
623.684,1378.5
624.213,1393.4
624.742,1375.7
625.271,1384.2
625.799,1384.7
626.328,1382.8
626.857,1375.7
627.386,1373.9
627.914,1374.1
628.443,1382.3
628.971,1381.5
629.5,1379.3
630.028,1390.8
630.556,1383.8
631.084,1389.3
631.613,1381.3
632.141,1385.1
632.669,1375.9
633.197,1384.1
633.725,1378.0
634.253,1375.3
634.781,1377.2
635.308,1373.7
635.836,1379.8
636.364,1381.8
636.891,1384.4
637.419,1381.3
637.947,1369.2
638.474,1385.9
639.002,1367.4
639.529,1379.3
640.056,1378.9
640.584,1377.2
641.111,1373.3
641.638,1369.7
642.165,1370.9
642.692,1370.4
643.219,1368.3
643.746,1367.8
644.273,1350.5
644.8,1352.4
645.327,1346.3
645.854,1353.6
646.381,1348.9
646.908,1355.9
647.434,1357.7
647.961,1354.8
648.488,1355.6
649.014,1351.8
649.541,1358.1
650.067,1360.5
650.594,1362.8
651.12,1355.1
651.646,1353.2
652.173,1348.8
652.699,1357.7
653.225,1354.0
653.752,1355.0
654.278,1356.5
654.804,1351.2
655.33,1358.2
655.856,1357.4
656.382,1361.2
656.908,1355.8
657.434,1355.1
657.96,1353.2
658.486,1358.6
659.012,1355.7
659.538,1359.6
660.064,1354.4
660.589,1359.4
661.115,1353.9
661.641,1343.7
662.166,1344.9
662.692,1354.2
663.086,1344.9

File: VLFR_02-HDPE_bio_Raman_664ed28d.csv
nm,Intensity
526.495,829.8
527.042,830.3
527.589,827.8
528.136,827.8
528.682,830.3
529.229,828.4
529.775,829.2
530.321,829.3
530.867,829.4
531.413,829.2
531.959,832.8
532.505,828.4
533.051,829.3
533.596,829.3
534.141,875.2
534.687,869.9
535.232,865.2
535.777,852.3
536.321,846.3
536.866,845.7
537.41,845.7
537.955,845.9
538.499,842.2
539.043,841.3
539.587,840.8
540.131,840.7
540.675,837.6
541.219,840.3
541.762,839.1
542.305,838.6
542.849,839.4
543.392,839.8
543.935,838.4
544.478,837.2
545.02,836.5
545.563,837.5
546.106,838.4
546.648,837.0
547.19,837.7
547.732,838.6
548.274,835.0
548.816,837.4
549.358,837.0
549.9,836.5
550.441,838.6
550.983,840.0
551.524,837.8
552.065,839.1
552.606,838.9
553.147,837.9
553.688,839.5
554.229,841.8
554.769,841.6
555.31,840.5
555.85,841.6
556.391,841.6
556.931,845.7
557.471,842.9
558.011,843.9
558.551,844.5
559.09,845.9
559.63,846.9
560.169,845.3
560.709,843.4
561.248,846.7
561.787,847.5
562.326,846.6
562.865,851.3
563.404,850.8
563.943,896.5
564.481,864.1
565.02,861.4
565.558,857.7
566.096,918.4
566.634,858.7
567.172,855.8
567.71,856.4
568.248,852.8
568.786,854.7
569.324,861.4
569.861,860.2
570.399,864.4
570.936,869.1
571.473,946.6
572.01,884.5
572.547,876.6
573.084,872.0
573.621,879.2
574.158,888.9
574.694,883.1
575.231,893.2
575.767,929.5
576.303,1009.8
576.84,967.6
577.376,960.9
577.912,938.6
578.448,947.3
578.984,959.0
579.519,966.9
580.055,982.3
580.59,996.0
581.126,1008.2
581.661,1015.2
582.196,1026.7
582.731,1042.3
583.267,1047.0
583.801,1052.2
584.336,1050.7
584.871,1050.3
585.406,1054.2
585.94,1039.1
586.475,1044.5
587.009,1038.6
587.543,1030.6
588.078,1020.2
588.612,1010.7
589.146,1001.1
589.68,997.9
590.214,988.0
590.747,985.0
591.281,977.4
591.815,969.6
592.348,968.0
592.881,967.7
593.415,961.6
593.948,963.8
594.481,956.8
595.014,956.6
595.547,951.5
596.08,950.3
596.613,957.3
597.146,955.1
597.678,954.3
598.211,958.0
598.743,956.1
599.276,959.1
599.808,959.8
600.34,961.8
600.872,958.2
601.404,956.8
601.936,960.4
602.468,956.9
603.0,955.0
603.532,957.9
604.064,949.5
604.595,949.0
605.127,945.4
605.658,939.7
606.189,937.3
606.721,937.7
607.252,929.3
607.783,929.7
608.314,925.4
608.845,926.1
609.376,921.2
609.907,917.2
610.438,915.8
610.968,914.9
611.499,918.2
612.029,911.6
612.56,912.2
613.09,909.6
613.621,906.9
614.151,905.1
614.681,905.1
615.211,906.0
615.741,903.7
616.271,902.7
616.801,903.5
617.331,906.1
617.861,908.8
618.39,908.8
618.92,907.2
619.45,905.5
619.979,912.0
620.509,910.6
621.038,914.4
621.567,922.8
622.096,943.2
622.626,937.7
623.155,916.8
623.684,914.2
624.213,915.5
624.742,917.1
625.271,919.7
625.799,924.2
626.328,943.7
626.857,1106.5
627.386,1403.6
627.914,1201.4
628.443,1372.0
628.971,1245.2
629.5,1162.6
630.028,1087.4
630.556,1068.7
631.084,993.3
631.613,949.7
632.141,936.8
632.669,935.6
633.197,935.4
633.725,938.8
634.253,929.4
634.781,930.6
635.308,924.6
635.836,924.2
636.364,926.9
636.891,925.9
637.419,916.1
637.947,917.1
638.474,914.4
639.002,912.5
639.529,914.5
640.056,906.0
640.584,905.0
641.111,905.1
641.638,903.4
642.165,903.3
642.692,901.1
643.219,897.8
643.746,892.4
644.273,896.1
644.8,893.7
645.327,893.0
645.854,893.3
646.381,893.4
646.908,894.4
647.434,888.0
647.961,889.6
648.488,887.4
649.014,890.8
649.541,887.1
650.067,888.4
650.594,888.8
651.12,887.3
651.646,885.8
652.173,884.7
652.699,889.0
653.225,889.7
653.752,888.4
654.278,886.5
654.804,887.1
655.33,885.7
655.856,886.7
656.382,885.1
656.908,884.8
657.434,881.5
657.96,884.1
658.486,883.6
659.012,884.1
659.538,883.1
660.064,878.0
660.589,881.7
661.115,874.2
661.641,871.9
662.166,873.7
662.692,870.3
663.086,872.2

File: VLFR_02-HDPE_bio_Raman_667e5854.csv
nm,Intensity
526.495,830.1
527.042,828.4
527.589,830.1
528.136,829.7
528.682,829.3
529.229,828.8
529.775,828.5
530.321,828.3
530.867,828.9
531.413,828.3
531.959,829.8
532.505,829.5
533.051,829.1
533.596,829.6
534.141,896.4
534.687,898.8
535.232,896.2
535.777,867.2
536.321,858.6
536.866,855.8
537.41,852.8
537.955,854.9
538.499,851.5
539.043,848.5
539.587,848.9
540.131,848.0
540.675,846.6
541.219,846.8
541.762,846.5
542.305,847.3
542.849,846.9
543.392,845.6
543.935,846.6
544.478,848.1
545.02,847.0
545.563,846.2
546.106,847.7
546.648,846.1
547.19,847.8
547.732,848.1
548.274,844.7
548.816,844.8
549.358,849.4
549.9,847.4
550.441,847.2
550.983,848.7
551.524,847.1
552.065,845.7
552.606,848.0
553.147,849.6
553.688,850.6
554.229,853.4
554.769,850.4
555.31,852.2
555.85,851.1
556.391,853.1
556.931,853.5
557.471,855.4
558.011,856.1
558.551,855.3
559.09,858.0
559.63,854.9
560.169,854.9
560.709,855.3
561.248,853.9
561.787,854.7
562.326,856.5
562.865,858.6
563.404,862.8
563.943,938.5
564.481,878.2
565.02,872.3
565.558,867.1
566.096,906.7
566.634,864.6
567.172,865.4
567.71,870.0
568.248,861.2
568.786,863.4
569.324,861.2
569.861,862.5
570.399,868.9
570.936,869.9
571.473,991.0
572.01,890.3
572.547,870.2
573.084,865.3
573.621,871.2
574.158,870.8
574.694,865.4
575.231,870.6
575.767,897.3
576.303,1017.6
576.84,950.9
577.376,924.2
577.912,880.6
578.448,875.4
578.984,874.6
579.519,878.3
580.055,878.4
580.59,875.4
581.126,873.7
581.661,878.4
582.196,877.0
582.731,878.7
583.267,881.0
583.801,883.7
584.336,882.2
584.871,882.3
585.406,886.3
585.94,888.7
586.475,885.6
587.009,888.3
587.543,890.5
588.078,894.2
588.612,892.2
589.146,890.6
589.68,895.7
590.214,892.4
590.747,894.7
591.281,894.6
591.815,894.4
592.348,896.7
592.881,895.3
593.415,897.0
593.948,893.6
594.481,901.4
595.014,903.2
595.547,900.4
596.08,903.1
596.613,904.4
597.146,908.0
597.678,907.8
598.211,916.7
598.743,914.4
599.276,914.6
599.808,917.6
600.34,917.6
600.872,916.2
601.404,919.4
601.936,922.1
602.468,920.2
603.0,918.2
603.532,916.2
604.064,911.8
604.595,915.6
605.127,907.9
605.658,910.0
606.189,907.6
606.721,901.2
607.252,903.6
607.783,899.2
608.314,902.7
608.845,899.7
609.376,896.4
609.907,899.8
610.438,896.8
610.968,893.4
611.499,897.9
612.029,898.2
612.56,892.4
613.09,897.5
613.621,895.7
614.151,897.3
614.681,894.4
615.211,895.8
615.741,896.6
616.271,898.0
616.801,902.2
617.331,909.4
617.861,907.2
618.39,906.5
618.92,907.6
619.45,909.9
619.979,912.6
620.509,912.6
621.038,916.7
621.567,940.1
622.096,988.7
622.626,979.9
623.155,929.0
623.684,918.6
624.213,912.4
624.742,912.6
625.271,919.2
625.799,932.0
626.328,978.0
626.857,1415.5
627.386,2111.8
627.914,1590.1
628.443,2038.2
628.971,1512.3
629.5,1380.5
630.028,1214.5
630.556,1190.0
631.084,1028.6
631.613,936.3
632.141,923.2
632.669,915.1
633.197,910.1
633.725,903.4
634.253,902.0
634.781,900.6
635.308,901.1
635.836,900.0
636.364,896.4
636.891,891.5
637.419,892.5
637.947,889.1
638.474,890.3
639.002,888.1
639.529,891.5
640.056,887.4
640.584,888.4
641.111,891.4
641.638,887.9
642.165,886.9
642.692,883.7
643.219,887.6
643.746,885.1
644.273,887.6
644.8,888.5
645.327,884.0
645.854,887.2
646.381,886.4
646.908,885.0
647.434,885.4
647.961,886.6
648.488,885.3
649.014,887.2
649.541,885.4
650.067,886.2
650.594,886.1
651.12,884.9
651.646,886.4
652.173,887.5
652.699,882.9
653.225,884.9
653.752,884.6
654.278,882.3
654.804,884.6
655.33,888.9
655.856,885.4
656.382,882.7
656.908,885.0
657.434,881.3
657.96,879.0
658.486,880.5
659.012,881.3
659.538,881.8
660.064,881.7
660.589,881.4
661.115,879.7
661.641,878.4
662.166,875.6
662.692,876.2
663.086,871.5

File: VLFR_02-HDPE_bio_Raman_722c0e1c.csv
nm,Intensity
526.495,828.8
527.042,828.6
527.589,830.3
528.136,828.4
528.682,828.8
529.229,828.0
529.775,830.2
530.321,829.7
530.867,828.6
531.413,828.4
531.959,833.5
532.505,829.2
533.051,828.7
533.596,829.8
534.141,903.7
534.687,896.6
535.232,884.5
535.777,871.1
536.321,865.0
536.866,862.0
537.41,856.9
537.955,858.3
538.499,855.9
539.043,852.4
539.587,849.1
540.131,848.5
540.675,849.2
541.219,845.4
541.762,846.2
542.305,846.2
542.849,845.2
543.392,845.9
543.935,847.8
544.478,848.5
545.02,845.8
545.563,845.4
546.106,845.2
546.648,846.1
547.19,847.2
547.732,848.9
548.274,848.6
548.816,846.4
549.358,849.8
549.9,846.7
550.441,847.7
550.983,847.8
551.524,849.6
552.065,848.3
552.606,847.8
553.147,847.5
553.688,850.0
554.229,849.7
554.769,849.3
555.31,850.4
555.85,850.9
556.391,849.9
556.931,853.2
557.471,852.4
558.011,850.9
558.551,856.1
559.09,851.8
559.63,851.4
560.169,852.1
560.709,851.9
561.248,851.4
561.787,853.7
562.326,854.0
562.865,856.6
563.404,858.2
563.943,910.7
564.481,874.2
565.02,866.4
565.558,862.9
566.096,926.8
566.634,865.1
567.172,860.0
567.71,865.0
568.248,856.5
568.786,858.7
569.324,858.2
569.861,857.5
570.399,861.5
570.936,867.6
571.473,960.5
572.01,879.9
572.547,865.1
573.084,861.4
573.621,863.8
574.158,867.2
574.694,861.4
575.231,866.2
575.767,897.5
576.303,985.6
576.84,925.7
577.376,904.0
577.912,874.6
578.448,870.1
578.984,872.6
579.519,869.2
580.055,872.0
580.59,874.0
581.126,873.3
581.661,877.1
582.196,882.6
582.731,880.8
583.267,885.4
583.801,891.6
584.336,895.9
584.871,899.7
585.406,908.4
585.94,912.5
586.475,917.9
587.009,930.2
587.543,935.5
588.078,951.6
588.612,958.7
589.146,967.1
589.68,967.4
590.214,980.4
590.747,985.1
591.281,993.3
591.815,994.1
592.348,993.6
592.881,996.2
593.415,993.2
593.948,993.2
594.481,985.0
595.014,988.5
595.547,987.8
596.08,979.6
596.613,977.1
597.146,976.0
597.678,975.2
598.211,976.6
598.743,972.8
599.276,977.9
599.808,975.6
600.34,969.3
600.872,968.2
601.404,963.8
601.936,968.7
602.468,961.9
603.0,960.8
603.532,959.8
604.064,959.3
604.595,952.8
605.127,950.3
605.658,944.4
606.189,939.5
606.721,943.1
607.252,930.0
607.783,932.2
608.314,931.1
608.845,929.4
609.376,922.3
609.907,921.5
610.438,925.2
610.968,917.8
611.499,918.0
612.029,918.8
612.56,917.1
613.09,916.1
613.621,915.7
614.151,911.5
614.681,909.8
615.211,912.0
615.741,908.4
616.271,908.9
616.801,910.2
617.331,910.7
617.861,910.3
618.39,911.4
618.92,908.9
619.45,912.9
619.979,910.1
620.509,910.0
621.038,909.0
621.567,921.7
622.096,939.1
622.626,937.9
623.155,910.8
623.684,904.6
624.213,903.8
624.742,904.0
625.271,908.6
625.799,912.2
626.328,938.8
626.857,1150.4
627.386,1513.8
627.914,1245.9
628.443,1454.4
628.971,1276.1
629.5,1182.7
630.028,1092.5
630.556,1071.0
631.084,968.9
631.613,921.6
632.141,912.7
632.669,908.1
633.197,906.8
633.725,899.6
634.253,905.7
634.781,903.4
635.308,904.5
635.836,900.7
636.364,901.1
636.891,910.1
637.419,907.1
637.947,904.0
638.474,904.8
639.002,910.3
639.529,912.7
640.056,914.6
640.584,913.4
641.111,918.8
641.638,921.5
642.165,923.4
642.692,922.4
643.219,926.5
643.746,922.0
644.273,923.8
644.8,924.4
645.327,924.4
645.854,926.4
646.381,922.5
646.908,924.4
647.434,930.3
647.961,924.1
648.488,925.3
649.014,922.9
649.541,921.0
650.067,923.1
650.594,923.3
651.12,916.3
651.646,918.5
652.173,918.4
652.699,907.9
653.225,911.2
653.752,910.3
654.278,907.7
654.804,906.4
655.33,906.7
655.856,902.1
656.382,900.5
656.908,898.5
657.434,893.9
657.96,898.5
658.486,892.9
659.012,893.6
659.538,890.5
660.064,891.0
660.589,888.1
661.115,885.0
661.641,885.8
662.166,883.0
662.692,881.5
663.086,878.5

File: VLFR_02-HDPE_bio_Raman_736f1e61.csv
nm,Intensity
526.508,830.5
527.055,830.5
527.602,831.2
528.149,830.2
528.695,829.8
529.241,830.4
529.787,830.3
530.334,830.4
530.879,829.7
531.425,830.7
531.971,833.6
532.516,829.8
533.062,830.6
533.607,831.7
534.152,896.4
534.697,886.4
535.242,872.3
535.786,859.6
536.331,853.8
536.876,852.7
537.42,850.6
537.964,853.0
538.508,849.8
539.052,844.0
539.596,844.7
540.14,842.5
540.683,840.8
541.227,843.4
541.77,842.9
542.313,842.2
542.856,840.5
543.399,842.9
543.942,843.7
544.485,840.6
545.027,842.2
545.57,841.0
546.112,840.2
546.654,839.7
547.196,840.6
547.738,843.3
548.28,842.3
548.822,838.9
549.363,840.3
549.905,842.4
550.446,839.3
550.988,841.1
551.529,841.4
552.07,842.6
552.611,842.2
553.152,843.3
553.692,846.6
554.233,844.7
554.773,845.0
555.314,844.1
555.854,845.9
556.394,849.0
556.934,849.1
557.474,851.2
558.014,851.4
558.553,852.8
559.093,851.5
559.632,851.7
560.172,850.5
560.711,848.8
561.25,849.7
561.789,848.7
562.328,850.2
562.867,852.3
563.406,858.1
563.944,941.0
564.483,875.9
565.021,869.5
565.559,868.4
566.098,1011.8
566.636,869.6
567.174,857.5
567.711,859.6
568.249,851.6
568.787,850.6
569.324,853.8
569.862,853.8
570.399,855.9
570.936,864.1
571.474,1021.5
572.011,883.0
572.548,861.8
573.084,854.7
573.621,856.2
574.158,866.2
574.694,854.7
575.231,863.9
575.767,934.4
576.303,988.3
576.84,933.1
577.376,902.1
577.912,864.4
578.447,862.0
578.983,858.7
579.519,858.8
580.054,860.6
580.59,859.2
581.125,859.3
581.661,857.0
582.196,862.1
582.731,860.5
583.266,861.8
583.801,862.3
584.336,865.8
584.87,865.1
585.405,865.2
585.94,867.2
586.474,873.6
587.008,869.4
587.543,875.8
588.077,874.5
588.611,876.7
589.145,879.8
589.679,879.5
590.213,881.8
590.747,881.7
591.28,882.7
591.814,885.1
592.347,886.8
592.881,887.9
593.414,889.4
593.947,891.2
594.48,889.1
595.014,890.3
595.547,894.0
596.079,894.7
596.612,894.0
597.145,896.8
597.678,894.8
598.21,898.4
598.743,901.6
599.275,900.8
599.807,902.0
600.34,900.5
600.872,900.3
601.404,897.8
601.936,903.8
602.468,903.8
603.0,900.7
603.532,905.4
604.063,901.5
604.595,903.4
605.126,898.0
605.658,895.6
606.189,894.5
606.721,897.6
607.252,895.0
607.783,893.6
608.314,890.4
608.845,890.8
609.376,893.5
609.907,891.1
610.438,892.4
610.968,893.2
611.499,890.1
612.03,887.8
612.56,891.9
613.091,889.2
613.621,892.3
614.151,887.1
614.681,890.0
615.212,888.1
615.742,888.4
616.272,887.1
616.802,891.4
617.332,892.0
617.861,893.3
618.391,892.8
618.921,894.2
619.45,896.6
619.98,896.6
620.509,898.1
621.039,903.7
621.568,906.4
622.097,929.2
622.627,926.5
623.156,901.2
623.685,895.8
624.214,891.9
624.743,891.5
625.272,898.0
625.801,902.7
626.33,927.1
626.858,1158.7
627.387,1634.3
627.916,1302.1
628.444,1515.4
628.973,1429.7
629.501,1292.0
630.029,1164.1
630.558,1138.3
631.086,997.7
631.614,916.8
632.142,900.2
632.67,891.2
633.198,888.0
633.726,883.0
634.254,881.7
634.782,881.9
635.31,876.9
635.838,875.2
636.365,877.1
636.893,877.0
637.421,869.8
637.948,870.2
638.476,874.1
639.003,870.2
639.531,869.9
640.058,872.2
640.585,871.1
641.113,872.8
641.64,875.6
642.167,875.5
642.694,871.4
643.221,871.8
643.748,873.7
644.275,874.8
644.802,870.8
645.329,873.5
645.856,875.9
646.382,874.3
646.909,873.6
647.436,874.2
647.962,873.5
648.489,873.7
649.016,874.0
649.542,872.6
650.069,874.2
650.595,875.9
651.121,872.2
651.648,871.5
652.174,871.7
652.7,875.5
653.227,872.2
653.753,869.7
654.279,871.8
654.805,870.6
655.331,872.3
655.857,872.0
656.383,869.2
656.909,868.7
657.435,870.4
657.961,871.3
658.487,869.9
659.013,867.2
659.538,867.4
660.064,867.3
660.59,869.2
661.116,865.8
661.641,865.1
662.167,865.0
662.692,863.1
663.087,861.5

File: VLFR_02-HDPE_bio_Raman_753a8a9a.csv
nm,Intensity
526.494,833.7
527.041,833.7
527.588,834.0
528.135,835.4
528.682,834.6
529.229,834.0
529.775,834.7
530.321,832.1
530.868,834.0
531.414,834.5
531.96,843.9
532.506,834.9
533.051,834.2
533.597,836.2
534.142,917.2
534.687,914.8
535.232,913.5
535.777,880.8
536.322,873.5
536.867,872.6
537.411,866.6
537.956,868.3
538.5,863.6
539.044,863.0
539.588,860.5
540.132,859.3
540.676,859.0
541.22,857.1
541.763,859.3
542.306,857.7
542.85,858.6
543.393,859.1
543.936,861.6
544.479,858.6
545.021,862.5
545.564,859.5
546.106,858.1
546.649,861.0
547.191,859.3
547.733,861.8
548.275,861.0
548.817,860.4
549.359,862.9
549.9,861.0
550.442,861.4
550.983,861.1
551.524,860.4
552.066,861.0
552.607,864.1
553.148,862.6
553.688,863.9
554.229,865.9
554.77,866.3
555.31,864.3
555.85,864.9
556.39,868.0
556.931,866.6
557.471,870.4
558.01,870.2
558.55,868.8
559.09,869.4
559.629,867.8
560.169,867.4
560.708,866.3
561.247,868.6
561.786,871.3
562.325,873.1
562.864,873.7
563.403,874.6
563.941,955.9
564.48,890.4
565.018,881.5
565.557,877.2
566.095,927.0
566.633,878.2
567.171,878.8
567.709,885.6
568.247,873.5
568.784,871.6
569.322,874.1
569.859,872.8
570.397,879.3
570.934,884.3
571.471,1005.7
572.008,895.7
572.545,879.7
573.082,878.2
573.619,878.0
574.155,884.2
574.692,877.0
575.228,879.0
575.765,913.1
576.301,1023.2
576.837,952.6
577.373,930.7
577.909,885.9
578.445,879.8
578.981,880.0
579.516,881.9
580.052,879.7
580.587,879.0
581.123,878.2
581.658,878.0
582.193,880.4
582.728,884.5
583.263,883.8
583.798,885.2
584.333,884.8
584.868,885.7
585.402,890.7
585.937,889.6
586.471,891.7
587.005,892.3
587.54,895.2
588.074,896.3
588.608,896.2
589.142,897.1
589.676,898.6
590.21,901.5
590.743,901.2
591.277,904.4
591.81,902.9
592.344,904.1
592.877,902.6
593.411,903.2
593.944,907.0
594.477,905.4
595.01,909.5
595.543,908.6
596.076,910.6
596.608,909.4
597.141,914.7
597.674,915.7
598.206,916.7
598.739,917.1
599.271,918.2
599.803,919.2
600.335,916.9
600.868,921.1
601.4,918.7
601.931,924.8
602.463,921.4
602.995,918.0
603.527,921.3
604.058,917.2
604.59,916.7
605.121,917.5
605.653,916.2
606.184,913.6
606.715,910.5
607.246,909.0
607.778,905.7
608.309,907.1
608.839,911.1
609.37,911.1
609.901,908.0
610.432,905.9
610.962,908.6
611.493,907.0
612.023,904.8
612.554,908.8
613.084,908.3
613.614,905.6
614.145,903.6
614.675,903.3
615.205,905.6
615.735,904.7
616.265,905.9
616.795,912.0
617.324,919.9
617.854,919.2
618.384,919.4
618.913,914.9
619.443,924.6
619.972,924.9
620.502,918.2
621.031,927.6
621.56,946.2
622.089,990.0
622.618,984.7
623.147,933.0
623.676,924.2
624.205,922.5
624.734,919.4
625.263,923.8
625.792,935.2
626.32,986.6
626.849,1430.5
627.377,2079.0
627.906,1600.8
628.434,2060.9
628.963,1501.9
629.491,1356.9
630.019,1217.1
630.547,1184.0
631.076,1025.6
631.604,943.5
632.132,918.8
632.66,918.0
633.188,911.8
633.715,907.9
634.243,909.8
634.771,901.9
635.299,903.3
635.826,904.4
636.354,899.9
636.881,899.8
637.409,899.0
637.936,894.4
638.464,890.8
638.991,896.2
639.518,892.1
640.045,893.3
640.573,897.4
641.1,894.1
641.627,897.9
642.154,897.3
642.681,894.1
643.208,891.8
643.735,894.6
644.261,894.7
644.788,895.2
645.315,897.0
645.842,895.4
646.368,895.7
646.895,894.6
647.421,894.6
647.948,896.8
648.474,896.3
649.001,901.4
649.527,897.2
650.054,899.3
650.58,899.5
651.106,897.8
651.633,898.9
652.159,896.6
652.685,896.6
653.211,894.4
653.737,897.8
654.263,896.2
654.789,896.5
655.315,892.3
655.841,890.2
656.367,891.0
656.893,894.8
657.419,892.7
657.945,887.9
658.47,892.6
658.996,890.3
659.522,890.4
660.047,893.8
660.573,887.4
661.099,885.5
661.624,887.9
662.15,883.2
662.675,885.0
663.07,884.4

File: VLFR_02-HDPE_bio_Raman_822efd73.csv
nm,Intensity
526.508,829.7
527.055,830.8
527.602,830.8
528.149,828.6
528.695,829.5
529.241,828.5
529.787,829.8
530.334,829.3
530.879,830.4
531.425,830.8
531.971,832.5
532.516,829.7
533.062,830.3
533.607,830.6
534.152,888.5
534.697,887.7
535.242,888.6
535.786,859.3
536.331,851.3
536.876,848.8
537.42,851.5
537.964,849.1
538.508,846.0
539.052,842.8
539.596,842.2
540.14,841.7
540.683,841.8
541.227,840.3
541.77,840.8
542.313,837.5
542.856,840.5
543.399,840.3
543.942,839.3
544.485,837.1
545.027,838.8
545.57,840.6
546.112,838.4
546.654,855.6
547.196,838.8
547.738,839.5
548.28,836.9
548.822,838.7
549.363,838.4
549.905,838.9
550.446,844.7
550.988,838.8
551.529,837.5
552.07,838.5
552.611,838.5
553.152,837.2
553.692,840.0
554.233,839.5
554.773,839.9
555.314,840.4
555.854,839.9
556.394,843.7
556.934,842.9
557.474,845.7
558.014,844.7
558.553,845.1
559.093,842.9
559.632,846.2
560.172,844.2
560.711,844.1
561.25,842.4
561.789,845.1
562.328,907.8
562.867,849.1
563.406,850.1
563.944,909.6
564.483,863.7
565.021,859.1
565.559,851.2
566.098,894.9
566.636,859.0
567.174,853.4
567.711,856.0
568.249,848.1
568.787,849.7
569.324,850.5
569.862,851.7
570.399,851.9
570.936,860.5
571.474,951.1
572.011,876.5
572.548,859.4
573.084,854.3
573.621,860.1
574.158,867.7
574.694,862.5
575.231,867.1
575.767,896.8
576.303,1005.0
576.84,943.9
577.376,927.2
577.912,888.2
578.447,887.4
578.983,892.5
579.519,896.8
580.054,904.1
580.59,904.3
581.125,915.8
581.661,917.1
582.196,922.2
582.731,924.2
583.266,931.3
583.801,933.5
584.336,935.8
584.87,933.0
585.405,936.4
585.94,934.0
586.474,935.2
587.008,938.6
587.543,939.7
588.077,941.5
588.611,943.1
589.145,943.3
589.679,951.1
590.213,954.3
590.747,959.3
591.28,961.5
591.814,964.7
592.347,969.1
592.881,968.6
593.414,968.9
593.947,973.7
594.48,975.0
595.014,971.3
595.547,971.4
596.079,968.6
596.612,976.0
597.145,973.8
597.678,971.2
598.21,979.5
598.743,979.6
599.275,979.4
599.807,984.2
600.34,979.1
600.872,974.2
601.404,980.7
601.936,980.9
602.468,974.7
603.0,975.7
603.532,972.0
604.063,973.6
604.595,965.2
605.126,962.0
605.658,955.7
606.189,952.3
606.721,945.3
607.252,942.7
607.783,945.4
608.314,940.0
608.845,941.1
609.376,938.5
609.907,933.7
610.438,932.2
610.968,929.6
611.499,928.8
612.03,929.7
612.56,929.7
613.091,928.6
613.621,923.7
614.151,928.4
614.681,925.3
615.212,915.5
615.742,921.0
616.272,920.2
616.802,923.1
617.332,925.9
617.861,929.6
618.391,927.3
618.921,926.3
619.45,929.8
619.98,933.2
620.509,924.3
621.039,932.6
621.568,948.3
622.097,988.0
622.627,979.5
623.156,939.9
623.685,932.3
624.214,931.6
624.743,928.8
625.272,932.1
625.801,940.9
626.33,979.4
626.858,1337.3
627.387,1916.6
627.916,1483.8
628.444,1801.1
628.973,1453.9
629.501,1327.3
630.029,1192.0
630.558,1166.0
631.086,1026.3
631.614,949.5
632.142,931.2
632.67,927.0
633.198,929.7
633.726,919.6
634.254,919.3
634.782,919.0
635.31,914.7
635.838,913.6
636.365,913.2
636.893,914.5
637.421,904.6
637.948,903.6
638.476,903.5
639.003,905.4
639.531,905.8
640.058,905.2
640.585,904.1
641.113,908.3
641.64,903.5
642.167,903.1
642.694,904.6
643.221,905.1
643.748,907.5
644.275,903.9
644.802,906.4
645.329,903.5
645.856,908.9
646.382,904.7
646.909,909.6
647.436,912.0
647.962,901.6
648.489,903.4
649.016,906.0
649.542,903.8
650.069,904.3
650.595,902.3
651.121,898.7
651.648,901.0
652.174,897.5
652.7,898.1
653.227,899.5
653.753,899.4
654.279,897.4
654.805,900.7
655.331,893.2
655.857,893.6
656.383,894.9
656.909,892.4
657.435,891.6
657.961,888.2
658.487,890.0
659.013,892.2
659.538,888.7
660.064,889.2
660.59,887.0
661.116,884.4
661.641,880.8
662.167,880.7
662.692,878.5
663.087,873.7