Folder: MPX_specDB/spectra (part 135)

File: VLFR_08-PLA_bio_Raman_8070ea4d.csv
nm,Intensity
528.626,1860.3
529.132,1862.2
529.637,1862.9
530.143,1863.7
530.648,1863.1
531.153,1863.9
531.658,1911.9
532.164,4986.1
532.669,1865.8
533.174,1865.9
533.679,2104.2
534.184,2761.1
534.689,2624.5
535.194,2528.6
535.699,2445.6
536.203,2413.4
536.708,2439.7
537.213,2387.8
537.717,2402.6
538.222,2353.2
538.726,2360.4
539.231,2353.1
539.735,2311.9
540.239,2352.3
540.744,2395.1
541.248,2403.8
541.752,2365.3
542.256,2369.7
542.76,2379.2
543.264,2454.4
543.768,2507.2
544.272,2443.8
544.776,2368.3
545.28,2356.2
545.784,2384.0
546.287,2352.1
546.791,2367.9
547.294,2366.2
547.798,2373.3
548.301,2404.7
548.805,2391.1
549.308,2392.0
549.811,2388.7
550.315,2413.1
550.818,2432.8
551.321,2450.5
551.824,2449.5
552.327,2484.9
552.83,2477.0
553.333,2458.1
553.835,2485.1
554.338,2497.9
554.841,2473.7
555.343,2438.6
555.846,2462.2
556.349,2455.4
556.851,2455.5
557.353,2551.0
557.856,3023.4
558.358,2850.7
558.86,2580.7
559.362,2550.7
559.864,2520.1
560.366,2522.7
560.868,2503.6
561.37,2492.9
561.872,2519.0
562.374,2519.2
562.876,2575.4
563.377,2714.7
563.879,2609.3
564.38,2538.8
564.882,2670.3
565.383,2678.2
565.885,2773.6
566.386,2723.6
566.887,2546.7
567.388,2562.0
567.889,2606.8
568.391,2574.1
568.892,2592.5
569.392,2592.2
569.893,2568.2
570.394,2563.2
570.895,2582.8
571.395,2687.2
571.896,2733.2
572.397,2656.0
572.897,2663.2
573.397,2687.2
573.898,2642.0
574.398,2673.2
574.898,2627.7
575.398,2592.7
575.898,2615.4
576.398,2828.2
576.898,2991.1
577.398,2707.8
577.898,2616.4
578.398,2592.4
578.897,2580.7
579.397,2598.6
579.896,2594.4
580.396,2605.4
580.895,2595.6
581.395,2606.6
581.894,2589.0
582.393,2612.2
582.892,2592.6
583.391,2607.7
583.89,2599.5
584.389,2593.7
584.888,2600.6
585.387,2608.9
585.886,2614.9
586.384,2651.0
586.883,2810.8
587.381,2961.2
587.88,2820.9
588.378,2603.1
588.876,2586.5
589.375,2580.2
589.873,2579.4
590.371,2598.9
590.869,2586.1
591.367,2579.5
591.865,2568.4
592.363,2608.5
592.86,2573.3
593.358,2583.1
593.856,2538.9
594.353,2586.2
594.851,2582.8
595.348,2576.5
595.845,2588.5
596.342,2607.3
596.84,2594.2
597.337,2592.1
597.834,2567.8
598.331,2602.0
598.828,2572.3
599.324,2591.3
599.821,2579.4
600.318,2567.8
600.814,2582.4
601.311,2572.8
601.807,2570.1
602.304,2595.9
602.8,2578.2
603.296,2550.1
603.792,2558.7
604.288,2543.5
604.784,2583.6
605.28,2542.2
605.776,2542.8
606.272,2546.6
606.767,2547.4
607.263,2574.4
607.759,2546.3
608.254,2562.3
608.749,2540.9
609.245,2555.1
609.74,2562.8
610.235,2554.5
610.73,2578.8
611.225,2561.7
611.72,2541.3
612.215,2538.5
612.71,2551.7
613.204,2533.7
613.699,2517.4
614.194,2564.2
614.688,2533.5
615.182,2536.6
615.677,2524.5
616.171,2522.1
616.665,2530.4
617.159,2542.6
617.653,2516.2
618.147,2524.0
618.641,2512.7
619.135,2523.2
619.628,2531.8
620.122,2521.5
620.615,2524.4
621.109,2504.7
621.602,2499.1
622.095,2501.0
622.589,2555.2
623.082,2573.8
623.575,2557.7
624.068,2520.1
624.561,2510.1
625.053,2490.1
625.546,2501.9
626.039,2511.1
626.531,2512.6
627.024,2501.3
627.516,2506.9
628.008,2622.7
628.501,2841.4
628.993,2734.6
629.485,2776.8
629.977,2790.4
630.469,3072.7
630.96,4441.8
631.452,3832.0
631.944,3119.5
632.435,2961.2
632.927,3229.9
633.418,3379.0
633.91,3002.2
634.401,2663.2
634.892,2513.5
635.383,2471.5
635.874,2453.4
636.365,2424.2
636.856,2420.8
637.346,2435.9
637.837,2418.0
638.327,2414.0
638.818,2414.2
639.308,2406.3
639.799,2396.4
640.289,2388.0
640.779,2392.1
641.269,2394.4
641.759,2390.1
642.249,2396.7
642.738,2377.5
643.228,2392.8
643.718,2360.4
644.207,2366.6
644.697,2343.3
645.186,2335.2
645.675,2368.5
646.164,2342.8
646.653,2335.0
647.142,2319.2
647.631,2297.1
648.12,2287.5
648.609,2307.2
649.098,2310.3
649.586,2301.5
650.075,2297.0
650.563,2310.2
651.051,2285.5
651.539,2295.3
652.027,2270.5
652.515,2264.6
653.003,2268.1
653.491,2264.7
653.979,2252.4
654.467,2243.4
654.954,2247.5
655.442,2246.7
655.929,2226.5
656.416,2225.2
656.904,2208.1
657.391,2226.3
657.878,2216.1
658.365,2198.5
658.851,2222.2
659.338,2195.4
659.825,2175.9
660.311,2182.9
660.798,2171.9
661.041,2169.3

File: VLFR_08-PLA_bio_Raman_8536bbe6.csv
nm,Intensity
526.532,833.45
527.079,833.55
527.625,833.15
528.172,833.55
528.718,832.6
529.265,833.15
529.811,833.6
530.357,834.7
530.903,833.2
531.449,833.25
531.994,841.75
532.54,833.1
533.085,832.95
533.63,835.7
534.176,971.35
534.721,957.95
535.266,946.2
535.81,942.35
536.355,943.45
536.9,946.85
537.444,943.55
537.988,945.0
538.533,942.35
539.077,939.75
539.621,940.95
540.165,939.4
540.708,947.15
541.252,949.65
541.795,949.5
542.339,948.2
542.882,951.65
543.425,959.35
543.968,963.45
544.511,957.1
545.054,957.8
545.597,958.0
546.139,957.4
546.682,962.6
547.224,961.25
547.766,961.4
548.308,963.95
548.85,964.25
549.392,969.0
549.934,966.9
550.475,968.45
551.017,973.9
551.558,975.25
552.1,977.4
552.641,980.95
553.182,981.1
553.723,978.85
554.264,983.05
554.804,976.8
555.345,978.35
555.885,979.6
556.426,977.0
556.966,985.0
557.506,991.65
558.046,1036.75
558.586,994.55
559.126,991.15
559.665,988.1
560.205,989.65
560.745,990.35
561.284,986.2
561.823,988.05
562.362,993.0
562.901,997.35
563.44,1010.65
563.979,1004.0
564.518,998.3
565.056,1010.9
565.595,1007.7
566.133,1021.2
566.671,1006.05
567.21,1000.6
567.748,1003.55
568.285,1005.2
568.823,1009.05
569.361,1008.8
569.899,1008.45
570.436,1009.8
570.974,1007.85
571.511,1018.1
572.048,1015.55
572.585,1018.5
573.122,1019.35
573.659,1019.35
574.196,1017.85
574.733,1022.65
575.269,1017.35
575.806,1017.55
576.342,1028.8
576.878,1048.15
577.414,1025.35
577.951,1022.45
578.486,1023.1
579.022,1019.1
579.558,1022.25
580.094,1021.8
580.629,1021.55
581.165,1018.8
581.7,1020.7
582.236,1020.9
582.771,1019.95
583.306,1025.9
583.841,1022.55
584.376,1023.85
584.911,1019.25
585.445,1027.8
585.98,1024.0
586.514,1033.8
587.049,1045.45
587.583,1052.65
588.117,1033.35
588.651,1028.15
589.186,1024.0
589.72,1022.95
590.253,1026.25
590.787,1024.1
591.321,1024.65
591.854,1019.6
592.388,1021.7
592.921,1025.75
593.455,1023.7
593.988,1021.6
594.521,1020.35
595.054,1024.25
595.587,1022.0
596.12,1020.95
596.653,1021.5
597.186,1023.05
597.718,1024.4
598.251,1025.9
598.783,1025.7
599.316,1022.8
599.848,1023.8
600.38,1024.9
600.912,1019.65
601.444,1019.55
601.976,1019.4
602.508,1018.5
603.04,1015.95
603.572,1017.4
604.103,1019.65
604.635,1019.1
605.167,1013.45
605.698,1012.4
606.229,1006.65
606.761,1008.6
607.292,1006.85
607.823,1006.55
608.354,1010.35
608.885,1009.25
609.416,1011.9
609.947,1011.85
610.477,1008.7
611.008,1006.2
611.539,1009.25
612.069,1009.0
612.6,1008.5
613.13,1009.5
613.66,1008.6
614.19,1010.4
614.721,1010.2
615.251,1012.3
615.781,1007.45
616.311,1007.5
616.841,1008.75
617.37,1007.9
617.9,1009.15
618.43,1005.15
618.96,1005.0
619.489,1007.4
620.019,1007.6
620.548,1004.1
621.077,1001.25
621.607,1004.7
622.136,1003.8
622.665,1008.0
623.194,1010.8
623.723,1004.8
624.252,1004.05
624.781,1001.65
625.31,1000.15
625.839,1001.35
626.368,998.5
626.896,1002.8
627.425,998.1
627.953,1001.9
628.482,1031.9
629.01,1021.75
629.539,1022.0
630.067,1023.6
630.596,1052.75
631.124,1199.65
631.652,1088.9
632.18,1045.25
632.708,1039.35
633.236,1074.4
633.764,1056.55
634.292,1013.95
634.82,997.75
635.348,988.1
635.876,987.7
636.403,989.65
636.931,986.0
637.459,983.65
637.986,985.4
638.514,982.7
639.041,980.95
639.568,980.15
640.096,980.35
640.623,976.95
641.15,978.7
641.678,976.95
642.205,976.0
642.732,971.25
643.259,974.25
643.786,972.45
644.313,969.75
644.84,972.6
645.367,965.15
645.894,965.95
646.421,963.55
646.948,965.55
647.474,967.3
648.001,966.4
648.528,960.85
649.054,960.3
649.581,958.05
650.108,956.65
650.634,958.25
651.161,957.25
651.687,957.55
652.214,958.5
652.74,954.1
653.266,958.55
653.793,959.6
654.319,953.85
654.845,953.65
655.371,951.9
655.897,952.6
656.424,951.95
656.95,953.3
657.476,951.3
658.002,953.55
658.528,949.55
659.054,951.6
659.58,951.6
660.106,951.6
660.631,945.65
661.157,949.55
661.683,946.5
662.209,943.5
662.735,947.0
663.129,944.05

File: VLFR_08-PLA_bio_Raman_8567b81f.csv
nm,Intensity
526.495,829.0
527.042,830.3
527.589,829.0
528.136,828.4
528.682,829.8
529.229,828.9
529.775,829.4
530.321,829.7
530.867,828.3
531.413,829.6
531.959,829.6
532.505,831.6
533.051,829.1
533.596,830.4
534.141,1038.5
534.687,1005.0
535.232,981.0
535.777,967.0
536.321,960.2
536.866,958.6
537.41,950.5
537.955,954.6
538.499,944.4
539.043,941.7
539.587,942.6
540.131,936.9
540.675,951.7
541.219,952.0
541.762,944.7
542.305,944.9
542.849,948.5
543.392,969.0
543.935,978.8
544.478,958.3
545.02,952.2
545.563,948.2
546.106,950.1
546.648,948.0
547.19,952.9
547.732,954.8
548.274,954.4
548.816,954.9
549.358,959.4
549.9,961.4
550.441,958.7
550.983,968.5
551.524,969.3
552.065,971.6
552.606,974.6
553.147,973.9
553.688,970.2
554.229,980.5
554.769,972.5
555.31,970.6
555.85,965.2
556.391,971.7
556.931,972.1
557.471,987.2
558.011,1089.0
558.551,1004.1
559.09,980.8
559.63,982.5
560.169,984.4
560.709,976.4
561.248,979.7
561.787,976.9
562.326,984.0
562.865,992.2
563.404,1024.0
563.943,1004.9
564.481,997.4
565.02,1014.3
565.558,1015.6
566.096,1040.1
566.634,1013.1
567.172,990.7
567.71,999.5
568.248,993.4
568.786,999.7
569.324,1001.6
569.861,1005.4
570.399,1003.1
570.936,1008.8
571.473,1021.5
572.01,1012.8
572.547,1023.8
573.084,1017.8
573.621,1023.8
574.158,1027.3
574.694,1033.3
575.231,1013.5
575.767,1012.9
576.303,1029.6
576.84,1077.7
577.376,1034.6
577.912,1018.4
578.448,1015.4
578.984,1014.9
579.519,1012.0
580.055,1016.0
580.59,1020.4
581.126,1017.7
581.661,1014.9
582.196,1016.0
582.731,1015.9
583.267,1022.0
583.801,1022.3
584.336,1024.8
584.871,1015.0
585.406,1025.2
585.94,1020.9
586.475,1036.6
587.009,1065.2
587.543,1087.6
588.078,1043.7
588.612,1027.1
589.146,1025.7
589.68,1023.2
590.214,1030.2
590.747,1024.1
591.281,1032.9
591.815,1019.2
592.348,1025.6
592.881,1019.2
593.415,1025.4
593.948,1024.6
594.481,1023.4
595.014,1026.2
595.547,1025.3
596.08,1021.3
596.613,1026.2
597.146,1024.8
597.678,1025.4
598.211,1024.7
598.743,1029.6
599.276,1026.4
599.808,1027.2
600.34,1025.6
600.872,1026.1
601.404,1018.4
601.936,1024.0
602.468,1025.3
603.0,1025.1
603.532,1027.1
604.064,1028.3
604.595,1021.9
605.127,1022.4
605.658,1018.9
606.189,1012.3
606.721,1019.8
607.252,1018.9
607.783,1026.0
608.314,1020.3
608.845,1022.7
609.376,1019.9
609.907,1022.9
610.438,1022.2
610.968,1017.7
611.499,1021.3
612.029,1020.5
612.56,1023.0
613.09,1020.3
613.621,1027.4
614.151,1026.6
614.681,1025.8
615.211,1026.6
615.741,1028.5
616.271,1024.5
616.801,1031.7
617.331,1024.4
617.861,1023.2
618.39,1024.7
618.92,1026.6
619.45,1023.7
619.979,1020.9
620.509,1027.0
621.038,1016.5
621.567,1020.0
622.096,1025.3
622.626,1035.1
623.155,1039.2
623.684,1040.3
624.213,1033.7
624.742,1023.5
625.271,1023.4
625.799,1025.1
626.328,1024.9
626.857,1018.8
627.386,1026.0
627.914,1029.8
628.443,1095.3
628.971,1090.9
629.5,1085.9
630.028,1088.1
630.556,1149.7
631.084,1528.2
631.613,1283.5
632.141,1150.4
632.669,1124.9
633.197,1215.9
633.725,1182.0
634.253,1081.7
634.781,1035.3
635.308,1019.4
635.836,1018.4
636.364,1013.8
636.891,1014.8
637.419,1011.3
637.947,1002.8
638.474,1012.6
639.002,1010.9
639.529,1004.6
640.056,1004.7
640.584,1006.5
641.111,1004.6
641.638,1004.5
642.165,1004.2
642.692,1000.1
643.219,1000.1
643.746,996.7
644.273,994.4
644.8,994.1
645.327,990.0
645.854,993.4
646.381,991.3
646.908,990.3
647.434,984.4
647.961,988.4
648.488,990.1
649.014,987.4
649.541,985.4
650.067,981.0
650.594,980.4
651.12,982.6
651.646,986.1
652.173,980.4
652.699,976.4
653.225,977.8
653.752,979.8
654.278,977.4
654.804,978.3
655.33,975.9
655.856,976.1
656.382,979.4
656.908,976.1
657.434,978.5
657.96,972.7
658.486,978.7
659.012,973.3
659.538,973.7
660.064,974.0
660.589,973.4
661.115,964.8
661.641,970.2
662.166,968.7
662.692,967.2
663.086,965.8

File: VLFR_08-PLA_bio_Raman_9838d9ec.csv
nm,Intensity
526.495,829.4
527.042,828.0
527.589,829.9
528.136,829.2
528.682,828.7
529.229,828.9
529.775,828.8
530.321,828.1
530.867,829.8
531.413,829.3
531.959,830.1
532.505,829.5
533.051,828.2
533.596,828.7
534.141,834.4
534.687,833.8
535.232,832.7
535.777,833.9
536.321,833.3
536.866,832.8
537.41,835.5
537.955,834.6
538.499,833.6
539.043,836.0
539.587,835.2
540.131,833.3
540.675,833.1
541.219,834.1
541.762,834.2
542.305,833.9
542.849,834.8
543.392,834.7
543.935,833.9
544.478,836.6
545.02,836.1
545.563,833.3
546.106,836.5
546.648,836.4
547.19,834.5
547.732,836.4
548.274,836.9
548.816,836.6
549.358,834.3
549.9,835.1
550.441,834.3
550.983,836.2
551.524,834.9
552.065,835.8
552.606,835.3
553.147,834.7
553.688,835.9
554.229,837.0
554.769,837.1
555.31,836.2
555.85,837.3
556.391,837.2
556.931,834.5
557.471,837.6
558.011,835.9
558.551,836.2
559.09,837.0
559.63,836.8
560.169,837.7
560.709,836.7
561.248,836.8
561.787,837.1
562.326,842.1
562.865,837.2
563.404,838.1
563.943,836.4
564.481,837.3
565.02,836.0
565.558,836.4
566.096,836.4
566.634,835.6
567.172,837.3
567.71,836.2
568.248,836.8
568.786,838.8
569.324,836.4
569.861,838.1
570.399,836.7
570.936,838.1
571.473,838.3
572.01,837.9
572.547,837.3
573.084,837.4
573.621,837.6
574.158,839.1
574.694,836.6
575.231,837.6
575.767,838.2
576.303,837.8
576.84,836.7
577.376,836.9
577.912,838.3
578.448,838.2
578.984,836.7
579.519,836.8
580.055,838.3
580.59,839.1
581.126,838.9
581.661,837.3
582.196,837.5
582.731,839.1
583.267,836.8
583.801,838.5
584.336,836.3
584.871,838.8
585.406,838.3
585.94,836.6
586.475,840.0
587.009,837.7
587.543,836.7
588.078,837.4
588.612,838.8
589.146,840.4
589.68,838.4
590.214,837.9
590.747,838.9
591.281,837.9
591.815,839.0
592.348,838.4
592.881,838.6
593.415,837.3
593.948,839.5
594.481,840.2
595.014,838.1
595.547,839.2
596.08,839.3
596.613,838.0
597.146,837.2
597.678,839.1
598.211,837.6
598.743,839.1
599.276,839.0
599.808,839.6
600.34,839.4
600.872,837.3
601.404,837.9
601.936,840.2
602.468,839.3
603.0,838.8
603.532,838.4
604.064,837.3
604.595,839.0
605.127,838.0
605.658,838.2
606.189,837.1
606.721,839.7
607.252,841.2
607.783,837.9
608.314,839.0
608.845,838.3
609.376,836.9
609.907,837.2
610.438,839.0
610.968,839.4
611.499,837.7
612.029,840.4
612.56,838.4
613.09,839.2
613.621,839.3
614.151,838.0
614.681,839.1
615.211,837.2
615.741,838.1
616.271,837.1
616.801,838.6
617.331,839.5
617.861,838.4
618.39,837.6
618.92,838.0
619.45,837.4
619.979,839.1
620.509,837.3
621.038,838.5
621.567,838.1
622.096,837.5
622.626,839.6
623.155,837.3
623.684,837.6
624.213,838.1
624.742,838.6
625.271,839.1
625.799,839.5
626.328,838.2
626.857,837.2
627.386,838.1
627.914,836.3
628.443,837.7
628.971,837.8
629.5,838.8
630.028,838.3
630.556,837.9
631.084,838.0
631.613,837.9
632.141,836.5
632.669,837.9
633.197,837.2
633.725,838.3
634.253,838.9
634.781,837.7
635.308,836.7
635.836,838.6
636.364,837.0
636.891,836.1
637.419,836.4
637.947,837.4
638.474,837.1
639.002,837.5
639.529,836.2
640.056,837.4
640.584,837.8
641.111,837.4
641.638,838.5
642.165,837.1
642.692,836.2
643.219,838.1
643.746,837.9
644.273,839.1
644.8,837.6
645.327,836.1
645.854,839.3
646.381,838.2
646.908,838.7
647.434,836.7
647.961,836.6
648.488,837.7
649.014,836.2
649.541,839.1
650.067,838.0
650.594,838.3
651.12,839.1
651.646,838.8
652.173,837.3
652.699,838.7
653.225,837.0
653.752,837.1
654.278,835.9
654.804,837.2
655.33,836.9
655.856,835.5
656.382,835.2
656.908,835.9
657.434,836.9
657.96,836.3
658.486,834.7
659.012,833.8
659.538,835.9
660.064,836.5
660.589,835.3
661.115,833.9
661.641,835.7
662.166,834.5
662.692,835.3
663.086,834.1

File: VLFR_08-PLA_bio_Raman_0569915a.csv
nm,Intensity
528.626,1864.6
529.132,1864.5
529.637,1864.8
530.143,1865.37
530.648,1866.0
531.153,1868.73
531.658,1924.37
532.164,5057.13
532.669,1868.43
533.174,1868.0
533.679,2173.97
534.184,3151.47
534.689,3203.2
535.194,3282.87
535.699,3303.93
536.203,3326.47
536.708,3319.2
537.213,3353.73
537.717,3430.83
538.222,3450.73
538.726,3440.37
539.231,3444.37
539.735,3499.27
540.239,3506.33
540.744,3526.1
541.248,3607.0
541.752,3572.37
542.256,3629.3
542.76,3661.8
543.264,3674.9
543.768,3741.03
544.272,3702.17
544.776,3747.53
545.28,3780.7
545.784,3808.5
546.287,3859.4
546.791,3858.63
547.294,3905.97
547.798,3949.03
548.301,4005.57
548.805,4015.13
549.308,4017.67
549.811,4063.53
550.315,4095.7
550.818,4169.67
551.321,4163.87
551.824,4253.73
552.327,4232.2
552.83,4227.03
553.333,4224.77
553.835,4339.0
554.338,4268.97
554.841,4332.37
555.343,4317.13
555.846,4342.43
556.349,4358.2
556.851,4374.6
557.353,4409.87
557.856,4508.3
558.358,4519.2
558.86,4495.93
559.362,4512.23
559.864,4506.47
560.366,4555.57
560.868,4564.87
561.37,4644.47
561.872,4621.77
562.374,4669.77
562.876,4704.8
563.377,4755.07
563.879,4770.43
564.38,4760.63
564.882,4850.93
565.383,4861.43
565.885,4861.77
566.386,4961.3
566.887,4906.7
567.388,4935.93
567.889,5005.33
568.391,4990.2
568.892,5016.67
569.392,5144.27
569.893,5158.23
570.394,5168.33
570.895,5146.27
571.395,5271.0
571.896,5229.03
572.397,5384.43
572.897,5342.13
573.397,5364.77
573.898,5313.97
574.398,5303.63
574.898,5321.57
575.398,5401.2
575.898,5379.9
576.398,5472.33
576.898,5433.67
577.398,5498.63
577.898,5416.1
578.398,5453.87
578.897,5524.73
579.397,5428.23
579.896,5586.6
580.396,5596.5
580.895,5598.9
581.395,5598.17
581.894,5617.5
582.393,5528.4
582.892,5553.6
583.391,5492.3
583.89,5476.8
584.389,5381.33
584.888,5418.43
585.387,5359.7
585.886,5388.07
586.384,5390.17
586.883,5399.2
587.381,5462.03
587.88,5463.63
588.378,5445.83
588.876,5268.13
589.375,5357.2
589.873,5415.0
590.371,5439.0
590.869,5389.4
591.367,5459.17
591.865,5388.43
592.363,5457.87
592.86,5453.17
593.358,5421.27
593.856,5399.0
594.353,5377.97
594.851,5377.47
595.348,5460.47
595.845,5414.27
596.342,5498.47
596.84,5433.37
597.337,5451.43
597.834,5476.5
598.331,5502.2
598.828,5486.7
599.324,5567.2
599.821,5456.33
600.318,5470.33
600.814,5553.6
601.311,5554.53
601.807,5481.37
602.304,5503.1
602.8,5583.97
603.296,5488.73
603.792,5584.57
604.288,5449.27
604.784,5485.77
605.28,5481.57
605.776,5461.63
606.272,5526.63
606.767,5471.87
607.263,5493.03
607.759,5501.63
608.254,5483.47
608.749,5466.67
609.245,5463.2
609.74,5448.7
610.235,5483.97
610.73,5445.4
611.225,5448.2
611.72,5451.13
612.215,5423.17
612.71,5471.4
613.204,5383.33
613.699,5402.33
614.194,5530.27
614.688,5494.6
615.182,5443.1
615.677,5434.37
616.171,5445.93
616.665,5371.67
617.159,5484.3
617.653,5450.5
618.147,5408.77
618.641,5474.33
619.135,5406.77
619.628,5410.83
620.122,5543.87
620.615,5472.1
621.109,5372.87
621.602,5333.17
622.095,5292.8
622.589,5341.6
623.082,5331.7
623.575,5403.33
624.068,5409.63
624.561,5340.4
625.053,5293.23
625.546,5265.5
626.039,5272.97
626.531,5320.97
627.024,5238.93
627.516,5239.4
628.008,5256.0
628.501,5339.53
628.993,5269.43
629.485,5303.6
629.977,5221.93
630.469,5283.7
630.96,5420.37
631.452,5381.0
631.944,5194.03
632.435,5206.27
632.927,5198.0
633.418,5225.3
633.91,5189.1
634.401,5111.57
634.892,5130.97
635.383,4997.03
635.874,4961.53
636.365,4994.27
636.856,5003.43
637.346,4955.8
637.837,4879.23
638.327,4867.5
638.818,4885.07
639.308,4922.83
639.799,4885.83
640.289,4903.97
640.779,4795.1
641.269,4719.33
641.759,4642.17
642.249,4674.2
642.738,4747.5
643.228,4634.27
643.718,4626.73
644.207,4712.67
644.697,4637.33
645.186,4608.33
645.675,4550.3
646.164,4645.77
646.653,4553.47
647.142,4598.3
647.631,4557.83
648.12,4539.8
648.609,4487.5
649.098,4397.77
649.586,4441.27
650.075,4438.37
650.563,4471.6
651.051,4474.87
651.539,4377.2
652.027,4387.27
652.515,4262.17
653.003,4269.4
653.491,4171.27
653.979,4252.8
654.467,4177.5
654.954,4129.3
655.442,4087.5
655.929,4057.27
656.416,4057.17
656.904,3963.0
657.391,3978.6
657.878,3912.27
658.365,3915.87
658.851,3881.57
659.338,3807.0
659.825,3914.07
660.311,3895.57
660.798,3806.03
661.041,3749.17

File: VLFR_08-PLA_bio_Raman_a4d97f0f.csv
nm,Intensity
526.495,829.65
527.042,829.42
527.589,829.09
528.136,828.79
528.682,829.07
529.229,829.06
529.775,828.87
530.321,828.84
530.867,828.78
531.413,829.62
531.959,838.19
532.505,830.4
533.051,828.91
533.596,830.09
534.141,973.05
534.687,972.37
535.232,959.7
535.777,954.83
536.321,946.31
536.866,942.24
537.41,939.65
537.955,940.52
538.499,940.62
539.043,940.22
539.587,944.32
540.131,947.44
540.675,952.83
541.219,955.73
541.762,955.2
542.305,959.14
542.849,961.47
543.392,955.32
543.935,961.71
544.478,965.03
545.02,970.74
545.563,964.9
546.106,1012.57
546.648,976.26
547.19,974.13
547.732,971.76
548.274,965.93
548.816,967.75
549.358,971.33
549.9,969.96
550.441,969.69
550.983,967.9
551.524,966.72
552.065,966.62
552.606,966.69
553.147,968.82
553.688,970.04
554.229,971.01
554.769,971.95
555.31,970.43
555.85,968.41
556.391,973.08
556.931,984.01
557.471,997.95
558.011,1011.06
558.551,979.58
559.09,982.51
559.63,991.44
560.169,1005.94
560.709,981.77
561.248,980.85
561.787,983.29
562.326,994.61
562.865,998.88
563.404,1008.15
563.943,1014.8
564.481,1021.66
565.02,1020.46
565.558,1027.29
566.096,1030.48
566.634,1017.92
567.172,1012.32
567.71,995.35
568.248,996.15
568.786,998.95
569.324,1002.06
569.861,1008.34
570.399,1014.36
570.936,1009.98
571.473,1006.03
572.01,1010.54
572.547,1022.4
573.084,1032.55
573.621,1030.01
574.158,1030.71
574.694,1030.62
575.231,1028.64
575.767,1020.25
576.303,1014.61
576.84,1032.13
577.376,1021.02
577.912,1008.43
578.448,1005.99
578.984,1010.78
579.519,1009.17
580.055,1005.09
580.59,1005.8
581.126,1006.66
581.661,1009.44
582.196,1009.76
582.731,1009.22
583.267,1012.09
583.801,1007.72
584.336,1006.86
584.871,1008.05
585.406,1006.99
585.94,1008.27
586.475,1009.57
587.009,1011.22
587.543,1010.84
588.078,1009.23
588.612,1008.23
589.146,1007.94
589.68,1007.33
590.214,1008.24
590.747,1008.92
591.281,1009.69
591.815,1010.19
592.348,1009.28
592.881,1008.48
593.415,1007.52
593.948,1009.01
594.481,1010.23
595.014,1010.76
595.547,1011.22
596.08,1013.28
596.613,1013.57
597.146,1013.43
597.678,1013.94
598.211,1016.17
598.743,1016.52
599.276,1016.52
599.808,1014.59
600.34,1013.49
600.872,1014.45
601.404,1014.24
601.936,1014.04
602.468,1014.42
603.0,1016.18
603.532,1015.76
604.064,1015.84
604.595,1015.69
605.127,1014.59
605.658,1010.77
606.189,1012.29
606.721,1010.05
607.252,1011.93
607.783,1012.07
608.314,1013.65
608.845,1015.57
609.376,1014.33
609.907,1014.51
610.438,1014.37
610.968,1012.85
611.499,1014.51
612.029,1015.25
612.56,1017.54
613.09,1020.47
613.621,1021.68
614.151,1020.71
614.681,1021.8
615.211,1020.57
615.741,1019.03
616.271,1019.63
616.801,1020.88
617.331,1022.36
617.861,1023.64
618.39,1022.71
618.92,1023.84
619.45,1023.83
619.979,1023.98
620.509,1025.53
621.038,1024.94
621.567,1026.79
622.096,1028.83
622.626,1029.36
623.155,1033.29
623.684,1032.92
624.213,1032.46
624.742,1033.78
625.271,1033.42
625.799,1035.37
626.328,1036.63
626.857,1041.45
627.386,1049.78
627.914,1062.08
628.443,1092.51
628.971,1137.8
629.5,1165.85
630.028,1168.56
630.556,1164.25
631.084,1161.41
631.613,1132.92
632.141,1106.78
632.669,1088.99
633.197,1068.37
633.725,1047.25
634.253,1035.1
634.781,1026.86
635.308,1024.46
635.836,1023.83
636.364,1022.28
636.891,1023.17
637.419,1022.38
637.947,1023.86
638.474,1024.23
639.002,1024.01
639.529,1025.66
640.056,1026.0
640.584,1027.25
641.111,1027.51
641.638,1028.42
642.165,1029.85
642.692,1030.58
643.219,1027.48
643.746,1028.29
644.273,1027.16
644.8,1027.9
645.327,1027.57
645.854,1026.79
646.381,1029.01
646.908,1030.47
647.434,1029.7
647.961,1030.04
648.488,1030.14
649.014,1028.74
649.541,1027.56
650.067,1026.55
650.594,1025.2
651.12,1022.5
651.646,1023.24
652.173,1023.81
652.699,1022.21
653.225,1019.9
653.752,1017.56
654.278,1016.98
654.804,1012.41
655.33,1011.74
655.856,1010.02
656.382,1008.09
656.908,1006.12
657.434,1005.26
657.96,1001.64
658.486,1003.9
659.012,999.87
659.538,998.66
660.064,998.31
660.589,998.68
661.115,995.63
661.641,994.88
662.166,992.29
662.692,993.9
663.086,991.78