Folder: MPX_specDB/spectra

Note: README.md
# Database of Raman and ATR-FTIR spectra of weathered and biofouled polymers
**JPI Oceans project MicroplastiX**

File: VLFR_01-LDPE_bio_Raman_0aecdb1d.csv
nm,Intensity
526.508,829.5
527.055,830.4
527.602,830.0
528.149,828.9
528.695,828.7
529.241,828.8
529.787,829.7
530.334,830.3
530.879,829.5
531.425,831.0
531.971,834.8
532.516,832.4
533.062,830.3
533.607,828.5
534.152,895.6
534.697,888.5
535.242,873.1
535.786,862.8
536.331,860.7
536.876,855.3
537.42,856.9
537.964,855.2
538.508,854.8
539.052,852.5
539.596,850.5
540.14,849.4
540.683,847.8
541.227,847.4
541.77,847.6
542.313,846.7
542.856,846.5
543.399,845.6
543.942,847.5
544.485,846.8
545.027,846.1
545.57,845.2
546.112,845.2
546.654,842.9
547.196,845.3
547.738,846.2
548.28,845.3
548.822,843.2
549.363,842.9
549.905,841.3
550.446,841.2
550.988,842.9
551.529,842.2
552.07,842.0
552.611,843.7
553.152,844.1
553.692,846.6
554.233,847.2
554.773,845.9
555.314,848.8
555.854,848.1
556.394,848.3
556.934,851.2
557.474,852.2
558.014,852.7
558.553,853.8
559.093,853.1
559.632,848.2
560.172,849.7
560.711,851.5
561.25,850.7
561.789,854.4
562.328,853.9
562.867,857.9
563.406,860.6
563.944,902.8
564.483,876.2
565.021,868.6
565.559,865.3
566.098,910.8
566.636,868.2
567.174,863.9
567.711,867.3
568.249,861.8
568.787,865.8
569.324,864.6
569.862,867.4
570.399,870.8
570.936,877.8
571.474,942.3
572.011,899.6
572.548,885.0
573.084,883.3
573.621,883.2
574.158,890.8
574.694,888.3
575.231,894.4
575.767,928.6
576.303,1019.0
576.84,977.3
577.376,960.2
577.912,932.0
578.447,939.8
578.983,944.6
579.519,959.5
580.054,961.5
580.59,980.0
581.125,982.2
581.661,996.0
582.196,998.2
582.731,1012.9
583.266,1025.8
583.801,1032.8
584.336,1043.5
584.87,1049.9
585.405,1062.6
585.94,1070.8
586.474,1090.2
587.008,1102.2
587.543,1116.4
588.077,1126.1
588.611,1138.2
589.145,1153.4
589.679,1170.1
590.213,1183.7
590.747,1195.3
591.28,1206.9
591.814,1217.2
592.347,1224.7
592.881,1224.1
593.414,1239.4
593.947,1248.5
594.48,1258.7
595.014,1269.1
595.547,1294.2
596.079,1299.7
596.612,1318.5
597.145,1330.7
597.678,1348.1
598.21,1367.6
598.743,1389.2
599.275,1401.6
599.807,1402.5
600.34,1415.1
600.872,1408.0
601.404,1407.3
601.936,1404.6
602.468,1385.5
603.0,1374.8
603.532,1365.3
604.063,1337.3
604.595,1329.2
605.126,1296.8
605.658,1273.7
606.189,1253.2
606.721,1233.6
607.252,1210.1
607.783,1198.3
608.314,1190.4
608.845,1174.9
609.376,1162.0
609.907,1155.8
610.438,1138.9
610.968,1133.9
611.499,1124.5
612.03,1120.8
612.56,1111.8
613.091,1114.5
613.621,1104.1
614.151,1096.8
614.681,1087.8
615.212,1086.6
615.742,1077.9
616.272,1075.3
616.802,1066.6
617.332,1072.0
617.861,1069.2
618.391,1062.0
618.921,1061.4
619.45,1053.1
619.98,1057.9
620.509,1045.2
621.039,1049.8
621.568,1059.7
622.097,1077.6
622.627,1078.5
623.156,1055.2
623.685,1043.6
624.214,1038.0
624.743,1043.1
625.272,1043.1
625.801,1039.2
626.33,1072.5
626.858,1283.6
627.387,1726.3
627.916,1453.9
628.444,1638.6
628.973,1479.8
629.501,1389.6
630.029,1288.7
630.558,1265.8
631.086,1149.0
631.614,1084.2
632.142,1061.2
632.67,1047.5
633.198,1046.1
633.726,1048.7
634.254,1043.1
634.782,1043.7
635.31,1045.7
635.838,1045.5
636.365,1044.2
636.893,1045.3
637.421,1045.6
637.948,1052.2
638.476,1055.9
639.003,1060.7
639.531,1061.0
640.058,1064.8
640.585,1070.4
641.113,1071.7
641.64,1076.2
642.167,1076.0
642.694,1080.7
643.221,1085.6
643.748,1082.1
644.275,1084.9
644.802,1090.0
645.329,1091.5
645.856,1089.9
646.382,1085.0
646.909,1093.5
647.436,1100.0
647.962,1092.9
648.489,1091.7
649.016,1091.6
649.542,1097.7
650.069,1095.5
650.595,1091.7
651.121,1087.9
651.648,1098.5
652.174,1100.1
652.7,1101.1
653.227,1096.1
653.753,1104.6
654.279,1095.8
654.805,1099.3
655.331,1101.7
655.857,1100.4
656.383,1090.8
656.909,1088.4
657.435,1076.7
657.961,1078.3
658.487,1068.8
659.013,1069.2
659.538,1062.6
660.064,1054.2
660.59,1047.1
661.116,1032.6
661.641,1022.5
662.167,1017.2
662.692,1007.8
663.087,1003.5

File: VLFR_01-LDPE_bio_Raman_0fbf0413.csv
nm,Intensity
528.65,1855.0
529.155,1855.85
529.66,1856.05
530.165,1855.85
530.67,1855.9
531.175,1855.25
531.68,1878.15
532.185,2956.85
532.69,1855.85
533.194,1857.0
533.699,1959.55
534.204,2239.95
534.708,2206.3
535.213,2170.3
535.717,2127.2
536.222,2105.05
536.726,2079.15
537.231,2092.5
537.735,2100.05
538.239,2087.95
538.743,2085.4
539.247,2073.4
539.751,2063.35
540.255,2055.85
540.759,2047.55
541.263,2046.7
541.767,2044.65
542.271,2048.9
542.775,2050.5
543.279,2050.75
543.782,2045.85
544.286,2049.45
544.789,2036.15
545.293,2045.95
545.796,2042.55
546.3,2043.15
546.803,2040.45
547.306,2042.8
547.81,2031.1
548.313,2042.85
548.816,2039.0
549.319,2030.05
549.822,2043.45
550.325,2043.95
550.828,2044.0
551.331,2040.2
551.834,2044.35
552.337,2048.8
552.839,2041.7
553.342,2066.0
553.844,2067.85
554.347,2066.7
554.849,2068.45
555.352,2065.15
555.854,2076.25
556.357,2096.35
556.859,2099.3
557.361,2114.6
557.863,2124.6
558.365,2134.25
558.867,2120.55
559.369,2102.85
559.871,2113.1
560.373,2100.55
560.875,2107.55
561.377,2109.75
561.878,2118.55
562.38,2136.15
562.881,2163.35
563.383,2177.25
563.884,2490.2
564.386,2289.25
564.887,2253.55
565.388,2204.45
565.89,2377.25
566.391,2347.6
566.892,2185.0
567.393,2230.0
567.894,2175.4
568.395,2171.95
568.896,2171.1
569.396,2183.8
569.897,2196.5
570.398,2222.2
570.898,2261.9
571.399,2750.7
571.9,2452.45
572.4,2308.15
572.9,2253.35
573.401,2249.75
573.901,2294.15
574.401,2249.15
574.901,2264.5
575.401,2435.65
575.901,2634.45
576.401,3016.4
576.901,2786.1
577.401,2540.0
577.901,2433.2
578.4,2428.25
578.9,2439.25
579.399,2449.8
579.899,2484.05
580.398,2546.55
580.898,2550.65
581.397,2589.4
581.896,2618.8
582.395,2628.05
582.895,2656.5
583.394,2686.25
583.893,2696.25
584.391,2724.25
584.89,2730.95
585.389,2724.65
585.888,2779.15
586.386,2781.15
586.885,2791.8
587.384,2835.1
587.882,2866.5
588.38,2874.25
588.879,2876.2
589.377,2927.25
589.875,2907.45
590.373,2957.45
590.871,2981.5
591.369,2972.9
591.867,3036.75
592.365,3059.3
592.863,3071.9
593.361,3095.05
593.858,3087.2
594.356,3105.4
594.853,3155.85
595.351,3127.75
595.848,3220.5
596.345,3238.05
596.843,3265.1
597.34,3333.25
597.837,3354.2
598.334,3404.3
598.831,3447.6
599.328,3481.3
599.824,3480.45
600.321,3504.3
600.818,3524.65
601.314,3532.35
601.811,3529.8
602.307,3504.55
602.804,3510.9
603.3,3433.25
603.796,3454.4
604.293,3418.2
604.789,3312.85
605.285,3322.85
605.781,3269.65
606.277,3213.1
606.772,3166.35
607.268,3151.7
607.764,3069.6
608.259,3018.45
608.755,3017.3
609.25,2999.55
609.746,2989.05
610.241,2935.05
610.736,2905.0
611.231,2896.55
611.727,2906.25
612.222,2866.65
612.716,2839.4
613.211,2806.75
613.706,2807.2
614.201,2782.05
614.695,2782.65
615.19,2774.2
615.684,2758.5
616.179,2761.5
616.673,2723.5
617.168,2722.95
617.662,2738.45
618.156,2727.6
618.65,2722.05
619.144,2719.45
619.638,2717.4
620.131,2719.1
620.625,2713.85
621.119,2731.75
621.612,2843.4
622.106,2929.25
622.599,2880.65
623.093,2718.05
623.586,2650.8
624.079,2650.3
624.572,2639.8
625.065,2662.4
625.558,2708.9
626.051,2771.1
626.544,3282.6
627.037,6169.05
627.529,6043.7
628.022,5145.85
628.514,6888.85
629.007,5431.7
629.499,4772.5
629.991,4258.8
630.483,4179.9
630.976,3418.8
631.468,2947.6
631.959,2790.15
632.451,2734.15
632.943,2660.8
633.435,2680.15
633.926,2603.0
634.418,2594.4
634.909,2616.15
635.401,2581.5
635.892,2580.45
636.383,2595.4
636.874,2587.65
637.365,2543.4
637.856,2529.85
638.347,2563.25
638.838,2545.25
639.329,2544.0
639.819,2517.5
640.31,2523.8
640.8,2533.15
641.291,2543.4
641.781,2543.65
642.271,2533.7
642.761,2530.55
643.251,2512.9
643.741,2527.35
644.231,2510.45
644.721,2536.45
645.211,2517.0
645.7,2499.15
646.19,2520.75
646.679,2532.75
647.169,2545.05
647.658,2517.95
648.147,2517.15
648.636,2506.45
649.125,2514.1
649.614,2508.8
650.103,2487.8
650.592,2504.55
651.08,2527.8
651.569,2507.2
652.058,2519.0
652.546,2491.45
653.034,2508.65
653.523,2466.4
654.011,2490.8
654.499,2516.15
654.987,2466.45
655.475,2484.15
655.963,2469.2
656.45,2453.4
656.938,2448.5
657.425,2417.9
657.913,2407.2
658.4,2403.95
658.888,2393.45
659.375,2366.25
659.862,2361.35
660.349,2324.65
660.836,2310.8
661.079,2306.75

File: VLFR_01-LDPE_bio_Raman_1a981731.csv
nm,Intensity
528.626,1866.5
529.132,1865.2
529.637,1865.4
530.143,1866.1
530.648,1866.7
531.153,1868.4
531.658,1899.7
532.164,3580.1
532.669,1866.3
533.174,1867.4
533.679,1956.6
534.184,2241.3
534.689,2230.7
535.194,2270.9
535.699,2284.2
536.203,2226.4
536.708,2207.6
537.213,2230.0
537.717,2218.5
538.222,2199.2
538.726,2184.4
539.231,2177.2
539.735,2174.3
540.239,2191.1
540.744,2176.1
541.248,2207.0
541.752,2179.9
542.256,2180.9
542.76,2192.8
543.264,2184.5
543.768,2233.8
544.272,2289.8
544.776,2203.9
545.28,2225.6
545.784,2252.1
546.287,2545.3
546.791,2371.8
547.294,2240.8
547.798,2225.8
548.301,2229.1
548.805,2235.6
549.308,2273.9
549.811,2276.4
550.315,2340.3
550.818,2250.3
551.321,2226.5
551.824,2252.9
552.327,2249.0
552.83,2231.0
553.333,2257.5
553.835,2270.9
554.338,2261.5
554.841,2271.8
555.343,2274.4
555.846,2283.3
556.349,2295.1
556.851,2299.2
557.353,2300.2
557.856,2324.6
558.358,2317.2
558.86,2313.7
559.362,2313.3
559.864,2300.8
560.366,2322.5
560.868,2352.9
561.37,2375.5
561.872,2548.3
562.374,4341.8
562.876,2427.8
563.377,2394.9
563.879,2591.2
564.38,2502.0
564.882,2484.1
565.383,2456.7
565.885,2608.8
566.386,2748.5
566.887,2534.1
567.388,2494.2
567.889,2478.3
568.391,2479.0
568.892,2515.7
569.392,2516.4
569.893,2573.6
570.394,2596.3
570.895,2655.0
571.395,2975.3
571.896,2847.6
572.397,2768.3
572.897,2778.7
573.397,2857.3
573.898,2887.8
574.398,2917.3
574.898,2969.0
575.398,3210.4
575.898,3338.3
576.398,3657.0
576.898,3626.9
577.398,3593.2
577.898,3636.4
578.398,3681.4
578.897,3856.9
579.397,3997.0
579.896,4136.0
580.396,4365.4
580.895,4441.4
581.395,4626.0
581.894,4719.0
582.393,4923.1
582.892,5078.7
583.391,5330.0
583.89,5402.5
584.389,5634.0
584.888,5639.1
585.387,5711.4
585.886,5858.0
586.384,6148.3
586.883,6288.2
587.381,6389.1
587.88,6754.3
588.378,6860.7
588.876,7068.3
589.375,7053.9
589.873,7411.8
590.371,7577.4
590.869,7895.3
591.367,7924.3
591.865,8393.3
592.363,8205.2
592.86,8384.8
593.358,8244.9
593.856,8287.0
594.353,8413.4
594.851,8380.8
595.348,8654.7
595.845,8578.4
596.342,8662.9
596.84,8891.3
597.337,8930.9
597.834,8762.8
598.331,8907.9
598.828,8974.5
599.324,9068.0
599.821,9120.8
600.318,9067.9
600.814,9112.8
601.311,9104.7
601.807,8986.9
602.304,9051.1
602.8,8788.1
603.296,8679.9
603.792,8530.5
604.288,8129.7
604.784,8090.2
605.28,7770.9
605.776,7621.3
606.272,7410.9
606.767,7293.8
607.263,7087.4
607.759,6826.5
608.254,6778.2
608.749,6561.7
609.245,6379.4
609.74,6316.6
610.235,6218.1
610.73,6107.2
611.225,6024.2
611.72,5928.8
612.215,5785.8
612.71,5683.3
613.204,5636.5
613.699,5600.6
614.194,5456.8
614.688,5463.6
615.182,5352.1
615.677,5281.9
616.171,5178.9
616.665,5151.4
617.159,5043.7
617.653,4979.1
618.147,5045.0
618.641,4919.0
619.135,4777.6
619.628,4844.9
620.122,4742.8
620.615,4675.1
621.109,4684.5
621.602,4707.3
622.095,4726.8
622.589,4676.3
623.082,4641.7
623.575,4553.1
624.068,4565.5
624.561,4543.1
625.053,4502.1
625.546,4512.9
626.039,4509.6
626.531,4704.3
627.024,6047.5
627.516,6056.3
628.008,5687.8
628.501,6502.9
628.993,6013.9
629.485,5679.0
629.977,5456.0
630.469,5318.4
630.96,4985.8
631.452,4772.8
631.944,4610.8
632.435,4726.2
632.927,4639.1
633.418,4783.0
633.91,4723.5
634.401,4676.1
634.892,4745.3
635.383,4677.6
635.874,4726.0
636.365,4778.2
636.856,4822.4
637.346,4776.4
637.837,4823.0
638.327,4816.8
638.818,4865.0
639.308,4853.5
639.799,4991.3
640.289,4903.2
640.779,4893.0
641.269,4948.5
641.759,4879.5
642.249,5010.3
642.738,5049.3
643.228,4947.9
643.718,5013.0
644.207,5031.5
644.697,4948.6
645.186,5050.5
645.675,4967.1
646.164,4951.9
646.653,4914.5
647.142,4946.4
647.631,4812.0
648.12,4858.9
648.609,4771.9
649.098,4755.9
649.586,4844.2
650.075,4790.9
650.563,4781.6
651.051,4752.2
651.539,4664.7
652.027,4619.5
652.515,4603.4
653.003,4599.9
653.491,4508.7
653.979,4526.8
654.467,4519.4
654.954,4417.2
655.442,4365.4
655.929,4315.9
656.416,4222.6
656.904,4141.7
657.391,4160.7
657.878,4073.1
658.365,4030.3
658.851,3887.9
659.338,3791.5
659.825,3854.0
660.311,3661.7
660.798,3690.4
661.041,3639.8

File: VLFR_01-LDPE_bio_Raman_1af1ed82.csv
nm,Intensity
528.635,1834.9
529.14,1833.3
529.645,1834.5
530.151,1834.2
530.656,1836.1
531.161,1836.2
531.666,1872.6
532.171,4120.2
532.676,1836.1
533.181,1835.3
533.686,1994.9
534.191,2328.7
534.696,2266.9
535.201,2185.6
535.705,2093.2
536.21,2057.9
536.715,2048.2
537.219,2046.7
537.724,2041.0
538.228,2014.8
538.733,2006.1
539.237,1996.9
539.741,1971.1
540.246,1962.2
540.75,1958.5
541.254,1952.3
541.758,1948.2
542.262,1950.2
542.766,1956.1
543.27,1953.4
543.774,1941.2
544.278,1943.1
544.781,1939.0
545.285,1934.4
545.789,1932.5
546.292,1932.5
546.796,1940.9
547.299,1941.1
547.803,1934.4
548.306,1935.4
548.809,1925.8
549.313,1927.6
549.816,1926.4
550.319,1926.5
550.822,1933.1
551.325,1929.6
551.828,1933.4
552.331,1933.9
552.834,1935.4
553.337,1954.7
553.839,1954.5
554.342,1964.1
554.845,1968.8
555.347,1979.0
555.85,1990.8
556.352,1999.8
556.854,2025.5
557.357,2037.5
557.859,2055.4
558.361,2070.6
558.863,2064.6
559.365,2029.3
559.867,2017.3
560.369,2004.2
560.871,2009.7
561.373,2006.7
561.875,2018.0
562.377,2037.4
562.878,2073.0
563.38,2130.3
563.881,2669.5
564.383,2324.0
564.884,2250.7
565.386,2171.9
565.887,2472.6
566.388,2394.5
566.889,2121.7
567.391,2156.5
567.892,2069.1
568.393,2059.2
568.893,2054.5
569.394,2064.4
569.895,2070.9
570.396,2114.7
570.897,2188.1
571.397,3075.3
571.898,2526.5
572.398,2257.3
572.899,2145.1
573.399,2126.9
573.899,2196.0
574.399,2106.6
574.9,2117.0
575.4,2414.1
575.9,2711.7
576.4,3283.7
576.899,2938.3
577.399,2504.7
577.899,2247.9
578.399,2233.4
578.898,2224.1
579.398,2227.7
579.897,2230.5
580.397,2277.3
580.896,2305.0
581.396,2283.7
581.895,2305.8
582.394,2315.1
582.893,2350.4
583.392,2341.1
583.891,2385.3
584.39,2405.3
584.889,2402.2
585.387,2423.8
585.886,2437.0
586.385,2473.1
586.883,2524.4
587.382,2552.8
587.88,2553.5
588.379,2623.5
588.877,2642.4
589.375,2656.1
589.873,2659.1
590.371,2687.8
590.869,2711.7
591.367,2750.3
591.865,2761.0
592.363,2748.6
592.86,2736.5
593.358,2767.3
593.856,2767.6
594.353,2741.2
594.851,2746.8
595.348,2771.4
595.845,2760.8
596.342,2766.0
596.84,2773.8
597.337,2750.0
597.834,2764.2
598.331,2776.1
598.827,2785.4
599.324,2855.4
599.821,2820.7
600.318,2835.6
600.814,2835.3
601.311,2800.7
601.807,2841.5
602.303,2824.8
602.8,2780.1
603.296,2779.4
603.792,2760.9
604.288,2727.4
604.784,2700.0
605.28,2651.1
605.776,2615.9
606.272,2621.7
606.767,2575.7
607.263,2573.4
607.758,2527.4
608.254,2541.3
608.749,2506.9
609.244,2471.6
609.74,2475.0
610.235,2472.5
610.73,2451.5
611.225,2455.1
611.72,2417.8
612.215,2403.5
612.709,2410.2
613.204,2402.2
613.699,2390.0
614.193,2365.6
614.688,2386.0
615.182,2356.9
615.676,2332.2
616.171,2347.4
616.665,2361.7
617.159,2386.7
617.653,2397.8
618.147,2381.1
618.641,2382.9
619.134,2388.7
619.628,2393.9
620.122,2389.9
620.615,2415.2
621.109,2458.0
621.602,2567.3
622.095,2734.1
622.588,2638.3
623.082,2451.5
623.575,2391.6
624.068,2362.4
624.56,2379.7
625.053,2373.4
625.546,2455.6
626.039,2593.0
626.531,3375.2
627.024,7681.0
627.516,7389.5
628.008,6381.1
628.501,9266.4
628.993,6701.1
629.485,5790.9
629.977,4895.4
630.469,4618.7
630.961,3614.3
631.452,2859.3
631.944,2644.3
632.436,2482.7
632.927,2437.1
633.418,2387.0
633.91,2343.1
634.401,2335.5
634.892,2319.9
635.383,2328.0
635.874,2318.7
636.365,2312.6
636.856,2305.9
637.347,2299.2
637.837,2287.8
638.328,2280.1
638.818,2269.0
639.309,2287.3
639.799,2296.0
640.289,2281.0
640.78,2296.3
641.27,2298.6
641.76,2304.2
642.249,2319.3
642.739,2324.6
643.229,2307.9
643.719,2319.1
644.208,2337.0
644.698,2308.9
645.187,2300.0
645.676,2314.6
646.165,2313.7
646.655,2299.4
647.144,2303.0
647.633,2279.8
648.121,2288.8
648.61,2286.1
649.099,2253.2
649.587,2241.4
650.076,2243.4
650.564,2259.8
651.053,2236.3
651.541,2254.4
652.029,2235.0
652.517,2228.4
653.005,2233.5
653.493,2209.8
653.981,2212.4
654.468,2202.4
654.956,2192.0
655.444,2194.8
655.931,2186.6
656.418,2197.1
656.906,2165.6
657.393,2170.1
657.88,2124.6
658.367,2135.1
658.854,2140.5
659.341,2127.4
659.827,2126.9
660.314,2102.9
660.8,2106.3
661.044,2083.5

File: VLFR_01-LDPE_bio_Raman_3d2c4ae8.csv
nm,Intensity
526.547,833.05
527.095,832.25
527.642,832.5
528.189,832.25
528.736,833.35
529.283,832.75
529.829,832.15
530.376,831.9
530.922,832.3
531.468,832.2
532.014,840.6
532.56,833.45
533.106,832.85
533.651,833.0
534.196,909.65
534.742,898.45
535.287,882.6
535.832,874.9
536.376,870.55
536.921,866.2
537.465,865.75
538.01,865.9
538.554,863.65
539.098,861.8
539.642,859.2
540.186,856.8
540.729,854.8
541.273,856.5
541.816,853.9
542.36,855.0
542.903,852.55
543.446,853.95
543.988,853.25
544.531,853.3
545.074,851.85
545.616,852.1
546.158,851.2
546.701,853.5
547.243,851.15
547.785,853.3
548.326,849.4
548.868,851.9
549.41,850.9
549.951,852.35
550.492,851.1
551.034,850.6
551.575,850.3
552.116,851.1
552.656,850.95
553.197,854.85
553.738,855.25
554.278,855.55
554.819,856.9
555.359,856.5
555.899,858.25
556.439,860.7
556.979,863.4
557.519,862.55
558.058,867.75
558.598,866.5
559.137,866.9
559.677,865.9
560.216,865.3
560.755,866.8
561.294,868.2
561.833,869.6
562.371,871.7
562.91,877.05
563.449,883.45
563.987,939.55
564.525,900.15
565.064,896.9
565.602,894.85
566.14,949.5
566.678,900.45
567.216,897.0
567.753,900.4
568.291,899.35
568.828,905.35
569.366,909.5
569.903,915.4
570.44,925.25
570.977,933.8
571.514,1040.45
572.051,973.35
572.588,962.25
573.125,961.6
573.661,978.05
574.198,995.3
574.734,1003.4
575.271,1020.55
575.807,1070.95
576.343,1177.3
576.879,1163.2
577.415,1153.7
577.951,1158.1
578.486,1188.35
579.022,1233.55
579.557,1273.75
580.093,1318.95
580.628,1368.85
581.164,1407.5
581.699,1448.95
582.234,1493.35
582.769,1534.35
583.304,1575.4
583.838,1605.55
584.373,1634.1
584.908,1660.25
585.442,1689.1
585.977,1719.8
586.511,1757.25
587.045,1793.4
587.58,1833.7
588.114,1872.2
588.648,1896.15
589.182,1940.65
589.715,1989.3
590.249,2033.65
590.783,2072.8
591.316,2116.1
591.85,2139.5
592.383,2156.5
592.917,2175.75
593.45,2186.85
593.983,2201.75
594.516,2224.8
595.049,2256.25
595.582,2276.1
596.115,2315.9
596.648,2336.5
597.18,2370.3
597.713,2421.55
598.245,2465.35
598.778,2520.55
599.31,2545.2
599.842,2567.05
600.375,2566.65
600.907,2566.6
601.439,2560.5
601.971,2532.4
602.503,2512.5
603.034,2480.1
603.566,2438.55
604.098,2370.55
604.629,2303.4
605.161,2234.0
605.692,2148.6
606.224,2084.3
606.755,2039.25
607.286,1984.6
607.817,1951.45
608.348,1897.75
608.879,1872.7
609.41,1831.25
609.941,1798.9
610.472,1762.05
611.002,1743.8
611.533,1717.75
612.063,1691.0
612.594,1681.55
613.124,1673.9
613.655,1649.65
614.185,1628.8
614.715,1609.3
615.245,1582.0
615.775,1561.45
616.305,1549.2
616.835,1535.7
617.365,1528.5
617.895,1511.7
618.425,1500.3
618.954,1479.45
619.484,1479.55
620.013,1464.35
620.543,1459.65
621.072,1458.45
621.602,1465.6
622.131,1485.25
622.66,1477.3
623.189,1456.65
623.718,1438.0
624.247,1445.4
624.776,1441.5
625.305,1441.65
625.834,1446.9
626.363,1481.0
626.891,1744.25
627.42,2104.2
627.949,1848.85
628.477,2135.5
629.006,1923.1
629.534,1824.15
630.062,1735.5
630.591,1723.75
631.119,1601.35
631.647,1552.95
632.175,1521.6
632.703,1529.35
633.231,1532.45
633.759,1534.1
634.287,1537.4
634.815,1550.65
635.343,1550.25
635.871,1556.25
636.398,1566.6
636.926,1567.1
637.454,1564.95
637.981,1581.3
638.509,1587.15
639.036,1599.45
639.564,1593.9
640.091,1607.4
640.618,1605.1
641.146,1618.25
641.673,1638.65
642.2,1639.4
642.727,1645.15
643.254,1651.8
643.781,1649.1
644.308,1662.85
644.835,1662.3
645.362,1665.95
645.889,1669.9
646.416,1667.1
646.942,1673.65
647.469,1671.2
647.996,1676.55
648.522,1671.9
649.049,1661.9
649.576,1664.9
650.102,1664.8
650.629,1657.9
651.155,1659.8
651.682,1667.25
652.208,1675.65
652.734,1678.45
653.261,1672.05
653.787,1675.2
654.313,1682.8
654.839,1669.6
655.365,1670.35
655.892,1655.05
656.418,1648.7
656.944,1637.35
657.47,1615.8
657.996,1604.4
658.522,1584.5
659.048,1557.65
659.574,1541.75
660.099,1522.15
660.625,1493.1
661.151,1461.3
661.677,1430.15
662.203,1409.8
662.728,1389.05
663.123,1369.55

File: VLFR_01-LDPE_bio_Raman_3d8698da.csv
nm,Intensity
526.495,829.6
527.042,828.8
527.589,830.2
528.136,829.0
528.682,828.8
529.229,828.4
529.775,829.8
530.321,828.8
530.867,828.7
531.413,830.2
531.959,829.1
532.505,829.1
533.051,828.1
533.596,829.6
534.141,902.2
534.687,885.1
535.232,875.5
535.777,861.5
536.321,855.2
536.866,853.9
537.41,855.2
537.955,851.9
538.499,850.5
539.043,845.7
539.587,843.8
540.131,844.8
540.675,842.7
541.219,842.5
541.762,842.6
542.305,844.2
542.849,840.2
543.392,841.9
543.935,842.2
544.478,840.3
545.02,842.0
545.563,842.5
546.106,840.7
546.648,841.2
547.19,842.7
547.732,841.5
548.274,840.7
548.816,839.8
549.358,842.8
549.9,839.1
550.441,841.1
550.983,839.9
551.524,839.1
552.065,842.3
552.606,842.0
553.147,843.0
553.688,843.5
554.229,844.3
554.769,843.7
555.31,845.6
555.85,847.9
556.391,849.5
556.931,850.8
557.471,849.4
558.011,853.0
558.551,856.7
559.09,854.8
559.63,853.6
560.169,850.6
560.709,851.1
561.248,849.9
561.787,853.2
562.326,854.4
562.865,857.6
563.404,859.2
563.943,963.0
564.481,886.4
565.02,876.8
565.558,873.0
566.096,1064.6
566.634,879.8
567.172,860.8
567.71,862.9
568.248,854.6
568.786,858.4
569.324,858.1
569.861,859.4
570.399,864.4
570.936,872.0
571.473,1053.4
572.01,896.2
572.547,870.6
573.084,864.8
573.621,865.7
574.158,876.7
574.694,865.5
575.231,880.7
575.767,972.1
576.303,1012.8
576.84,959.9
577.376,925.1
577.912,883.8
578.448,880.7
578.984,882.2
579.519,886.4
580.055,885.1
580.59,889.2
581.126,894.4
581.661,897.6
582.196,904.8
582.731,904.4
583.267,913.2
583.801,921.7
584.336,925.7
584.871,929.8
585.406,936.1
585.94,947.2
586.475,950.8
587.009,962.0
587.543,971.8
588.078,983.8
588.612,983.4
589.146,992.3
589.68,999.9
590.214,1006.4
590.747,1014.9
591.281,1021.6
591.815,1030.9
592.348,1036.7
592.881,1034.5
593.415,1036.3
593.948,1037.1
594.481,1033.6
595.014,1039.7
595.547,1041.5
596.08,1038.9
596.613,1039.4
597.146,1036.8
597.678,1036.3
598.211,1041.3
598.743,1042.2
599.276,1046.9
599.808,1045.6
600.34,1042.9
600.872,1048.8
601.404,1045.3
601.936,1046.2
602.468,1038.7
603.0,1041.8
603.532,1029.6
604.064,1031.8
604.595,1023.3
605.127,1020.2
605.658,1011.3
606.189,1012.7
606.721,1001.8
607.252,1001.7
607.783,1000.5
608.314,991.6
608.845,995.9
609.376,994.3
609.907,988.6
610.438,988.2
610.968,985.8
611.499,986.8
612.029,981.9
612.56,975.6
613.09,979.4
613.621,983.3
614.151,973.5
614.681,967.3
615.211,965.8
615.741,965.7
616.271,961.5
616.801,964.9
617.331,964.0
617.861,965.9
618.39,962.2
618.92,957.5
619.45,960.1
619.979,958.3
620.509,949.5
621.038,955.1
621.567,965.6
622.096,984.0
622.626,981.0
623.155,956.7
623.684,945.1
624.213,945.4
624.742,942.8
625.271,943.3
625.799,951.5
626.328,981.5
626.857,1230.3
627.386,1720.3
627.914,1374.6
628.443,1575.2
628.971,1512.0
629.5,1373.1
630.028,1227.8
630.556,1197.2
631.084,1049.1
631.613,971.1
632.141,944.0
632.669,936.9
633.197,936.2
633.725,930.7
634.253,931.5
634.781,928.0
635.308,924.9
635.836,929.9
636.364,928.4
636.891,927.4
637.419,927.2
637.947,929.1
638.474,926.4
639.002,924.4
639.529,926.5
640.056,929.8
640.584,931.6
641.111,928.7
641.638,930.1
642.165,933.4
642.692,932.5
643.219,934.6
643.746,931.2
644.273,933.3
644.8,929.9
645.327,933.9
645.854,933.2
646.381,929.7
646.908,934.0
647.434,932.3
647.961,933.4
648.488,931.3
649.014,935.4
649.541,932.8
650.067,932.1
650.594,931.0
651.12,930.9
651.646,926.8
652.173,930.3
652.699,929.9
653.225,926.5
653.752,928.6
654.278,929.7
654.804,927.0
655.33,927.2
655.856,924.2
656.382,924.1
656.908,921.1
657.434,919.6
657.96,919.9
658.486,919.0
659.012,915.5
659.538,917.5
660.064,914.1
660.589,911.7
661.115,911.4
661.641,906.2
662.166,902.9
662.692,905.2
663.086,902.8