Folder: MPX_specDB/spectra (part 118)

File: VLFR_07-PET_nobio_Raman_6929e53a.csv
nm,Intensity
782.722,3748.02
783.822,3758.84
784.922,6750.98
786.022,4025.56
787.122,3768.1
788.222,4389.7
789.321,5866.94
790.421,5777.36
791.52,5626.3
792.619,5509.06
793.718,5473.38
794.817,5423.82
795.916,5392.48
797.015,5380.16
798.114,5371.76
799.212,5336.18
800.311,5338.72
801.409,5301.9
802.507,5304.42
803.605,5258.9
804.703,5241.52
805.801,5214.42
806.899,5190.22
807.997,5179.4
809.094,5149.92
810.191,5104.2
811.289,5089.14
812.386,5074.2
813.483,5043.36
814.58,5030.42
815.677,4989.84
816.774,4963.64
817.87,4928.46
818.967,4950.82
820.063,4907.6
821.159,4926.18
822.255,4875.42
823.351,4875.74
824.447,4864.04
825.543,4857.92
826.639,4842.9
827.734,4840.52
828.83,4780.38
829.925,4786.26
831.02,4807.1
832.115,4744.46
833.21,4725.12
834.305,4711.72
835.4,4726.94
836.494,4717.2
837.589,4715.48
838.683,4707.86
839.777,4696.28
840.871,4686.34
841.965,4712.32
843.059,4649.84
844.152,4640.64
845.246,4608.42
846.339,4603.56
847.433,4579.18
848.526,4581.38
849.619,4545.0
850.712,4565.46
851.804,4537.12
852.897,4569.58
853.989,4522.66
855.082,4506.72
856.174,4497.52
857.266,4508.38
858.358,4517.66
859.45,4523.56
860.542,4500.08
861.633,4496.48
862.725,4473.3
863.816,4468.52
864.907,4470.6
865.998,4426.22
867.089,4414.48
868.18,4438.7
869.27,4439.2
870.361,4436.42
871.451,4450.48
872.541,4479.48
873.631,4464.32
874.721,4440.76
875.811,4398.9
876.901,4413.04
877.99,4373.32
879.08,4381.88
880.169,4357.5
881.258,4365.72
882.347,4362.52
883.436,4373.88
884.524,4337.98
885.613,4335.34
886.701,4333.34
887.79,4301.74
888.878,4313.62
889.966,4297.16
891.053,4280.42
892.141,4270.5
893.229,4266.14
894.316,4233.08
895.403,4228.26
896.49,4219.28
897.577,4251.7
898.664,4291.34
899.751,4222.76
900.837,4177.78
901.923,4162.76
903.01,4171.6
904.096,4173.98
905.181,4165.04
906.267,4158.9
907.353,4185.0
908.438,4184.9
909.523,4156.54
910.609,4111.48
911.694,4097.3
912.778,4086.8
913.863,4073.38
914.948,4065.96
916.032,4057.58
917.116,4052.84
918.2,4048.86
919.284,4047.26
920.368,4043.0
921.452,4041.44
922.535,4019.94
923.618,4018.24
924.701,4000.8
925.784,4007.9
926.867,3994.7
927.95,3983.32
929.032,3973.78
930.115,3952.36
931.197,3945.68
932.279,3937.44
933.361,3931.28
934.442,3930.14
935.524,3916.2
936.605,3918.1
937.687,3910.98
938.768,3907.88
939.849,3906.28
940.929,3903.2
942.01,3898.36
943.09,3890.6
944.171,3887.98
945.251,3883.42
946.331,3876.74
947.41,3869.18
948.49,3873.02
949.569,3867.86
950.649,3864.22
951.728,3861.32
952.807,3856.24
953.885,3857.48
954.964,3855.72
956.042,3851.46
957.121,3847.62
958.199,3843.38
959.277,3841.6
960.354,3840.42
961.432,3841.0
962.509,3838.18
963.587,3834.86
964.664,3833.22
965.741,3829.78
966.817,3832.42
967.894,3831.16
968.97,3828.04
970.047,3824.04
971.123,3825.1
972.198,3824.54
973.274,3817.46
974.35,3815.92
975.425,3812.12
976.5,3812.54
977.575,3811.8
978.65,3809.58
979.725,3809.3
980.799,3805.84
981.873,3805.54
982.947,3804.38
984.021,3802.78
985.095,3801.3
986.169,3799.38
987.242,3799.42
988.315,3797.52
989.388,3797.7
990.461,3793.74
991.534,3791.72
992.607,3791.26
993.679,3789.6
994.751,3788.92
995.823,3787.8
996.895,3786.58
997.966,3785.6
999.038,3783.42
1000.11,3780.62
1001.18,3781.04
1002.25,3781.5
1003.32,3779.9
1004.39,3779.14
1005.46,3775.04
1006.53,3774.64
1007.6,3773.64
1008.67,3772.88
1009.74,3772.9
1010.81,3771.72
1011.88,3770.34
1012.95,3771.3
1014.02,3770.44
1015.09,3768.28
1016.16,3768.68
1017.22,3767.34
1018.29,3767.08
1019.36,3765.82
1020.43,3764.5
1021.49,3765.38
1022.56,3766.22
1023.63,3766.48
1024.7,3764.1
1025.76,3763.5
1026.83,3760.4
1027.9,3760.86
1028.96,3759.5
1030.03,3758.32
1031.09,3758.7
1032.16,3758.98
1033.22,3758.38
1034.29,3757.84
1035.35,3757.98
1036.42,3757.06
1037.48,3755.94
1038.55,3754.68
1039.61,3754.34
1040.68,3753.8
1041.74,3754.32
1042.8,3753.34
1043.87,3753.56
1044.93,3752.82
1045.99,3752.28
1047.06,3752.22
1048.12,3751.44
1049.18,3751.56
1050.24,3751.04
1051.31,3751.7
1052.37,3751.76
1053.43,3751.28
1054.49,3750.86
1055.55,3751.66
1056.61,3751.94
1057.67,3750.0
1058.73,3749.38
1059.53,3750.1

File: VLFR_07-PET_nobio_Raman_7018ebe8.csv
nm,Intensity
791.75,13579.2
792.846,12585.8
793.942,11870.7
795.037,11866.5
796.133,11628.8
797.228,11558.5
798.324,11479.8
799.419,11541.3
800.514,11280.5
801.61,11337.6
802.705,11220.1
803.8,10919.0
804.894,10979.8
805.989,10640.2
807.084,10665.8
808.178,10655.2
809.273,10557.6
810.367,10431.5
811.461,10363.2
812.556,10226.0
813.65,10214.6
814.744,10101.2
815.837,10097.3
816.931,9818.35
818.025,9866.85
819.118,9745.05
820.212,9664.0
821.305,9542.1
822.398,9555.75
823.491,9380.4
824.585,9316.1
825.677,9616.5
826.77,9187.85
827.863,8911.25
828.956,8901.75
830.048,8965.5
831.14,8850.9
832.233,8653.4
833.325,8596.05
834.417,8390.9
835.509,8385.55
836.601,8534.7
837.692,8402.25
838.784,8297.8
839.876,8350.4
840.967,8709.65
842.058,8231.2
843.149,8111.9
844.24,7927.35
845.331,7736.25
846.422,7647.7
847.513,7647.8
848.604,7578.75
849.694,7462.25
850.784,7512.6
851.875,7532.15
852.965,7383.5
854.055,7403.1
855.145,7237.2
856.235,7156.45
857.324,7191.85
858.414,7322.75
859.503,7382.25
860.593,7283.25
861.682,7091.65
862.771,7108.45
863.86,7071.2
864.949,7018.75
866.038,6815.7
867.126,6843.2
868.215,6767.25
869.303,6849.85
870.391,6930.95
871.479,6996.45
872.567,7192.7
873.655,7152.25
874.743,6712.45
875.831,6567.0
876.918,6565.35
878.006,6430.8
879.093,6477.1
880.18,6367.8
881.267,6402.2
882.354,6379.4
883.441,6304.35
884.527,6332.7
885.614,6226.0
886.7,6139.2
887.786,6098.35
888.872,6091.55
889.958,5974.4
891.044,6059.6
892.13,5985.95
893.216,5809.75
894.301,5831.95
895.386,5843.8
896.472,5864.2
897.557,6470.5
898.642,6364.9
899.726,5847.9
900.811,5611.65
901.896,5564.85
902.98,5499.6
904.064,5495.4
905.148,5522.65
906.232,5797.05
907.316,6022.55
908.4,5781.9
909.484,5457.95
910.567,5253.6
911.65,5200.95
912.734,5175.95
913.817,5145.85
914.9,5099.85
915.982,5078.4
917.065,5008.45
918.147,4959.6
919.23,4951.1
920.312,4920.4
921.394,4869.65
922.476,4816.35
923.558,4826.4
924.639,4800.35
925.721,4763.2
926.802,4709.5
927.884,4692.55
928.965,4653.95
930.046,4631.4
931.126,4593.25
932.207,4580.2
933.288,4533.15
934.368,4532.95
935.448,4504.4
936.528,4479.95
937.608,4459.15
938.688,4432.95
939.767,4398.6
940.847,4405.5
941.926,4349.35
943.005,4322.05
944.084,4340.95
945.163,4288.7
946.242,4283.15
947.321,4265.7
948.399,4247.25
949.477,4212.8
950.556,4211.1
951.634,4187.8
952.711,4177.6
953.789,4164.95
954.867,4153.0
955.944,4127.55
957.021,4121.35
958.098,4103.4
959.175,4100.0
960.252,4079.85
961.328,4055.4
962.405,4063.55
963.481,4052.65
964.557,4025.2
965.633,4010.1
966.709,4011.85
967.785,3998.65
968.86,3988.55
969.936,3976.6
971.011,3965.05
972.086,3962.35
973.161,3943.8
974.235,3942.2
975.31,3931.8
976.384,3929.0
977.459,3911.2
978.533,3911.3
979.607,3904.0
980.68,3888.05
981.754,3880.95
982.827,3882.4
983.901,3872.55
984.974,3860.75
986.047,3859.75
987.119,3859.15
988.192,3853.85
989.264,3840.8
990.337,3832.1
991.409,3828.95
992.481,3825.15
993.553,3819.8
994.624,3812.35
995.696,3813.35
996.767,3809.25
997.838,3805.05
998.909,3800.25
999.98,3795.25
1001.05,3793.5
1002.12,3788.85
1003.19,3786.55
1004.26,3773.9
1005.33,3774.4
1006.4,3770.05
1007.47,3769.35
1008.54,3764.9
1009.61,3762.6
1010.68,3758.85
1011.75,3757.3
1012.82,3753.75
1013.88,3754.4
1014.95,3752.7
1016.02,3751.2
1017.09,3746.75
1018.16,3745.85
1019.22,3746.85
1020.29,3744.8
1021.36,3753.3
1022.43,3757.0
1023.49,3747.85
1024.56,3742.65
1025.63,3733.75
1026.69,3730.2
1027.76,3727.9
1028.83,3728.1
1029.89,3723.35
1030.96,3722.1
1032.02,3722.35
1033.09,3724.7
1034.15,3727.45
1035.22,3725.5
1036.28,3721.25
1037.35,3718.6
1038.41,3713.25
1039.48,3711.7
1040.54,3711.3
1041.6,3709.5
1042.67,3708.5
1043.73,3709.1
1044.79,3707.0
1045.86,3707.85
1046.92,3707.1
1047.98,3705.45
1049.05,3705.15
1050.11,3706.15
1051.17,3703.55
1052.23,3706.05
1053.29,3703.35
1054.36,3703.65
1055.42,3704.65
1056.48,3702.75
1057.54,3703.2
1058.6,3702.55
1059.66,3701.9
1060.72,3701.4
1061.78,3701.05
1062.84,3701.5
1063.9,3699.1
1064.96,3699.85
1066.02,3699.85
1067.08,3699.65
1067.88,3698.8

File: VLFR_07-PET_nobio_Raman_7247d54d.csv
nm,Intensity
791.377,10210.3
792.477,9443.12
793.576,8819.74
794.676,8615.46
795.775,8393.82
796.874,8442.7
797.973,8373.94
799.072,8291.54
800.171,8189.62
801.27,8233.46
802.368,8151.54
803.467,7985.32
804.565,7865.66
805.664,7768.18
806.762,7759.26
807.86,7699.04
808.958,7692.52
810.056,7498.8
811.153,7497.42
812.251,7442.26
813.349,7404.3
814.446,7277.04
815.543,7360.42
816.64,7256.08
817.737,7181.92
818.834,7135.16
819.931,7112.48
821.028,7069.18
822.125,6976.06
823.221,6866.12
824.317,6891.48
825.414,6915.98
826.51,6988.22
827.606,6730.0
828.702,6692.68
829.797,6684.1
830.893,6766.12
831.988,6574.96
833.084,6510.34
834.179,6475.98
835.274,6462.2
836.369,6432.22
837.464,6539.44
838.559,6462.88
839.654,6383.76
840.748,6494.42
841.843,6635.28
842.937,6393.14
844.031,6329.64
845.125,6149.62
846.219,6108.5
847.313,6053.04
848.407,6011.86
849.5,6011.52
850.593,6016.6
851.687,6001.06
852.78,5979.4
853.873,5960.12
854.966,5920.18
856.059,5858.3
857.151,5857.92
858.244,5875.08
859.336,5982.76
860.428,5958.42
861.52,5820.02
862.612,5731.34
863.704,5698.28
864.796,5728.44
865.888,5620.4
866.979,5600.24
868.07,5551.14
869.162,5617.06
870.253,5575.74
871.344,5683.34
872.434,5804.62
873.525,5845.86
874.615,5698.84
875.706,5541.1
876.796,5458.74
877.886,5393.98
878.976,5383.24
880.066,5357.22
881.156,5342.64
882.245,5340.56
883.335,5330.58
884.424,5274.14
885.513,5294.48
886.602,5262.52
887.691,5186.02
888.78,5189.66
889.868,5134.72
890.957,5118.26
892.045,5122.1
893.133,5064.16
894.221,5048.8
895.309,4987.26
896.397,5006.06
897.484,5075.16
898.571,5576.92
899.659,5281.16
900.746,4880.24
901.833,4851.26
902.92,4837.9
904.006,4825.16
905.093,4817.14
906.179,4872.1
907.266,5133.64
908.352,5145.8
909.438,4905.38
910.523,4758.84
911.609,4656.92
912.695,4623.5
913.78,4586.44
914.865,4551.46
915.95,4570.12
917.035,4525.78
918.12,4499.32
919.204,4486.38
920.289,4462.4
921.373,4451.62
922.457,4429.82
923.541,4414.78
924.625,4391.86
925.709,4371.4
926.792,4352.6
927.876,4326.6
928.959,4319.7
930.042,4285.22
931.125,4287.64
932.208,4247.14
933.29,4246.88
934.373,4208.54
935.455,4210.8
936.537,4191.92
937.619,4172.46
938.701,4188.48
939.782,4149.86
940.864,4138.62
941.945,4133.48
943.026,4112.08
944.107,4102.54
945.188,4084.46
946.269,4072.08
947.349,4070.66
948.43,4065.04
949.51,4053.82
950.59,4036.36
951.67,4023.62
952.75,4017.7
953.829,4023.26
954.909,3999.48
955.988,3990.28
957.067,3983.5
958.146,3975.9
959.224,3969.22
960.303,3964.6
961.381,3952.24
962.459,3943.48
963.537,3941.4
964.615,3928.94
965.693,3927.16
966.771,3926.6
967.848,3917.1
968.925,3909.5
970.002,3903.72
971.079,3897.6
972.156,3892.84
973.232,3883.9
974.309,3887.8
975.385,3874.02
976.461,3873.54
977.537,3864.16
978.612,3859.84
979.688,3856.36
980.763,3852.46
981.838,3847.96
982.913,3840.44
983.988,3841.78
985.063,3838.82
986.137,3833.74
987.211,3831.14
988.285,3826.22
989.359,3823.28
990.433,3816.14
991.506,3814.12
992.58,3810.38
993.653,3810.02
994.726,3805.5
995.799,3802.7
996.872,3799.24
997.944,3796.74
999.016,3794.52
1000.09,3792.24
1001.16,3785.94
1002.23,3785.54
1003.3,3782.16
1004.38,3782.42
1005.45,3777.82
1006.52,3777.9
1007.59,3771.82
1008.66,3769.64
1009.73,3768.22
1010.8,3765.64
1011.87,3765.24
1012.94,3764.52
1014.01,3764.14
1015.08,3761.7
1016.15,3759.56
1017.22,3759.82
1018.29,3756.5
1019.36,3754.42
1020.42,3755.76
1021.49,3758.58
1022.56,3760.76
1023.63,3761.68
1024.7,3756.34
1025.76,3752.82
1026.83,3747.56
1027.9,3745.9
1028.97,3743.2
1030.03,3743.0
1031.1,3738.88
1032.17,3740.34
1033.23,3739.04
1034.3,3741.84
1035.36,3744.28
1036.43,3742.18
1037.5,3738.2
1038.56,3735.7
1039.63,3733.56
1040.69,3732.4
1041.76,3730.52
1042.82,3730.78
1043.89,3729.58
1044.95,3729.08
1046.01,3729.14
1047.08,3728.7
1048.14,3727.9
1049.2,3726.58
1050.27,3727.54
1051.33,3728.52
1052.39,3726.4
1053.46,3726.46
1054.52,3726.26
1055.58,3726.4
1056.64,3726.28
1057.7,3725.22
1058.77,3725.54
1059.83,3724.48
1060.89,3725.76
1061.95,3724.82
1063.01,3724.44
1064.07,3724.32
1065.13,3723.44
1066.19,3724.58
1067.25,3723.46
1068.05,3722.98

File: VLFR_07-PET_nobio_Raman_17852a75.csv
nm,Intensity
791.75,14958.9
792.846,13932.0
793.942,13087.0
795.037,13076.7
796.133,12823.3
797.228,12991.1
798.324,12784.5
799.419,12624.9
800.514,12737.3
801.61,12814.2
802.705,12437.7
803.8,12428.2
804.894,12205.2
805.989,12065.3
807.084,12045.9
808.178,12032.4
809.273,11876.2
810.367,11625.8
811.461,11520.6
812.556,11422.5
813.65,11336.0
814.744,11226.8
815.837,10964.7
816.931,10820.9
818.025,10857.4
819.118,10596.1
820.212,10496.8
821.305,10593.2
822.398,10461.3
823.491,10249.4
824.585,10187.7
825.677,10482.0
826.77,9999.6
827.863,9817.3
828.956,9879.7
830.048,9838.9
831.14,9647.4
832.233,9545.2
833.325,9468.3
834.417,9425.0
835.509,9281.4
836.601,9462.7
837.692,9402.9
838.784,9257.1
839.876,9300.9
840.967,9500.6
842.058,9242.3
843.149,9178.1
844.24,8819.9
845.331,8660.5
846.422,8535.4
847.513,8403.8
848.604,8429.0
849.694,8426.0
850.784,8261.5
851.875,8340.5
852.965,8258.2
854.055,8190.5
855.145,8048.4
856.235,7880.2
857.324,8044.5
858.414,8161.0
859.503,8183.8
860.593,7991.1
861.682,7777.4
862.771,7651.9
863.86,7801.1
864.949,7737.6
866.038,7542.9
867.126,7400.7
868.215,7492.9
869.303,7391.8
870.391,7560.8
871.479,7820.6
872.567,7885.3
873.655,7641.9
874.743,7450.9
875.831,7239.9
876.918,7189.9
878.006,7126.5
879.093,7097.6
880.18,6926.8
881.267,6971.5
882.354,7019.6
883.441,6938.2
884.527,7059.5
885.614,6923.4
886.7,6698.9
887.786,6627.3
888.872,6644.1
889.958,6657.7
891.044,6563.7
892.13,6479.5
893.216,6424.2
894.301,6400.5
895.386,6377.3
896.472,6476.0
897.557,6974.1
898.642,7013.2
899.726,6353.6
900.811,6114.9
901.896,6092.9
902.98,5992.0
904.064,5972.5
905.148,6046.0
906.232,6297.4
907.316,6550.1
908.4,6254.0
909.484,5935.1
910.567,5754.6
911.65,5599.8
912.734,5568.5
913.817,5470.8
914.9,5496.0
915.982,5427.3
917.065,5382.1
918.147,5361.1
919.23,5310.1
920.312,5302.0
921.394,5171.3
922.476,5156.1
923.558,5133.5
924.639,5099.8
925.721,5047.5
926.802,5044.5
927.884,4949.7
928.965,4909.0
930.046,4905.5
931.126,4879.3
932.207,4795.7
933.288,4798.1
934.368,4744.6
935.448,4705.1
936.528,4672.0
937.608,4650.7
938.688,4616.2
939.767,4588.4
940.847,4592.6
941.926,4518.1
943.005,4509.5
944.084,4469.1
945.163,4472.8
946.242,4454.6
947.321,4409.3
948.399,4380.7
949.477,4391.4
950.556,4364.5
951.634,4342.2
952.711,4321.6
953.789,4314.6
954.867,4282.7
955.944,4249.9
957.021,4242.7
958.098,4228.0
959.175,4187.8
960.252,4203.6
961.328,4182.2
962.405,4160.2
963.481,4152.9
964.557,4139.6
965.633,4123.8
966.709,4096.1
967.785,4083.2
968.86,4087.9
969.936,4077.6
971.011,4055.5
972.086,4048.9
973.161,4034.7
974.235,4027.3
975.31,4033.0
976.384,4003.1
977.459,3996.2
978.533,3972.0
979.607,3974.6
980.68,3971.5
981.754,3953.0
982.827,3946.5
983.901,3945.6
984.974,3935.8
986.047,3924.6
987.119,3925.7
988.192,3917.1
989.264,3907.9
990.337,3908.2
991.409,3888.1
992.481,3879.7
993.553,3871.8
994.624,3866.0
995.696,3869.5
996.767,3854.6
997.838,3853.3
998.909,3843.3
999.98,3844.6
1001.05,3844.2
1002.12,3833.4
1003.19,3824.1
1004.26,3822.0
1005.33,3815.4
1006.4,3813.7
1007.47,3811.0
1008.54,3805.4
1009.61,3794.4
1010.68,3803.2
1011.75,3791.3
1012.82,3791.4
1013.88,3788.8
1014.95,3783.7
1016.02,3784.4
1017.09,3778.4
1018.16,3779.4
1019.22,3777.4
1020.29,3773.3
1021.36,3779.7
1022.43,3783.9
1023.49,3773.5
1024.56,3761.6
1025.63,3760.5
1026.69,3762.3
1027.76,3756.2
1028.83,3751.3
1029.89,3745.7
1030.96,3740.8
1032.02,3745.6
1033.09,3746.5
1034.15,3751.9
1035.22,3749.5
1036.28,3743.3
1037.35,3738.2
1038.41,3733.3
1039.48,3732.3
1040.54,3728.0
1041.6,3726.3
1042.67,3725.5
1043.73,3727.4
1044.79,3723.1
1045.86,3723.9
1046.92,3723.7
1047.98,3722.4
1049.05,3721.9
1050.11,3718.3
1051.17,3717.6
1052.23,3717.9
1053.29,3718.0
1054.36,3717.6
1055.42,3717.4
1056.48,3718.7
1057.54,3718.5
1058.6,3716.4
1059.66,3715.8
1060.72,3716.9
1061.78,3717.1
1062.84,3715.5
1063.9,3716.1
1064.96,3715.5
1066.02,3714.7
1067.08,3715.8
1067.88,3714.0

File: VLFR_07-PET_nobio_Raman_54331eda.csv
nm,Intensity
791.75,11935.7
792.846,10966.7
793.942,10645.3
795.037,10586.4
796.133,10516.6
797.228,10466.9
798.324,10550.3
799.419,10378.1
800.514,10327.5
801.61,10367.8
802.705,10295.2
803.8,10114.0
804.894,10129.2
805.989,9812.8
807.084,9766.65
808.178,9723.85
809.273,9599.5
810.367,9557.4
811.461,9448.75
812.556,9403.45
813.65,9403.35
814.744,9317.9
815.837,9207.45
816.931,9176.7
818.025,9041.0
819.118,8968.75
820.212,8939.7
821.305,8789.6
822.398,8695.4
823.491,8601.0
824.585,8559.85
825.677,8904.7
826.77,8431.1
827.863,8255.5
828.956,8351.35
830.048,8273.85
831.14,8175.25
832.233,7984.7
833.325,8090.35
834.417,7893.3
835.509,7857.35
836.601,7797.35
837.692,7923.55
838.784,7732.35
839.876,7726.45
840.967,8053.15
842.058,7718.75
843.149,7608.35
844.24,7414.5
845.331,7260.9
846.422,7142.85
847.513,7201.7
848.604,7106.45
849.694,7054.9
850.784,7071.0
851.875,7012.65
852.965,6990.45
854.055,6933.65
855.145,6855.85
856.235,6891.15
857.324,6871.8
858.414,6943.9
859.503,6994.7
860.593,6973.05
861.682,6670.25
862.771,6597.6
863.86,6668.15
864.949,6636.5
866.038,6519.45
867.126,6477.4
868.215,6429.75
869.303,6497.65
870.391,6488.95
871.479,6770.35
872.567,6746.2
873.655,6675.4
874.743,6444.3
875.831,6340.8
876.918,6210.35
878.006,6176.35
879.093,6148.25
880.18,6117.6
881.267,6120.25
882.354,6023.95
883.441,6067.55
884.527,6057.95
885.614,5999.0
886.7,5911.05
887.786,5868.75
888.872,5827.8
889.958,5774.7
891.044,5779.0
892.13,5778.8
893.216,5654.95
894.301,5662.6
895.386,5640.6
896.472,5692.05
897.557,6210.7
898.642,6203.0
899.726,5614.95
900.811,5433.65
901.896,5391.95
902.98,5363.2
904.064,5333.35
905.148,5378.8
906.232,5619.85
907.316,5800.2
908.4,5690.95
909.484,5290.5
910.567,5195.4
911.65,5094.1
912.734,5090.8
913.817,5007.25
914.9,4984.5
915.982,4941.1
917.065,4915.15
918.147,4892.95
919.23,4894.25
920.312,4820.45
921.394,4799.4
922.476,4773.05
923.558,4739.25
924.639,4726.15
925.721,4676.35
926.802,4645.25
927.884,4620.75
928.965,4609.6
930.046,4567.55
931.126,4543.1
932.207,4504.5
933.288,4483.75
934.368,4445.65
935.448,4462.1
936.528,4428.3
937.608,4401.25
938.688,4386.85
939.767,4360.35
940.847,4343.25
941.926,4341.65
943.005,4292.8
944.084,4274.8
945.163,4254.7
946.242,4243.2
947.321,4215.0
948.399,4209.2
949.477,4210.2
950.556,4179.45
951.634,4160.5
952.711,4146.0
953.789,4140.0
954.867,4109.7
955.944,4114.65
957.021,4095.75
958.098,4084.0
959.175,4075.9
960.252,4053.4
961.328,4036.25
962.405,4027.4
963.481,4020.8
964.557,4008.45
965.633,3990.55
966.709,3991.55
967.785,3988.4
968.86,3971.9
969.936,3952.0
971.011,3954.9
972.086,3994.35
973.161,3934.6
974.235,3926.55
975.31,3922.4
976.384,3912.2
977.459,3899.35
978.533,3897.8
979.607,3887.7
980.68,3888.55
981.754,3875.85
982.827,3872.2
983.901,3858.95
984.974,3862.9
986.047,3853.5
987.119,3840.85
988.192,3842.45
989.264,3833.5
990.337,3827.55
991.409,3820.6
992.481,3818.25
993.553,3812.8
994.624,3809.1
995.696,3804.8
996.767,3796.45
997.838,3794.95
998.909,3794.25
999.98,3788.25
1001.05,3781.45
1002.12,3782.7
1003.19,3777.3
1004.26,3773.55
1005.33,3772.4
1006.4,3768.3
1007.47,3762.75
1008.54,3758.65
1009.61,3759.95
1010.68,3756.65
1011.75,3752.55
1012.82,3749.85
1013.88,3750.8
1014.95,3748.5
1016.02,3745.8
1017.09,3740.7
1018.16,3740.45
1019.22,3739.95
1020.29,3742.25
1021.36,3747.9
1022.43,3745.75
1023.49,3742.25
1024.56,3737.65
1025.63,3733.9
1026.69,3726.65
1027.76,3724.4
1028.83,3720.05
1029.89,3718.0
1030.96,3716.75
1032.02,3717.8
1033.09,3720.15
1034.15,3720.0
1035.22,3721.0
1036.28,3715.35
1037.35,3713.8
1038.41,3708.85
1039.48,3708.3
1040.54,3706.9
1041.6,3705.25
1042.67,3704.95
1043.73,3703.9
1044.79,3703.0
1045.86,3700.35
1046.92,3702.0
1047.98,3700.2
1049.05,3701.0
1050.11,3698.9
1051.17,3699.45
1052.23,3699.65
1053.29,3700.0
1054.36,3699.3
1055.42,3700.75
1056.48,3698.15
1057.54,3696.9
1058.6,3696.35
1059.66,3698.25
1060.72,3697.5
1061.78,3696.4
1062.84,3696.95
1063.9,3696.7
1064.96,3696.8
1066.02,3695.8
1067.08,3694.75
1067.88,3694.25

File: VLFR_07-PET_nobio_Raman_93447a4d.csv
nm,Intensity
791.75,15047.9
792.846,13781.5
793.942,13253.6
795.037,13147.5
796.133,13049.7
797.228,12859.7
798.324,12924.2
799.419,13042.2
800.514,13033.3
801.61,13035.9
802.705,12615.9
803.8,12649.0
804.894,12445.6
805.989,12485.5
807.084,12268.5
808.178,12217.8
809.273,12214.2
810.367,12054.4
811.461,11900.4
812.556,11739.3
813.65,11546.2
814.744,11346.4
815.837,11349.9
816.931,11345.9
818.025,11171.0
819.118,11014.5
820.212,10835.6
821.305,10792.4
822.398,10602.9
823.491,10549.5
824.585,10421.5
825.677,10552.7
826.77,10119.2
827.863,10062.5
828.956,9939.2
830.048,9863.5
831.14,9937.3
832.233,9570.8
833.325,9588.5
834.417,9408.4
835.509,9423.2
836.601,9540.6
837.692,9390.9
838.784,9374.8
839.876,9418.9
840.967,9682.4
842.058,9282.0
843.149,9150.4
844.24,8853.9
845.331,8672.4
846.422,8563.8
847.513,8536.8
848.604,8549.8
849.694,8374.1
850.784,8431.5
851.875,8317.3
852.965,8473.5
854.055,8211.7
855.145,8101.2
856.235,7987.4
857.324,8134.3
858.414,8177.4
859.503,8290.5
860.593,8012.6
861.682,7761.8
862.771,7752.6
863.86,7800.8
864.949,7744.4
866.038,7585.7
867.126,7535.0
868.215,7481.6
869.303,7514.5
870.391,7566.5
871.479,7705.4
872.567,7843.0
873.655,7827.9
874.743,7470.9
875.831,7275.1
876.918,7133.5
878.006,7118.1
879.093,7047.5
880.18,7010.8
881.267,7173.0
882.354,7011.5
883.441,6922.4
884.527,6988.3
885.614,6922.7
886.7,6780.2
887.786,6732.4
888.872,6591.0
889.958,6628.4
891.044,6643.2
892.13,6565.8
893.216,6418.8
894.301,6451.5
895.386,6422.4
896.472,6463.6
897.557,7058.8
898.642,7086.6
899.726,6385.4
900.811,6155.7
901.896,6047.8
902.98,6017.3
904.064,5982.3
905.148,6038.3
906.232,6369.5
907.316,6656.5
908.4,6297.6
909.484,5898.0
910.567,5733.1
911.65,5685.4
912.734,5607.5
913.817,5559.5
914.9,5470.6
915.982,5530.8
917.065,5379.5
918.147,5383.5
919.23,5342.6
920.312,5260.8
921.394,5213.4
922.476,5205.2
923.558,5184.4
924.639,5119.2
925.721,5052.4
926.802,5030.7
927.884,4997.8
928.965,4950.5
930.046,4894.2
931.126,4862.5
932.207,4834.0
933.288,4804.2
934.368,4790.7
935.448,4738.6
936.528,4687.7
937.608,4650.2
938.688,4644.7
939.767,4623.6
940.847,4588.1
941.926,4532.0
943.005,4506.0
944.084,4512.0
945.163,4460.2
946.242,4468.1
947.321,4447.9
948.399,4400.5
949.477,4376.6
950.556,4362.2
951.634,4343.3
952.711,4309.6
953.789,4308.9
954.867,4268.5
955.944,4265.3
957.021,4248.1
958.098,4221.9
959.175,4208.8
960.252,4181.1
961.328,4181.8
962.405,4178.0
963.481,4130.5
964.557,4129.9
965.633,4128.2
966.709,4107.9
967.785,4096.5
968.86,4073.9
969.936,4081.1
971.011,4046.0
972.086,4035.3
973.161,4048.7
974.235,4026.3
975.31,4005.4
976.384,4003.4
977.459,3986.6
978.533,3982.4
979.607,3973.2
980.68,3970.9
981.754,3963.6
982.827,3948.5
983.901,3938.9
984.974,3930.7
986.047,3933.2
987.119,3918.1
988.192,3908.7
989.264,3906.8
990.337,3890.3
991.409,3891.0
992.481,3880.3
993.553,3876.0
994.624,3868.1
995.696,3863.3
996.767,3857.7
997.838,3852.0
998.909,3846.4
999.98,3838.3
1001.05,3832.1
1002.12,3829.0
1003.19,3828.2
1004.26,3823.8
1005.33,3820.2
1006.4,3814.2
1007.47,3806.9
1008.54,3798.2
1009.61,3797.5
1010.68,3793.0
1011.75,3796.0
1012.82,3788.4
1013.88,3788.5
1014.95,3781.9
1016.02,3776.6
1017.09,3781.1
1018.16,3771.7
1019.22,3771.2
1020.29,3773.0
1021.36,3780.8
1022.43,3781.1
1023.49,3774.1
1024.56,3763.1
1025.63,3758.1
1026.69,3758.9
1027.76,3753.9
1028.83,3749.1
1029.89,3745.0
1030.96,3746.1
1032.02,3740.6
1033.09,3745.1
1034.15,3745.7
1035.22,3748.1
1036.28,3743.1
1037.35,3736.1
1038.41,3732.5
1039.48,3730.9
1040.54,3728.6
1041.6,3727.2
1042.67,3723.6
1043.73,3724.0
1044.79,3724.1
1045.86,3721.6
1046.92,3723.4
1047.98,3720.2
1049.05,3718.8
1050.11,3719.3
1051.17,3720.3
1052.23,3720.4
1053.29,3720.8
1054.36,3716.8
1055.42,3718.8
1056.48,3716.2
1057.54,3718.6
1058.6,3713.9
1059.66,3717.0
1060.72,3714.9
1061.78,3716.1
1062.84,3715.3
1063.9,3715.4
1064.96,3715.2
1066.02,3714.6
1067.08,3712.5
1067.88,3713.2