Folder: MPX_specDB/spectra (part 53)

File: VLFR_02-HDPE_nobio_Raman_2b3cf964.csv
nm,Intensity
526.5,828.7
527.047,829.6
527.594,829.0
528.14,829.5
528.687,829.5
529.233,829.2
529.779,829.0
530.325,829.7
530.871,828.2
531.417,830.5
531.962,831.4
532.508,829.4
533.053,830.0
533.599,828.8
534.144,889.1
534.689,876.4
535.234,866.1
535.778,857.5
536.323,854.0
536.867,850.9
537.412,848.4
537.956,847.4
538.5,846.8
539.044,844.3
539.588,843.1
540.132,841.1
540.675,841.7
541.219,842.0
541.762,841.8
542.305,840.5
542.848,840.8
543.391,842.3
543.934,843.0
544.477,839.7
545.02,840.8
545.562,839.8
546.105,838.8
546.647,840.3
547.189,838.4
547.731,840.8
548.273,840.6
548.815,841.1
549.356,840.7
549.898,838.3
550.439,839.8
550.981,839.7
551.522,839.8
552.063,841.3
552.604,840.1
553.145,841.1
553.686,843.7
554.226,842.8
554.767,843.3
555.307,840.3
555.848,844.2
556.388,845.2
556.928,846.9
557.468,848.4
558.008,850.3
558.547,853.5
559.087,849.2
559.626,849.0
560.166,849.0
560.705,847.2
561.244,849.2
561.783,845.5
562.322,849.1
562.861,851.8
563.4,855.5
563.939,936.3
564.477,872.8
565.015,866.9
565.554,863.2
566.092,1002.7
566.63,868.3
567.168,854.6
567.706,854.8
568.244,850.9
568.781,851.0
569.319,854.2
569.857,851.2
570.394,855.6
570.931,862.7
571.468,983.6
572.005,877.3
572.542,858.0
573.079,853.6
573.616,854.7
574.153,862.1
574.689,851.7
575.226,860.2
575.762,939.5
576.298,944.0
576.834,911.4
577.371,888.0
577.907,859.5
578.442,854.9
578.978,852.0
579.514,852.4
580.049,853.6
580.585,852.8
581.12,854.9
581.656,852.9
582.191,852.8
582.726,854.7
583.261,855.7
583.796,857.2
584.331,858.5
584.865,862.0
585.4,864.7
585.935,868.9
586.469,872.8
587.004,873.9
587.538,878.4
588.072,878.1
588.606,885.9
589.14,890.0
589.674,891.3
590.208,898.3
590.742,899.7
591.275,903.6
591.809,902.6
592.342,902.4
592.876,901.3
593.409,903.2
593.942,898.7
594.476,896.7
595.009,897.4
595.542,894.4
596.075,894.5
596.607,893.1
597.14,892.0
597.673,890.6
598.205,893.3
598.738,890.2
599.27,890.6
599.803,894.3
600.335,889.0
600.867,886.0
601.399,892.6
601.931,893.0
602.463,889.2
602.995,889.5
603.527,888.8
604.058,886.7
604.59,885.7
605.122,885.2
605.653,881.5
606.184,881.4
606.716,881.6
607.247,878.0
607.778,881.5
608.309,879.4
608.84,875.7
609.371,879.0
609.902,877.3
610.433,877.3
610.964,879.3
611.494,880.7
612.025,874.6
612.556,873.4
613.086,873.9
613.616,870.9
614.147,873.5
614.677,871.9
615.207,873.4
615.737,870.8
616.267,873.1
616.797,871.5
617.327,878.1
617.857,872.1
618.387,873.1
618.917,871.6
619.446,875.3
619.976,874.1
620.505,873.8
621.035,877.2
621.564,880.2
622.093,894.6
622.623,895.1
623.152,875.9
623.681,876.0
624.21,870.9
624.739,874.2
625.268,876.2
625.797,880.3
626.326,898.2
626.855,1062.1
627.383,1404.9
627.912,1178.9
628.441,1288.7
628.969,1215.0
629.498,1144.6
630.026,1066.6
630.554,1048.2
631.083,947.9
631.611,895.7
632.139,882.5
632.667,880.6
633.195,873.9
633.724,873.7
634.252,870.8
634.779,869.3
635.307,868.0
635.835,869.7
636.363,869.6
636.891,867.7
637.418,868.4
637.946,870.1
638.474,868.8
639.001,867.6
639.529,867.7
640.056,869.3
640.583,870.6
641.111,873.1
641.638,872.1
642.165,873.8
642.692,876.1
643.22,875.4
643.747,874.6
644.274,873.2
644.801,872.9
645.328,872.0
645.854,874.5
646.381,872.4
646.908,873.6
647.435,868.7
647.962,871.0
648.488,869.7
649.015,869.8
649.542,868.9
650.068,866.7
650.595,870.7
651.121,865.7
651.648,869.1
652.174,866.9
652.7,866.1
653.227,865.6
653.753,862.9
654.279,862.6
654.805,863.9
655.331,862.6
655.858,862.8
656.384,862.6
656.91,862.4
657.436,864.0
657.962,862.9
658.488,862.3
659.013,862.6
659.539,860.6
660.065,862.6
660.591,862.3
661.117,859.4
661.642,858.7
662.168,856.7
662.694,859.6
663.088,855.7

File: VLFR_02-HDPE_nobio_Raman_002b16a1.csv
nm,Intensity
526.486,830.3
527.033,829.1
527.579,829.4
528.126,830.4
528.672,829.2
529.219,829.1
529.765,830.4
530.311,830.1
530.857,830.5
531.403,831.0
531.948,832.3
532.494,830.7
533.039,829.1
533.585,830.2
534.13,889.4
534.675,880.1
535.22,874.9
535.764,857.5
536.309,852.6
536.854,852.1
537.398,849.6
537.942,848.9
538.486,847.4
539.03,846.1
539.574,842.4
540.118,840.9
540.662,840.0
541.205,843.4
541.749,840.3
542.292,841.8
542.835,839.7
543.378,837.7
543.921,841.0
544.464,840.2
545.006,838.7
545.549,839.6
546.091,840.5
546.634,839.3
547.176,839.2
547.718,841.4
548.26,838.6
548.802,838.8
549.343,839.2
549.885,837.3
550.426,840.2
550.968,839.6
551.509,839.3
552.05,841.3
552.591,840.0
553.132,841.3
553.673,841.9
554.214,842.6
554.754,840.3
555.295,840.9
555.835,844.4
556.375,844.3
556.915,845.9
557.455,848.6
557.995,846.8
558.535,849.0
559.075,847.7
559.614,846.1
560.154,846.1
560.693,844.8
561.232,847.3
561.772,848.4
562.311,848.9
562.85,851.7
563.388,853.3
563.927,906.1
564.466,873.0
565.004,861.9
565.543,860.1
566.081,927.8
566.619,863.3
567.157,855.7
567.695,861.3
568.233,849.0
568.771,850.6
569.309,850.3
569.846,852.6
570.384,853.1
570.921,859.0
571.458,955.1
571.995,881.8
572.532,859.5
573.069,855.7
573.606,855.4
574.143,865.8
574.68,856.2
575.216,858.9
575.753,909.4
576.289,1003.0
576.825,937.2
577.361,918.5
577.897,869.2
578.433,865.8
578.969,867.0
579.505,867.1
580.041,867.5
580.576,871.5
581.112,873.6
581.647,878.6
582.183,879.9
582.718,879.9
583.253,884.3
583.788,884.9
584.323,888.5
584.858,888.2
585.392,892.8
585.927,893.2
586.462,895.1
586.996,898.6
587.53,897.1
588.065,897.5
588.599,900.9
589.133,901.7
589.667,905.7
590.201,906.2
590.735,911.9
591.268,914.4
591.802,912.5
592.335,919.4
592.869,918.1
593.402,915.1
593.936,917.5
594.469,916.8
595.002,916.3
595.535,918.7
596.068,917.3
596.601,921.9
597.133,921.2
597.666,923.0
598.199,917.9
598.731,919.7
599.264,922.2
599.796,922.4
600.328,918.8
600.86,921.8
601.393,921.6
601.925,923.3
602.457,917.2
602.988,918.9
603.52,919.0
604.052,914.7
604.583,915.2
605.115,906.9
605.646,905.5
606.178,903.8
606.709,901.3
607.24,897.0
607.771,897.9
608.302,901.6
608.833,899.1
609.364,893.7
609.895,895.1
610.426,892.0
610.957,892.2
611.487,890.6
612.018,892.5
612.548,888.4
613.078,886.5
613.609,884.9
614.139,887.1
614.669,888.4
615.199,889.3
615.729,886.7
616.259,886.9
616.789,888.2
617.319,891.5
617.849,890.3
618.378,887.9
618.908,890.1
619.437,891.2
619.967,893.2
620.496,894.6
621.025,895.1
621.555,907.6
622.084,933.1
622.613,937.1
623.142,900.7
623.671,891.9
624.2,892.7
624.729,889.4
625.258,897.8
625.786,898.0
626.315,929.9
626.844,1169.1
627.372,1669.0
627.901,1329.9
628.429,1544.9
628.957,1441.9
629.486,1283.2
630.014,1156.8
630.542,1114.6
631.07,995.5
631.598,914.6
632.126,898.3
632.654,892.3
633.182,889.2
633.71,884.9
634.237,884.6
634.765,882.8
635.293,880.6
635.82,880.3
636.348,881.9
636.875,876.9
637.403,874.8
637.93,873.2
638.458,873.1
638.985,873.2
639.512,874.9
640.039,873.0
640.566,872.7
641.093,874.3
641.62,874.3
642.147,875.5
642.674,873.2
643.201,871.5
643.728,870.6
644.255,875.0
644.781,873.1
645.308,871.9
645.835,874.4
646.361,870.2
646.888,873.5
647.414,873.0
647.941,871.2
648.467,872.1
648.993,870.5
649.52,872.6
650.046,870.3
650.572,870.6
651.098,870.6
651.625,870.2
652.151,868.2
652.677,871.3
653.203,870.1
653.729,867.9
654.255,870.0
654.78,870.7
655.306,870.2
655.832,866.4
656.358,864.5
656.884,867.1
657.409,865.3
657.935,865.5
658.461,865.6
658.986,867.2
659.512,864.9
660.037,867.7
660.563,866.6
661.088,864.0
661.614,862.1
662.139,862.5
662.664,859.8
663.058,861.5

File: VLFR_02-HDPE_nobio_Raman_2ba9e21c.csv
nm,Intensity
526.508,829.9
527.055,829.4
527.602,829.0
528.149,829.6
528.695,831.2
529.241,830.8
529.787,831.6
530.334,829.8
530.879,829.6
531.425,829.4
531.971,834.6
532.516,829.7
533.062,829.3
533.607,829.3
534.152,899.9
534.697,899.6
535.242,897.3
535.786,863.5
536.331,856.6
536.876,850.8
537.42,851.4
537.964,849.2
538.508,848.3
539.052,844.6
539.596,841.7
540.14,842.4
540.683,840.7
541.227,839.5
541.77,841.1
542.313,840.5
542.856,839.6
543.399,837.8
543.942,838.9
544.485,841.6
545.027,838.5
545.57,838.2
546.112,838.7
546.654,837.7
547.196,838.9
547.738,840.6
548.28,838.8
548.822,838.9
549.363,838.5
549.905,838.7
550.446,837.8
550.988,839.4
551.529,839.3
552.07,839.6
552.611,841.0
553.152,841.4
553.692,843.0
554.233,840.8
554.773,841.6
555.314,841.7
555.854,843.0
556.394,843.4
556.934,844.7
557.474,848.3
558.014,848.8
558.553,848.7
559.093,846.5
559.632,850.3
560.172,846.5
560.711,847.2
561.25,846.7
561.789,845.8
562.328,848.8
562.867,848.1
563.406,854.1
563.944,936.0
564.483,871.1
565.021,864.8
565.559,857.7
566.098,932.7
566.636,861.3
567.174,856.2
567.711,862.1
568.249,849.3
568.787,849.3
569.324,850.4
569.862,848.7
570.399,853.0
570.936,858.5
571.474,981.9
572.011,878.2
572.548,854.2
573.084,850.1
573.621,850.9
574.158,857.5
574.694,848.6
575.231,853.1
575.767,897.4
576.303,1022.3
576.84,938.2
577.376,908.3
577.912,859.1
578.447,851.2
578.983,847.5
579.519,845.9
580.054,847.7
580.59,845.9
581.125,846.3
581.661,847.7
582.196,845.8
582.731,844.2
583.266,846.2
583.801,844.6
584.336,844.5
584.87,843.3
585.405,844.1
585.94,843.6
586.474,843.7
587.008,845.2
587.543,844.5
588.077,846.8
588.611,841.7
589.145,844.3
589.679,844.3
590.213,843.9
590.747,843.9
591.28,844.9
591.814,845.2
592.347,844.2
592.881,844.7
593.414,846.7
593.947,844.5
594.48,846.1
595.014,847.7
595.547,848.0
596.079,846.6
596.612,845.3
597.145,847.3
597.678,846.2
598.21,847.4
598.743,850.8
599.275,850.9
599.807,851.5
600.34,850.5
600.872,851.4
601.404,851.5
601.936,857.7
602.468,855.9
603.0,851.7
603.532,853.8
604.063,852.7
604.595,849.6
605.126,849.5
605.658,850.3
606.189,851.1
606.721,848.7
607.252,847.4
607.783,848.1
608.314,851.0
608.845,848.4
609.376,848.6
609.907,850.5
610.438,849.8
610.968,851.5
611.499,848.9
612.03,847.7
612.56,849.9
613.091,850.5
613.621,846.9
614.151,850.6
614.681,850.2
615.212,852.1
615.742,850.9
616.272,851.0
616.802,857.7
617.332,866.4
617.861,865.2
618.391,864.3
618.921,863.2
619.45,868.2
619.98,874.2
620.509,868.0
621.039,879.8
621.568,898.4
622.097,940.1
622.627,933.0
623.156,884.9
623.685,874.0
624.214,872.6
624.743,873.3
625.272,878.2
625.801,887.2
626.33,935.0
626.858,1353.6
627.387,2048.0
627.916,1544.1
628.444,1939.3
628.973,1480.4
629.501,1343.1
630.029,1189.3
630.558,1154.7
631.086,992.4
631.614,899.0
632.142,878.8
632.67,871.4
633.198,868.0
633.726,864.3
634.254,859.2
634.782,857.7
635.31,854.0
635.838,852.1
636.365,851.4
636.893,855.0
637.421,847.9
637.948,845.9
638.476,846.4
639.003,846.1
639.531,842.3
640.058,843.8
640.585,842.8
641.113,843.6
641.64,844.2
642.167,843.5
642.694,842.5
643.221,845.6
643.748,842.1
644.275,841.6
644.802,842.6
645.329,842.4
645.856,843.2
646.382,842.1
646.909,842.8
647.436,841.1
647.962,843.3
648.489,841.1
649.016,841.7
649.542,840.9
650.069,843.0
650.595,841.6
651.121,843.3
651.648,841.7
652.174,841.4
652.7,841.0
653.227,842.0
653.753,842.8
654.279,843.4
654.805,842.3
655.331,840.6
655.857,842.4
656.383,842.2
656.909,842.8
657.435,842.9
657.961,843.0
658.487,839.7
659.013,841.7
659.538,842.3
660.064,846.4
660.59,844.8
661.116,843.2
661.641,842.0
662.167,840.7
662.692,842.4
663.087,842.0

File: VLFR_02-HDPE_nobio_Raman_2bad5794.csv
nm,Intensity
526.486,830.0
527.033,830.4
527.579,828.8
528.126,830.4
528.672,829.9
529.219,830.5
529.765,828.1
530.311,830.0
530.857,829.0
531.403,830.9
531.948,833.0
532.494,832.3
533.039,830.3
533.585,829.3
534.13,915.2
534.675,898.3
535.22,889.2
535.764,869.5
536.309,864.9
536.854,859.7
537.398,858.3
537.942,858.9
538.486,855.2
539.03,853.1
539.574,848.6
540.118,847.3
540.662,847.0
541.205,847.4
541.749,844.5
542.292,844.6
542.835,843.2
543.378,843.9
543.921,842.7
544.464,844.3
545.006,843.0
545.549,843.1
546.091,841.9
546.634,842.3
547.176,841.4
547.718,840.0
548.26,843.2
548.802,840.1
549.343,840.1
549.885,839.3
550.426,841.3
550.968,840.4
551.509,840.7
552.05,839.2
552.591,840.0
553.132,844.0
553.673,844.2
554.214,845.9
554.754,843.4
555.295,844.2
555.835,850.5
556.375,847.8
556.915,850.3
557.455,854.5
557.995,857.1
558.535,858.8
559.075,853.0
559.614,853.3
560.154,851.0
560.693,851.1
561.232,850.9
561.772,852.4
562.311,855.6
562.85,858.8
563.388,862.4
563.927,921.8
564.466,886.4
565.004,877.8
565.543,871.0
566.081,938.1
566.619,876.4
567.157,869.1
567.695,866.7
568.233,863.5
568.771,862.8
569.309,865.7
569.846,865.7
570.384,868.2
570.921,878.6
571.458,970.7
571.995,914.4
572.532,885.3
573.069,879.8
573.606,879.1
574.143,889.9
574.68,883.0
575.216,892.2
575.753,947.4
576.289,1051.6
576.825,999.9
577.361,964.8
577.897,930.3
578.433,929.6
578.969,936.9
579.505,948.4
580.041,957.6
580.576,968.9
581.112,979.4
581.647,990.0
582.183,1005.1
582.718,1016.1
583.253,1029.2
583.788,1030.7
584.323,1051.9
584.858,1056.5
585.392,1067.6
585.927,1080.6
586.462,1093.4
586.996,1104.8
587.53,1119.3
588.065,1126.1
588.599,1129.4
589.133,1145.1
589.667,1154.2
590.201,1169.0
590.735,1185.1
591.268,1183.0
591.802,1196.8
592.335,1201.0
592.869,1197.3
593.402,1196.1
593.936,1208.1
594.469,1215.8
595.002,1224.2
595.535,1235.1
596.068,1229.7
596.601,1246.1
597.133,1255.6
597.666,1259.4
598.199,1276.2
598.731,1287.7
599.264,1280.7
599.796,1296.1
600.328,1293.4
600.86,1291.9
601.393,1283.4
601.925,1285.1
602.457,1279.8
602.988,1263.9
603.52,1253.8
604.052,1243.1
604.583,1217.2
605.115,1199.6
605.646,1183.5
606.178,1166.7
606.709,1156.6
607.24,1144.3
607.771,1129.7
608.302,1115.6
608.833,1110.5
609.364,1103.2
609.895,1087.6
610.426,1081.5
610.957,1076.9
611.487,1073.0
612.018,1065.0
612.548,1059.5
613.078,1054.4
613.609,1046.3
614.139,1045.8
614.669,1044.7
615.199,1035.6
615.729,1028.2
616.259,1028.8
616.789,1023.5
617.319,1023.1
617.849,1022.8
618.378,1019.1
618.908,1021.9
619.437,1013.7
619.967,1013.6
620.496,1013.1
621.025,1014.6
621.555,1024.5
622.084,1044.6
622.613,1049.4
623.142,1014.4
623.671,1007.7
624.2,1000.4
624.729,999.8
625.258,1005.1
625.786,1010.7
626.315,1044.4
626.844,1287.1
627.372,1867.9
627.901,1523.0
628.429,1702.8
628.957,1582.7
629.486,1462.3
630.014,1338.9
630.542,1302.6
631.07,1154.3
631.598,1067.1
632.126,1037.8
632.654,1020.9
633.182,1010.8
633.71,1010.9
634.237,1009.1
634.765,1009.2
635.293,1010.4
635.82,1009.6
636.348,1015.9
636.875,1012.8
637.403,1011.4
637.93,1015.6
638.458,1015.6
638.985,1017.1
639.512,1019.1
640.039,1020.4
640.566,1017.4
641.093,1025.7
641.62,1025.8
642.147,1034.2
642.674,1038.7
643.201,1033.9
643.728,1033.5
644.255,1032.1
644.781,1032.3
645.308,1033.8
645.835,1041.3
646.361,1032.5
646.888,1030.6
647.414,1037.8
647.941,1036.6
648.467,1036.1
648.993,1031.9
649.52,1030.4
650.046,1037.6
650.572,1033.0
651.098,1033.3
651.625,1029.2
652.151,1029.9
652.677,1033.1
653.203,1038.1
653.729,1037.3
654.255,1034.3
654.78,1031.5
655.306,1025.1
655.832,1027.7
656.358,1025.8
656.884,1023.7
657.409,1019.5
657.935,1018.2
658.461,1015.0
658.986,1006.7
659.512,999.8
660.037,997.1
660.563,986.2
661.088,982.7
661.614,976.7
662.139,972.1
662.664,961.4
663.058,961.5

File: VLFR_02-HDPE_nobio_Raman_2e410ac8.csv
nm,Intensity
526.5,830.6
527.047,828.5
527.594,829.6
528.14,830.0
528.687,829.0
529.233,829.2
529.779,828.1
530.325,827.8
530.871,829.5
531.417,829.9
531.962,836.4
532.508,830.3
533.053,830.1
533.599,828.6
534.144,901.7
534.689,886.8
535.234,879.6
535.778,864.4
536.323,857.1
536.867,856.2
537.412,856.1
537.956,854.2
538.5,849.1
539.044,845.1
539.588,844.3
540.132,842.9
540.675,842.7
541.219,842.8
541.762,841.2
542.305,842.1
542.848,840.2
543.391,838.1
543.934,839.7
544.477,839.9
545.02,838.8
545.562,839.2
546.105,839.9
546.647,838.3
547.189,839.9
547.731,839.2
548.273,837.2
548.815,838.6
549.356,839.5
549.898,838.7
550.439,837.8
550.981,838.3
551.522,839.0
552.063,839.2
552.604,838.8
553.145,839.6
553.686,840.9
554.226,843.4
554.767,843.7
555.307,844.8
555.848,845.6
556.388,846.0
556.928,847.0
557.468,848.6
558.008,853.5
558.547,854.5
559.087,850.7
559.626,849.7
560.166,848.7
560.705,849.2
561.244,849.1
561.783,848.8
562.322,854.1
562.861,856.3
563.4,857.5
563.939,955.5
564.477,884.5
565.015,876.2
565.554,872.0
566.092,1061.5
566.63,875.6
567.168,860.7
567.706,857.4
568.244,852.6
568.781,854.1
569.319,855.4
569.857,856.5
570.394,859.6
570.931,867.1
571.468,1029.1
572.005,885.7
572.542,863.3
573.079,856.3
573.616,858.9
574.153,867.8
574.689,852.7
575.226,869.7
575.762,973.8
576.298,981.7
576.834,935.4
577.371,905.0
577.907,865.8
578.442,864.9
578.978,865.0
579.514,864.2
580.049,863.5
580.585,865.2
581.12,868.4
581.656,866.4
582.191,868.5
582.726,871.0
583.261,874.4
583.796,876.5
584.331,877.1
584.865,882.1
585.4,882.1
585.935,883.3
586.469,886.9
587.004,891.0
587.538,892.4
588.072,891.4
588.606,892.6
589.14,890.0
589.674,894.6
590.208,895.4
590.742,894.7
591.275,893.9
591.809,892.5
592.342,892.9
592.876,893.2
593.409,893.7
593.942,890.5
594.476,889.3
595.009,887.5
595.542,889.8
596.075,885.6
596.607,891.1
597.14,889.2
597.673,887.2
598.205,888.2
598.738,891.8
599.27,888.7
599.803,895.8
600.335,890.8
600.867,891.8
601.399,891.6
601.931,893.3
602.463,888.6
602.995,893.1
603.527,889.8
604.058,893.0
604.59,890.0
605.122,890.3
605.653,888.6
606.184,886.7
606.716,887.9
607.247,887.4
607.778,889.1
608.309,888.0
608.84,889.2
609.371,892.0
609.902,890.1
610.433,888.0
610.964,892.5
611.494,889.6
612.025,886.3
612.556,886.1
613.086,886.6
613.616,885.9
614.147,884.0
614.677,882.2
615.207,883.5
615.737,879.5
616.267,882.3
616.797,882.8
617.327,889.6
617.857,887.5
618.387,885.0
618.917,883.9
619.446,887.0
619.976,888.8
620.505,888.7
621.035,890.0
621.564,898.1
622.093,917.1
622.623,912.1
623.152,890.5
623.681,885.4
624.21,882.5
624.739,881.5
625.268,885.6
625.797,895.5
626.326,915.5
626.855,1112.2
627.383,1516.7
627.912,1243.2
628.441,1380.8
628.969,1318.0
629.498,1215.5
630.026,1112.8
630.554,1094.9
631.083,972.9
631.611,907.3
632.139,890.5
632.667,881.8
633.195,879.9
633.724,877.0
634.252,873.3
634.779,869.9
635.307,871.1
635.835,873.3
636.363,869.4
636.891,870.6
637.418,867.2
637.946,864.9
638.474,865.1
639.001,865.2
639.529,862.6
640.056,865.2
640.583,861.5
641.111,866.6
641.638,864.2
642.165,862.6
642.692,861.2
643.22,862.4
643.747,863.8
644.274,861.1
644.801,860.4
645.328,861.3
645.854,860.2
646.381,858.5
646.908,857.6
647.435,859.3
647.962,858.5
648.488,859.1
649.015,856.5
649.542,859.1
650.068,858.9
650.595,855.8
651.121,854.5
651.648,856.6
652.174,856.8
652.7,856.8
653.227,856.4
653.753,858.3
654.279,857.2
654.805,857.9
655.331,855.1
655.858,855.9
656.384,857.4
656.91,855.5
657.436,852.2
657.962,857.6
658.488,855.2
659.013,853.1
659.539,856.8
660.065,856.2
660.591,855.6
661.117,853.1
661.642,853.8
662.168,852.1
662.694,856.1
663.088,852.2

File: VLFR_02-HDPE_nobio_Raman_3bf535b4.csv
cm-1,Intensity
-123.878,1853.1
-105.821,1852.4
-87.8007,1853.25
-69.8161,1853.2
-51.8675,1853.0
-33.9547,1853.6
-16.0776,1867.4
1.76388,2693.95
19.5698,1855.15
37.3403,1854.6
55.0755,1977.2
72.7754,2354.55
90.4402,2388.45
108.07,2415.9
125.665,2436.2
143.225,2438.25
160.75,2419.6
178.241,2447.0
195.697,2460.45
213.119,2477.0
230.506,2480.85
247.859,2494.8
265.178,2490.5
282.463,2521.35
299.713,2524.75
316.93,2552.05
334.113,2568.25
351.263,2573.9
368.379,2618.95
385.461,2610.5
402.51,2638.75
419.526,2643.7
436.508,2647.5
453.458,2644.05
470.374,2683.6
487.257,2677.75
504.107,2707.15
520.925,2681.15
537.71,2690.05
554.462,2737.75
571.182,2745.5
587.87,2732.2
604.525,2729.75
621.148,2763.0
637.739,2776.85
654.297,2811.05
670.824,2801.75
687.319,2819.75
703.782,2817.25
720.213,2850.3
736.613,2831.15
752.981,2860.8
769.317,2890.15
785.623,2882.4
801.897,2892.3
818.139,2917.8
834.351,2907.05
850.532,2915.7
866.681,2930.2
882.8,2949.05
898.888,2943.05
914.945,2980.2
930.972,2975.75
946.968,2973.65
962.934,3010.75
978.869,3001.75
994.774,3039.85
1010.65,3012.65
1026.49,3046.35
1042.31,3064.65
1058.09,3152.8
1073.85,3086.25
1089.57,3145.65
1105.27,3126.15
1120.93,3140.55
1136.57,3164.75
1152.18,3108.45
1167.75,3109.75
1183.3,3091.85
1198.82,3100.55
1214.31,3132.55
1229.77,3149.95
1245.2,3131.15
1260.6,3153.85
1275.97,3141.7
1291.32,3277.7
1306.63,3231.65
1321.92,3204.15
1337.18,3184.45
1352.41,3170.4
1367.61,3231.95
1382.78,3225.7
1397.93,3214.4
1413.05,3270.95
1428.14,3264.8
1443.2,3335.55
1458.23,3258.55
1473.23,3247.2
1488.21,3216.85
1503.16,3196.45
1518.08,3217.3
1532.97,3244.55
1547.84,3245.45
1562.68,3231.0
1577.49,3267.5
1592.27,3262.5
1607.03,3256.75
1621.76,3229.65
1636.46,3284.65
1651.14,3262.9
1665.78,3262.95
1680.41,3305.65
1695.0,3284.75
1709.57,3294.65
1724.11,3281.05
1738.62,3306.35
1753.11,3289.55
1767.57,3308.45
1782.01,3352.45
1796.41,3316.8
1810.8,3317.5
1825.15,3288.7
1839.48,3319.1
1853.79,3303.4
1868.06,3339.95
1882.31,3340.5
1896.54,3302.7
1910.74,3329.35
1924.91,3318.45
1939.06,3339.65
1953.19,3370.25
1967.28,3319.4
1981.35,3327.7
1995.4,3350.05
2009.42,3368.5
2023.42,3409.15
2037.39,3397.4
2051.33,3416.4
2065.25,3391.05
2079.15,3389.8
2093.01,3385.6
2106.86,3441.15
2120.68,3410.15
2134.47,3438.15
2148.24,3410.2
2161.99,3434.55
2175.71,3432.7
2189.41,3451.05
2203.08,3443.05
2216.73,3395.5
2230.35,3409.9
2243.95,3397.25
2257.52,3429.05
2271.07,3393.15
2284.6,3402.5
2298.1,3390.9
2311.58,3383.8
2325.03,3376.8
2338.46,3372.45
2351.87,3389.45
2365.25,3368.75
2378.61,3354.15
2391.94,3366.95
2405.26,3373.9
2418.54,3358.1
2431.81,3379.25
2445.05,3358.35
2458.27,3377.0
2471.46,3355.65
2484.63,3360.1
2497.78,3332.0
2510.9,3340.25
2524.0,3345.95
2537.08,3326.45
2550.14,3315.4
2563.17,3302.3
2576.18,3290.9
2589.17,3301.4
2602.13,3307.55
2615.07,3287.25
2627.99,3303.55
2640.89,3303.0
2653.76,3316.25
2666.61,3304.35
2679.44,3296.1
2692.25,3310.0
2705.03,3326.95
2717.79,3350.25
2730.53,3328.8
2743.25,3300.05
2755.94,3270.15
2768.61,3242.85
2781.27,3262.75
2793.89,3302.95
2806.5,3276.25
2819.09,3275.45
2831.65,3370.85
2844.19,3880.9
2856.71,3839.5
2869.21,3690.3
2881.69,4083.2
2894.14,3765.05
2906.58,3634.95
2918.99,3491.25
2931.38,3477.4
2943.75,3335.5
2956.1,3281.3
2968.42,3238.3
2980.73,3238.65
2993.01,3185.05
3005.28,3177.1
3017.52,3182.5
3029.74,3119.15
3041.94,3147.95
3054.12,3093.55
3066.28,3127.1
3078.42,3105.15
3090.54,3105.25
3102.63,3090.4
3114.71,3084.5
3126.77,3107.55
3138.8,3063.6
3150.82,3057.75
3162.81,3065.25
3174.78,3057.05
3186.74,3023.05
3198.67,3051.45
3210.58,3026.8
3222.47,3042.9
3234.35,3001.15
3246.2,2993.2
3258.03,3025.65
3269.84,3023.7
3281.64,3000.95
3293.41,3008.55
3305.16,3023.6
3316.89,2970.55
3328.61,2955.2
3340.3,2977.05
3351.97,2972.6
3363.63,2965.3
3375.26,2935.8
3386.88,2908.5
3398.47,2916.0
3410.05,2919.35
3421.6,2897.2
3433.14,2912.2
3444.66,2914.75
3456.15,2858.55
3467.63,2863.15
3479.09,2843.1
3490.53,2839.45
3501.96,2832.65
3513.36,2798.85
3524.74,2805.7
3536.11,2804.05
3547.45,2779.9
3558.78,2753.6
3570.09,2742.5
3581.37,2772.4
3592.64,2713.25
3603.9,2717.55
3615.13,2686.5
3626.34,2678.15
3637.54,2671.2
3648.72,2661.5
3659.87,2658.6
3665.45,2663.7