Folder: MPX_specDB/spectra (part 104)

File: VLFR_07-PET_bio_Raman_b94410af.csv
nm,Intensity
791.588,9640.4
792.685,9226.3
793.781,9005.8
794.878,8980.9
795.975,8851.4
797.071,8827.4
798.168,8795.8
799.264,8734.2
800.36,8743.0
801.456,8713.1
802.552,8722.6
803.648,8630.2
804.744,8508.2
805.84,8555.9
806.936,8528.9
808.031,8445.1
809.127,8467.3
810.222,8345.0
811.317,8295.8
812.412,8389.6
813.507,8258.5
814.602,8169.7
815.697,8086.2
816.792,8019.7
817.887,7993.9
818.981,7921.8
820.076,7906.7
821.17,7789.0
822.265,7741.7
823.359,7680.5
824.453,7575.2
825.547,7672.3
826.641,7523.2
827.735,7471.3
828.828,7377.9
829.922,7355.5
831.016,7413.4
832.109,7256.6
833.202,7185.6
834.295,7184.1
835.388,7065.7
836.481,7093.3
837.574,7075.7
838.667,7089.9
839.76,6996.2
840.852,7096.6
841.945,7135.2
843.037,6940.1
844.129,6908.0
845.221,6730.9
846.314,6729.8
847.405,6640.8
848.497,6646.4
849.589,6583.7
850.68,6531.2
851.772,6540.0
852.863,6491.0
853.955,6506.1
855.046,6480.7
856.137,6409.9
857.228,6370.1
858.318,6465.3
859.409,6431.0
860.5,6456.6
861.59,6292.3
862.681,6257.5
863.771,6226.9
864.861,6232.9
865.951,6147.2
867.041,6133.4
868.131,6072.0
869.22,6118.4
870.31,6098.6
871.399,6237.0
872.488,6234.4
873.578,6184.9
874.667,6083.1
875.756,6003.0
876.845,5950.3
877.933,5881.6
879.022,5817.9
880.11,5818.9
881.199,5770.0
882.287,5803.1
883.375,5781.9
884.463,5726.0
885.551,5755.8
886.639,5727.4
887.726,5629.6
888.814,5576.9
889.901,5609.0
890.988,5570.2
892.075,5532.6
893.162,5476.7
894.249,5470.2
895.336,5408.8
896.423,5418.4
897.509,5577.1
898.595,5752.8
899.682,5516.6
900.768,5312.0
901.854,5257.9
902.94,5209.7
904.025,5229.0
905.111,5190.4
906.196,5290.8
907.282,5363.9
908.367,5347.2
909.452,5226.6
910.537,5068.6
911.622,5001.0
912.706,4970.2
913.791,4937.9
914.875,4925.9
915.959,4869.5
917.044,4832.4
918.128,4827.4
919.211,4799.8
920.295,4772.3
921.379,4742.6
922.462,4704.6
923.546,4695.2
924.629,4652.8
925.712,4632.5
926.795,4622.0
927.877,4579.3
928.96,4541.7
930.043,4546.4
931.125,4492.7
932.207,4479.7
933.289,4449.4
934.371,4442.1
935.453,4420.3
936.535,4407.7
937.616,4363.7
938.697,4347.7
939.779,4322.5
940.86,4322.5
941.941,4289.5
943.022,4280.7
944.102,4254.2
945.183,4246.6
946.263,4235.2
947.343,4210.9
948.423,4201.0
949.503,4188.8
950.583,4157.7
951.663,4161.1
952.742,4137.0
953.822,4133.3
954.901,4101.7
955.98,4113.4
957.059,4101.9
958.137,4086.0
959.216,4068.1
960.294,4066.7
961.373,4052.5
962.451,4038.7
963.529,4024.6
964.607,4025.6
965.684,4017.5
966.762,4010.3
967.839,3994.8
968.917,3985.6
969.994,3978.3
971.071,3971.8
972.147,3967.5
973.224,3958.7
974.3,3960.5
975.377,3938.1
976.453,3930.5
977.529,3928.3
978.605,3923.7
979.68,3919.9
980.756,3916.7
981.831,3906.6
982.907,3897.5
983.982,3893.2
985.057,3885.6
986.131,3891.6
987.206,3879.1
988.28,3878.9
989.355,3875.6
990.429,3869.0
991.503,3863.3
992.576,3856.5
993.65,3855.2
994.723,3842.4
995.797,3847.0
996.87,3846.3
997.943,3843.0
999.016,3833.2
1000.09,3832.1
1001.16,3821.4
1002.23,3825.6
1003.31,3823.0
1004.38,3818.4
1005.45,3816.5
1006.52,3811.5
1007.59,3810.5
1008.66,3809.0
1009.73,3805.5
1010.81,3803.7
1011.88,3799.9
1012.95,3795.2
1014.02,3797.7
1015.09,3796.5
1016.16,3797.2
1017.23,3795.3
1018.3,3786.1
1019.37,3791.8
1020.44,3790.6
1021.51,3787.7
1022.58,3791.4
1023.64,3785.9
1024.71,3784.3
1025.78,3780.3
1026.85,3778.8
1027.92,3774.0
1028.99,3772.1
1030.05,3769.4
1031.12,3770.1
1032.19,3769.7
1033.26,3770.6
1034.32,3768.5
1035.39,3770.2
1036.46,3767.3
1037.52,3766.8
1038.59,3763.9
1039.66,3762.6
1040.72,3759.9
1041.79,3759.7
1042.86,3756.2
1043.92,3756.2
1044.99,3757.0
1046.05,3755.7
1047.12,3754.7
1048.18,3758.1
1049.25,3755.9
1050.31,3755.7
1051.37,3754.7
1052.44,3755.7
1053.5,3755.0
1054.57,3754.3
1055.63,3752.2
1056.69,3752.2
1057.76,3754.7
1058.82,3751.5
1059.88,3752.5
1060.95,3751.4
1062.01,3752.2
1063.07,3751.4
1064.13,3750.6
1065.19,3749.8
1066.26,3751.0
1067.32,3751.7
1068.11,3748.5

File: VLFR_07-PET_bio_Raman_be19cfe9.csv
nm,Intensity
791.75,13896.5
792.846,12975.8
793.942,12479.6
795.037,12413.2
796.133,12287.8
797.228,11917.8
798.324,12154.2
799.419,12062.0
800.514,12128.5
801.61,11925.8
802.705,12006.2
803.8,11794.9
804.894,11623.8
805.989,11656.3
807.084,11500.5
808.178,11316.4
809.273,11097.3
810.367,11040.8
811.461,11015.5
812.556,10991.9
813.65,10938.0
814.744,10691.1
815.837,10374.4
816.931,10329.3
818.025,10313.5
819.118,10292.2
820.212,10144.2
821.305,10176.5
822.398,9948.15
823.491,9876.5
824.585,9817.25
825.677,10040.9
826.77,9505.25
827.863,9507.75
828.956,9479.75
830.048,9390.8
831.14,9169.5
832.233,9075.1
833.325,8975.35
834.417,8897.4
835.509,8800.7
836.601,8961.4
837.692,8880.6
838.784,8829.55
839.876,8832.4
840.967,9140.3
842.058,8675.4
843.149,8655.15
844.24,8411.75
845.331,8205.9
846.422,8138.15
847.513,8039.5
848.604,8011.25
849.694,7883.85
850.784,7890.3
851.875,7846.85
852.965,7929.5
854.055,7856.9
855.145,7714.25
856.235,7662.2
857.324,7613.7
858.414,7782.15
859.503,7810.05
860.593,7708.2
861.682,7488.05
862.771,7445.95
863.86,7456.1
864.949,7415.25
866.038,7318.7
867.126,7183.15
868.215,7223.95
869.303,7217.5
870.391,7334.55
871.479,7462.1
872.567,7676.75
873.655,7481.25
874.743,7148.5
875.831,7042.0
876.918,6965.8
878.006,6854.9
879.093,6833.9
880.18,6847.4
881.267,6765.15
882.354,6753.8
883.441,6719.05
884.527,6599.8
885.614,6712.25
886.7,6569.7
887.786,6448.9
888.872,6440.0
889.958,6361.0
891.044,6424.55
892.13,6301.2
893.216,6207.8
894.301,6134.8
895.386,6139.85
896.472,6259.9
897.557,6794.15
898.642,6875.4
899.726,6082.75
900.811,5898.25
901.896,5833.55
902.98,5812.25
904.064,5814.2
905.148,5833.35
906.232,6111.5
907.316,6385.85
908.4,6158.85
909.484,5756.95
910.567,5541.35
911.65,5486.05
912.734,5394.95
913.817,5403.6
914.9,5327.05
915.982,5266.6
917.065,5295.6
918.147,5210.05
919.23,5224.0
920.312,5166.7
921.394,5071.4
922.476,5081.25
923.558,5016.25
924.639,4986.8
925.721,4948.05
926.802,4883.4
927.884,4920.4
928.965,4848.9
930.046,4785.0
931.126,4744.9
932.207,4740.85
933.288,4707.8
934.368,4661.3
935.448,4640.15
936.528,4595.95
937.608,4589.45
938.688,4561.15
939.767,4538.85
940.847,4496.05
941.926,4482.05
943.005,4456.85
944.084,4415.6
945.163,4407.2
946.242,4395.6
947.321,4373.15
948.399,4351.15
949.477,4322.1
950.556,4306.8
951.634,4266.75
952.711,4284.1
953.789,4258.85
954.867,4227.1
955.944,4209.15
957.021,4196.8
958.098,4185.9
959.175,4168.9
960.252,4148.55
961.328,4147.55
962.405,4131.15
963.481,4111.4
964.557,4107.0
965.633,4102.25
966.709,4077.25
967.785,4062.2
968.86,4054.25
969.936,4056.4
971.011,4033.0
972.086,4008.5
973.161,4015.85
974.235,3996.65
975.31,3983.55
976.384,3981.95
977.459,3985.2
978.533,3956.05
979.607,3956.25
980.68,3939.6
981.754,3938.25
982.827,3942.05
983.901,3924.9
984.974,3922.7
986.047,3913.15
987.119,3905.75
988.192,3891.1
989.264,3895.4
990.337,3883.45
991.409,3869.7
992.481,3870.25
993.553,3859.4
994.624,3855.2
995.696,3857.4
996.767,3846.5
997.838,3837.05
998.909,3836.45
999.98,3825.7
1001.05,3822.9
1002.12,3826.6
1003.19,3822.35
1004.26,3811.65
1005.33,3806.75
1006.4,3804.2
1007.47,3798.15
1008.54,3792.25
1009.61,3786.9
1010.68,3787.05
1011.75,3783.6
1012.82,3779.45
1013.88,3779.4
1014.95,3780.05
1016.02,3776.85
1017.09,3772.85
1018.16,3767.8
1019.22,3769.4
1020.29,3767.1
1021.36,3774.45
1022.43,3773.2
1023.49,3769.2
1024.56,3763.05
1025.63,3757.55
1026.69,3749.25
1027.76,3748.95
1028.83,3742.1
1029.89,3741.25
1030.96,3739.05
1032.02,3738.05
1033.09,3740.0
1034.15,3741.8
1035.22,3746.2
1036.28,3739.45
1037.35,3732.65
1038.41,3728.4
1039.48,3723.15
1040.54,3723.0
1041.6,3722.4
1042.67,3720.35
1043.73,3721.0
1044.79,3718.6
1045.86,3716.8
1046.92,3717.95
1047.98,3716.25
1049.05,3715.9
1050.11,3715.6
1051.17,3715.05
1052.23,3714.2
1053.29,3715.2
1054.36,3712.25
1055.42,3713.3
1056.48,3712.65
1057.54,3712.45
1058.6,3711.35
1059.66,3712.7
1060.72,3711.9
1061.78,3711.2
1062.84,3710.4
1063.9,3711.4
1064.96,3710.45
1066.02,3710.75
1067.08,3709.9
1067.88,3708.2

File: VLFR_07-PET_bio_Raman_c6ef1ae7.csv
nm,Intensity
791.588,10990.0
792.685,10571.5
793.781,10314.3
794.878,10128.0
795.975,10047.9
797.071,10070.7
798.168,10092.5
799.264,10175.9
800.36,10059.5
801.456,10097.0
802.552,9961.9
803.648,9827.7
804.744,9855.0
805.84,9814.0
806.936,9816.6
808.031,9703.0
809.127,9623.0
810.222,9604.5
811.317,9555.7
812.412,9441.3
813.507,9319.5
814.602,9335.1
815.697,9144.6
816.792,8999.6
817.887,9141.6
818.981,8929.8
820.076,8867.0
821.17,8771.3
822.265,8542.0
823.359,8494.8
824.453,8448.2
825.547,8482.4
826.641,8396.9
827.735,8239.8
828.828,8229.1
829.922,8082.5
831.016,8160.4
832.109,8005.8
833.202,7939.1
834.295,7755.5
835.388,7742.1
836.481,7692.0
837.574,7823.8
838.667,7755.1
839.76,7646.0
840.852,7726.2
841.945,7792.3
843.037,7567.5
844.129,7557.4
845.221,7356.0
846.314,7338.4
847.405,7279.0
848.497,7235.1
849.589,7164.2
850.68,7196.4
851.772,7128.8
852.863,7078.5
853.955,7045.8
855.046,6966.9
856.137,6967.6
857.228,6881.8
858.318,6928.7
859.409,6911.2
860.5,6955.0
861.59,6769.8
862.681,6774.4
863.771,6706.5
864.861,6673.0
865.951,6564.8
867.041,6464.4
868.131,6468.7
869.22,6479.1
870.31,6467.9
871.399,6528.4
872.488,6604.2
873.578,6575.4
874.667,6454.0
875.756,6313.8
876.845,6260.0
877.933,6180.2
879.022,6148.3
880.11,6128.8
881.199,6101.2
882.287,6077.8
883.375,6104.1
884.463,6057.7
885.551,6036.0
886.639,5956.6
887.726,5859.0
888.814,5867.5
889.901,5826.9
890.988,5795.9
892.075,5799.4
893.162,5710.7
894.249,5690.6
895.336,5630.3
896.423,5591.4
897.509,5716.8
898.595,5940.9
899.682,5707.1
900.768,5444.4
901.854,5437.1
902.94,5361.9
904.025,5393.9
905.111,5395.6
906.196,5415.9
907.282,5523.7
908.367,5570.1
909.452,5341.7
910.537,5202.1
911.622,5146.8
912.706,5090.3
913.791,5074.2
914.875,4995.1
915.959,5027.0
917.044,4950.2
918.128,4966.6
919.211,4920.8
920.295,4876.5
921.379,4846.1
922.462,4829.2
923.546,4790.7
924.629,4788.5
925.712,4736.6
926.795,4703.6
927.877,4673.9
928.96,4626.8
930.043,4630.9
931.125,4601.8
932.207,4563.3
933.289,4524.4
934.371,4473.7
935.453,4478.5
936.535,4451.7
937.616,4426.4
938.697,4397.4
939.779,4402.3
940.86,4384.3
941.941,4356.7
943.022,4329.1
944.102,4311.9
945.183,4297.1
946.263,4273.0
947.343,4254.3
948.423,4251.1
949.503,4240.1
950.583,4211.3
951.663,4182.0
952.742,4175.6
953.822,4156.0
954.901,4161.4
955.98,4151.6
957.059,4117.0
958.137,4109.1
959.216,4107.8
960.294,4096.8
961.373,4067.1
962.451,4065.5
963.529,4040.2
964.607,4047.2
965.684,4042.5
966.762,4022.9
967.839,4004.4
968.917,4019.5
969.994,3995.6
971.071,3977.6
972.147,3976.7
973.224,3977.9
974.3,3966.0
975.377,3947.0
976.453,3945.8
977.529,3935.8
978.605,3938.8
979.68,3925.9
980.756,3920.6
981.831,3914.4
982.907,3908.3
983.982,3901.5
985.057,3896.0
986.131,3890.5
987.206,3883.1
988.28,3877.9
989.355,3875.8
990.429,3860.8
991.503,3864.8
992.576,3859.4
993.65,3857.5
994.723,3849.0
995.797,3847.6
996.87,3845.1
997.943,3839.4
999.016,3834.0
1000.09,3828.6
1001.16,3826.4
1002.23,3820.7
1003.31,3816.7
1004.38,3819.1
1005.45,3814.2
1006.52,3810.6
1007.59,3803.0
1008.66,3797.2
1009.73,3798.4
1010.81,3792.9
1011.88,3794.0
1012.95,3790.7
1014.02,3793.6
1015.09,3787.3
1016.16,3783.9
1017.23,3778.9
1018.3,3781.7
1019.37,3779.8
1020.44,3778.3
1021.51,3777.7
1022.58,3776.0
1023.64,3775.7
1024.71,3774.2
1025.78,3770.8
1026.85,3766.3
1027.92,3766.1
1028.99,3759.8
1030.05,3760.3
1031.12,3757.0
1032.19,3756.4
1033.26,3758.9
1034.32,3759.9
1035.39,3757.9
1036.46,3752.8
1037.52,3752.6
1038.59,3752.6
1039.66,3750.2
1040.72,3745.3
1041.79,3745.6
1042.86,3747.0
1043.92,3746.3
1044.99,3741.9
1046.05,3742.5
1047.12,3745.0
1048.18,3742.8
1049.25,3743.0
1050.31,3740.9
1051.37,3741.7
1052.44,3741.5
1053.5,3738.3
1054.57,3739.2
1055.63,3741.0
1056.69,3741.7
1057.76,3738.7
1058.82,3738.5
1059.88,3740.0
1060.95,3737.5
1062.01,3738.1
1063.07,3737.0
1064.13,3736.7
1065.19,3738.1
1066.26,3736.4
1067.32,3736.5
1068.11,3734.9

File: VLFR_07-PET_bio_Raman_c171b6ba.csv
nm,Intensity
791.75,5576.65
792.846,5516.85
793.942,5522.05
795.037,5453.35
796.133,5448.45
797.228,5463.1
798.324,5474.75
799.419,5436.05
800.514,5435.15
801.61,5443.75
802.705,5410.7
803.8,5370.75
804.894,5367.6
805.989,5346.65
807.084,5308.6
808.178,5312.55
809.273,5283.0
810.367,5269.45
811.461,5268.1
812.556,5184.8
813.65,5191.6
814.744,5121.0
815.837,5115.5
816.931,5127.05
818.025,5083.9
819.118,5058.7
820.212,5054.3
821.305,5023.1
822.398,4971.25
823.491,4964.75
824.585,4982.2
825.677,4956.0
826.77,4941.1
827.863,4888.4
828.956,4874.65
830.048,4884.75
831.14,4851.35
832.233,4817.45
833.325,4798.75
834.417,4806.3
835.509,4765.85
836.601,4760.25
837.692,4765.5
838.784,4753.7
839.876,4747.15
840.967,4744.1
842.058,4730.5
843.149,4687.35
844.24,4669.8
845.331,4658.4
846.422,4633.65
847.513,4614.6
848.604,4604.75
849.694,4588.1
850.784,4586.15
851.875,4659.0
852.965,4610.75
854.055,4532.85
855.145,4529.5
856.235,4513.85
857.324,4528.65
858.414,4524.45
859.503,4532.3
860.593,4493.45
861.682,4502.7
862.771,4483.95
863.86,4473.2
864.949,4466.05
866.038,4448.85
867.126,4420.95
868.215,4425.45
869.303,4419.85
870.391,4422.1
871.479,4418.9
872.567,4453.95
873.655,4427.95
874.743,4414.2
875.831,4371.9
876.918,4377.0
878.006,4359.45
879.093,4353.5
880.18,4340.05
881.267,4327.0
882.354,4335.0
883.441,4330.45
884.527,4306.85
885.614,4303.05
886.7,4296.7
887.786,4276.95
888.872,4266.15
889.958,4266.0
891.044,4259.7
892.13,4251.4
893.216,4234.55
894.301,4196.15
895.386,4195.8
896.472,4189.3
897.557,4194.6
898.642,4212.2
899.726,4168.0
900.811,4132.1
901.896,4120.3
902.98,4125.8
904.064,4127.25
905.148,4123.65
906.232,4122.0
907.316,4119.0
908.4,4114.2
909.484,4090.4
910.567,4065.75
911.65,4051.15
912.734,4043.05
913.817,4043.7
914.9,4028.8
915.982,4014.95
917.065,4013.4
918.147,4007.1
919.23,4010.95
920.312,4001.95
921.394,3986.45
922.476,3983.85
923.558,3976.5
924.639,3960.35
925.721,3963.35
926.802,3961.3
927.884,3939.85
928.965,3928.75
930.046,3922.15
931.126,3913.95
932.207,3907.25
933.288,3899.8
934.368,3897.65
935.448,3895.2
936.528,3886.75
937.608,3883.65
938.688,3879.25
939.767,3877.55
940.847,3874.05
941.926,3866.3
943.005,3861.85
944.084,3858.7
945.163,3850.95
946.242,3854.2
947.321,3845.55
948.399,3843.85
949.477,3838.2
950.556,3837.75
951.634,3837.1
952.711,3831.95
953.789,3827.75
954.867,3822.45
955.944,3825.65
957.021,3815.5
958.098,3820.35
959.175,3812.15
960.252,3811.6
961.328,3811.05
962.405,3807.45
963.481,3807.9
964.557,3805.1
965.633,3802.65
966.709,3799.85
967.785,3800.95
968.86,3801.55
969.936,3798.25
971.011,3797.4
972.086,3792.0
973.161,3788.6
974.235,3789.45
975.31,3788.25
976.384,3787.45
977.459,3785.45
978.533,3784.15
979.607,3785.55
980.68,3782.5
981.754,3779.65
982.827,3779.0
983.901,3778.6
984.974,3778.35
986.047,3776.7
987.119,3774.8
988.192,3776.05
989.264,3774.5
990.337,3772.35
991.409,3772.5
992.481,3770.6
993.553,3770.1
994.624,3767.7
995.696,3770.1
996.767,3769.25
997.838,3766.45
998.909,3765.15
999.98,3763.15
1001.05,3762.95
1002.12,3763.65
1003.19,3761.5
1004.26,3761.25
1005.33,3756.85
1006.4,3758.25
1007.47,3756.15
1008.54,3756.2
1009.61,3755.9
1010.68,3756.4
1011.75,3755.35
1012.82,3753.95
1013.88,3754.45
1014.95,3753.4
1016.02,3752.25
1017.09,3750.45
1018.16,3751.7
1019.22,3752.6
1020.29,3749.55
1021.36,3749.55
1022.43,3750.65
1023.49,3749.65
1024.56,3749.1
1025.63,3748.1
1026.69,3747.15
1027.76,3747.55
1028.83,3745.3
1029.89,3744.75
1030.96,3747.15
1032.02,3744.45
1033.09,3744.85
1034.15,3744.5
1035.22,3744.7
1036.28,3743.9
1037.35,3742.45
1038.41,3743.5
1039.48,3743.7
1040.54,3744.65
1041.6,3743.6
1042.67,3741.65
1043.73,3743.55
1044.79,3741.5
1045.86,3741.05
1046.92,3741.45
1047.98,3741.35
1049.05,3741.6
1050.11,3740.05
1051.17,3740.4
1052.23,3742.15
1053.29,3741.65
1054.36,3740.6
1055.42,3741.4
1056.48,3739.15
1057.54,3740.15
1058.6,3739.55
1059.66,3741.5
1060.72,3739.65
1061.78,3739.1
1062.84,3739.8
1063.9,3739.8
1064.96,3740.2
1066.02,3738.4
1067.08,3740.65
1067.88,3738.8

File: VLFR_07-PET_bio_Raman_ca415bf0.csv
nm,Intensity
791.588,8999.7
792.685,8455.7
793.781,8201.9
794.878,8056.1
795.975,8027.5
797.071,8073.6
798.168,8111.0
799.264,8141.9
800.36,7977.2
801.456,7949.6
802.552,7992.5
803.648,7925.5
804.744,7815.4
805.84,7796.7
806.936,7690.9
808.031,7671.3
809.127,7639.8
810.222,7625.5
811.317,7571.7
812.412,7488.4
813.507,7391.2
814.602,7355.9
815.697,7253.1
816.792,7278.2
817.887,7213.7
818.981,7148.7
820.076,7081.6
821.17,7128.8
822.265,6958.6
823.359,6934.8
824.453,6920.6
825.547,6927.4
826.641,6880.5
827.735,6822.8
828.828,6765.0
829.922,6732.6
831.016,6731.0
832.109,6616.3
833.202,6617.2
834.295,6579.9
835.388,6497.5
836.481,6498.0
837.574,6515.8
838.667,6430.1
839.76,6435.9
840.852,6525.3
841.945,6540.0
843.037,6331.5
844.129,6293.4
845.221,6180.7
846.314,6113.2
847.405,6116.8
848.497,6080.0
849.589,6052.3
850.68,6010.8
851.772,5987.3
852.863,5989.1
853.955,5924.3
855.046,5895.7
856.137,5855.6
857.228,5894.2
858.318,5862.6
859.409,5914.1
860.5,5936.8
861.59,5794.4
862.681,5775.8
863.771,5772.7
864.861,5708.6
865.951,5715.7
867.041,5619.5
868.131,5621.6
869.22,5619.0
870.31,5603.7
871.399,5743.8
872.488,5751.4
873.578,5787.7
874.667,5656.3
875.756,5546.8
876.845,5477.9
877.933,5466.0
879.022,5456.3
880.11,5426.9
881.199,5403.9
882.287,5397.8
883.375,5374.6
884.463,5338.2
885.551,5356.6
886.639,5288.4
887.726,5263.1
888.814,5236.0
889.901,5196.0
890.988,5210.9
892.075,5164.8
893.162,5123.9
894.249,5077.0
895.336,5057.8
896.423,5031.6
897.509,5196.4
898.595,5365.1
899.682,5190.7
900.768,4982.4
901.854,4919.5
902.94,4865.2
904.025,4875.0
905.111,4887.7
906.196,4954.5
907.282,5037.5
908.367,5085.9
909.452,4861.5
910.537,4712.0
911.622,4715.1
912.706,4672.7
913.791,4628.3
914.875,4604.5
915.959,4589.8
917.044,4549.7
918.128,4567.3
919.211,4533.7
920.295,4532.2
921.379,4511.1
922.462,4448.5
923.546,4449.2
924.629,4422.5
925.712,4408.6
926.795,4388.3
927.877,4350.9
928.96,4340.5
930.043,4313.2
931.125,4296.8
932.207,4283.3
933.289,4253.3
934.371,4244.1
935.453,4233.9
936.535,4209.2
937.616,4190.1
938.697,4179.1
939.779,4167.7
940.86,4162.9
941.941,4133.2
943.022,4126.4
944.102,4111.7
945.183,4107.9
946.263,4094.0
947.343,4086.6
948.423,4085.1
949.503,4070.4
950.583,4050.1
951.663,4044.1
952.742,4034.8
953.822,4025.4
954.901,4010.6
955.98,3999.1
957.059,3995.5
958.137,3987.6
959.216,3975.4
960.294,3974.9
961.373,3962.2
962.451,3958.8
963.529,3958.5
964.607,3944.9
965.684,3946.2
966.762,3934.9
967.839,3927.5
968.917,3924.5
969.994,3914.7
971.071,3910.7
972.147,3903.6
973.224,3909.6
974.3,3889.5
975.377,3889.4
976.453,3885.6
977.529,3877.0
978.605,3880.0
979.68,3865.9
980.756,3873.0
981.831,3862.3
982.907,3858.1
983.982,3856.2
985.057,3851.7
986.131,3846.4
987.206,3844.3
988.28,3843.8
989.355,3842.0
990.429,3832.0
991.503,3831.9
992.576,3822.5
993.65,3821.7
994.723,3818.2
995.797,3817.4
996.87,3811.6
997.943,3811.3
999.016,3807.4
1000.09,3808.8
1001.16,3800.7
1002.23,3801.5
1003.31,3797.2
1004.38,3790.4
1005.45,3797.0
1006.52,3790.3
1007.59,3786.7
1008.66,3784.1
1009.73,3781.4
1010.81,3781.4
1011.88,3779.5
1012.95,3775.8
1014.02,3778.7
1015.09,3780.9
1016.16,3769.9
1017.23,3773.8
1018.3,3770.1
1019.37,3771.6
1020.44,3770.0
1021.51,3771.3
1022.58,3772.8
1023.64,3767.6
1024.71,3767.1
1025.78,3764.5
1026.85,3761.4
1027.92,3758.4
1028.99,3755.5
1030.05,3757.7
1031.12,3755.0
1032.19,3754.9
1033.26,3754.1
1034.32,3756.1
1035.39,3756.0
1036.46,3755.0
1037.52,3753.2
1038.59,3747.3
1039.66,3749.4
1040.72,3748.3
1041.79,3749.1
1042.86,3746.2
1043.92,3748.1
1044.99,3746.5
1046.05,3744.1
1047.12,3742.9
1048.18,3744.8
1049.25,3744.4
1050.31,3744.5
1051.37,3744.1
1052.44,3742.3
1053.5,3742.3
1054.57,3742.9
1055.63,3742.7
1056.69,3743.0
1057.76,3740.3
1058.82,3741.1
1059.88,3743.7
1060.95,3741.0
1062.01,3743.0
1063.07,3742.7
1064.13,3739.6
1065.19,3742.5
1066.26,3739.6
1067.32,3741.6
1068.11,3739.5

File: VLFR_07-PET_bio_Raman_ca50244d.csv
nm,Intensity
791.377,8035.34
792.477,7706.6
793.576,7366.56
794.676,7307.44
795.775,7132.02
796.874,7187.34
797.973,7165.36
799.072,7130.4
800.171,7096.84
801.27,7117.56
802.368,7106.3
803.467,7058.62
804.565,6975.22
805.664,6894.2
806.762,6907.7
807.86,6827.12
808.958,6757.26
810.056,6720.4
811.153,6694.06
812.251,6655.44
813.349,6608.96
814.446,6530.76
815.543,6439.52
816.64,6392.86
817.737,6392.84
818.834,6335.26
819.931,6284.72
821.028,6236.78
822.125,6195.94
823.221,6156.92
824.317,6074.26
825.414,6092.72
826.51,6069.16
827.606,5975.24
828.702,5933.98
829.797,5938.92
830.893,5935.3
831.988,5817.66
833.084,5829.64
834.179,5788.98
835.274,5765.92
836.369,5703.04
837.464,5747.84
838.559,5731.46
839.654,5690.06
840.748,5675.42
841.843,5769.06
842.937,5629.44
844.031,5639.86
845.125,5563.46
846.219,5452.88
847.313,5462.5
848.407,5416.54
849.5,5397.36
850.593,5374.98
851.687,5400.44
852.78,5407.2
853.873,5349.58
854.966,5293.02
856.059,5276.4
857.151,5232.9
858.244,5243.82
859.336,5288.6
860.428,5319.04
861.52,5242.42
862.612,5163.18
863.704,5149.48
864.796,5150.42
865.888,5114.18
866.979,5075.9
868.07,5086.38
869.162,5069.48
870.253,5062.7
871.344,5100.44
872.434,5149.36
873.525,5163.84
874.615,5073.36
875.706,5016.76
876.796,4993.9
877.886,4969.36
878.976,4941.34
880.066,4944.76
881.156,4910.94
882.245,4908.02
883.335,4925.06
884.424,4902.1
885.513,4878.72
886.602,4867.06
887.691,4828.34
888.78,4810.94
889.868,4784.14
890.957,4780.7
892.045,4766.88
893.133,4761.08
894.221,4722.5
895.309,4704.92
896.397,4712.16
897.484,4736.62
898.571,4979.44
899.659,4821.78
900.746,4625.56
901.833,4611.74
902.92,4599.9
904.006,4581.06
905.093,4583.42
906.179,4599.54
907.266,4689.42
908.352,4748.18
909.438,4609.1
910.523,4513.02
911.609,4471.02
912.695,4431.34
913.78,4424.58
914.865,4403.86
915.95,4380.02
917.035,4380.1
918.12,4363.24
919.204,4360.66
920.289,4329.0
921.373,4299.58
922.457,4304.42
923.541,4275.64
924.625,4277.16
925.709,4264.32
926.792,4234.84
927.876,4230.0
928.959,4202.66
930.042,4194.6
931.125,4175.74
932.208,4177.26
933.29,4157.84
934.373,4146.86
935.455,4127.16
936.537,4119.72
937.619,4105.9
938.701,4093.7
939.782,4086.4
940.864,4080.58
941.945,4071.12
943.026,4053.22
944.107,4043.06
945.188,4034.5
946.269,4034.82
947.349,4018.58
948.43,4019.86
949.51,4001.34
950.59,3999.84
951.67,3993.98
952.75,3979.04
953.829,3973.66
954.909,3969.98
955.988,3965.04
957.067,3960.68
958.146,3946.84
959.224,3945.52
960.303,3938.6
961.381,3932.72
962.459,3926.5
963.537,3929.62
964.615,3918.16
965.693,3912.64
966.771,3906.34
967.848,3906.78
968.925,3898.22
970.002,3895.2
971.079,3892.94
972.156,3891.18
973.232,3884.48
974.309,3884.52
975.385,3878.38
976.461,3874.18
977.537,3873.3
978.612,3867.36
979.688,3865.24
980.763,3862.98
981.838,3863.3
982.913,3858.78
983.988,3853.76
985.063,3853.26
986.137,3850.08
987.211,3847.56
988.285,3844.7
989.359,3844.38
990.433,3843.32
991.506,3838.44
992.58,3835.48
993.653,3835.5
994.726,3830.38
995.799,3831.46
996.872,3827.46
997.944,3826.84
999.016,3824.62
1000.09,3822.5
1001.16,3820.64
1002.23,3821.72
1003.3,3817.9
1004.38,3815.04
1005.45,3813.44
1006.52,3811.66
1007.59,3811.64
1008.66,3808.64
1009.73,3806.54
1010.8,3808.96
1011.87,3807.06
1012.94,3805.06
1014.01,3805.1
1015.08,3803.92
1016.15,3804.0
1017.22,3801.8
1018.29,3800.48
1019.36,3800.44
1020.42,3800.26
1021.49,3801.0
1022.56,3801.2
1023.63,3799.24
1024.7,3797.76
1025.76,3798.1
1026.83,3796.52
1027.9,3794.26
1028.97,3791.92
1030.03,3789.8
1031.1,3789.74
1032.17,3790.04
1033.23,3790.48
1034.3,3789.72
1035.36,3790.58
1036.43,3791.02
1037.5,3789.24
1038.56,3787.0
1039.63,3787.88
1040.69,3786.84
1041.76,3785.58
1042.82,3786.02
1043.89,3784.1
1044.95,3783.66
1046.01,3783.6
1047.08,3784.4
1048.14,3783.12
1049.2,3783.54
1050.27,3782.72
1051.33,3782.32
1052.39,3782.34
1053.46,3782.44
1054.52,3781.74
1055.58,3782.58
1056.64,3781.98
1057.7,3781.22
1058.77,3781.2
1059.83,3781.84
1060.89,3782.1
1061.95,3781.36
1063.01,3781.28
1064.07,3781.22
1065.13,3782.08
1066.19,3780.52
1067.25,3781.48
1068.05,3780.14