Folder: MPX_specDB/spectra (part 25)

File: VLFR_01-LDPE_nobio_Raman_9832ba7c.csv
nm,Intensity
526.486,829.1
527.033,828.8
527.579,829.1
528.126,828.2
528.672,828.2
529.219,829.1
529.765,828.3
530.311,828.3
530.857,828.6
531.403,828.4
531.948,829.4
532.494,830.6
533.039,829.9
533.585,829.3
534.13,866.3
534.675,866.0
535.22,857.6
535.764,854.3
536.309,852.5
536.854,851.1
537.398,849.3
537.942,851.7
538.486,847.9
539.03,849.4
539.574,846.4
540.118,845.9
540.662,843.6
541.205,843.6
541.749,844.0
542.292,845.1
542.835,844.9
543.378,845.4
543.921,844.6
544.464,844.6
545.006,844.4
545.549,843.6
546.091,841.5
546.634,841.9
547.176,843.6
547.718,843.3
548.26,840.2
548.802,842.0
549.343,842.5
549.885,841.7
550.426,841.5
550.968,843.6
551.509,840.3
552.05,841.9
552.591,842.8
553.132,844.6
553.673,843.9
554.214,843.7
554.754,842.0
555.295,842.5
555.835,844.6
556.375,843.3
556.915,846.0
557.455,848.3
557.995,847.7
558.535,846.5
559.075,845.3
559.614,845.7
560.154,843.9
560.693,843.6
561.232,845.2
561.772,844.8
562.311,844.7
562.85,849.6
563.388,849.0
563.927,867.0
564.466,858.0
565.004,853.8
565.543,853.2
566.081,874.0
566.619,854.0
567.157,851.7
567.695,852.8
568.233,849.0
568.771,848.5
569.309,847.7
569.846,852.5
570.384,851.8
570.921,851.7
571.458,880.7
571.995,868.4
572.532,856.2
573.069,853.9
573.606,851.8
574.143,854.1
574.68,850.5
575.216,851.0
575.753,870.8
576.289,904.9
576.825,885.9
577.361,872.9
577.897,854.2
578.433,852.8
578.969,855.2
579.505,854.7
580.041,856.0
580.576,853.8
581.112,854.3
581.647,855.7
582.183,856.6
582.718,859.3
583.253,855.4
583.788,859.8
584.323,862.5
584.858,866.0
585.392,867.5
585.927,870.6
586.462,872.7
586.996,878.8
587.53,881.2
588.065,882.3
588.599,888.9
589.133,892.6
589.667,893.8
590.201,897.8
590.735,900.9
591.268,908.3
591.802,910.2
592.335,912.8
592.869,908.3
593.402,909.0
593.936,911.6
594.469,913.7
595.002,911.3
595.535,914.7
596.068,913.3
596.601,915.4
597.133,919.7
597.666,916.7
598.199,917.8
598.731,918.9
599.264,921.5
599.796,922.7
600.328,918.8
600.86,920.7
601.393,919.3
601.925,920.2
602.457,916.8
602.988,919.1
603.52,914.3
604.052,910.1
604.583,906.7
605.115,903.5
605.646,904.2
606.178,895.6
606.709,895.9
607.24,894.3
607.771,894.2
608.302,889.8
608.833,888.1
609.364,886.9
609.895,884.5
610.426,886.0
610.957,881.0
611.487,885.1
612.018,880.0
612.548,882.3
613.078,882.7
613.609,879.5
614.139,875.8
614.669,874.6
615.199,879.6
615.729,873.8
616.259,873.7
616.789,876.7
617.319,875.2
617.849,874.9
618.378,874.2
618.908,872.3
619.437,874.2
619.967,876.2
620.496,875.0
621.025,876.4
621.555,875.8
622.084,886.6
622.613,886.2
623.142,874.2
623.671,870.7
624.2,871.1
624.729,869.2
625.258,872.5
625.786,872.7
626.315,886.6
626.844,970.1
627.372,1186.9
627.901,1063.5
628.429,1138.1
628.957,1099.7
629.486,1051.1
630.014,1001.7
630.542,990.5
631.07,933.6
631.598,891.0
632.126,879.5
632.654,871.7
633.182,867.6
633.71,867.9
634.237,865.5
634.765,865.7
635.293,864.4
635.82,865.2
636.348,864.0
636.875,864.8
637.403,863.5
637.93,864.8
638.458,865.3
638.985,865.0
639.512,866.0
640.039,866.3
640.566,869.1
641.093,869.2
641.62,870.8
642.147,869.1
642.674,871.3
643.201,868.3
643.728,872.6
644.255,868.9
644.781,874.1
645.308,872.7
645.835,870.7
646.361,870.9
646.888,872.8
647.414,871.8
647.941,869.9
648.467,872.8
648.993,871.2
649.52,868.5
650.046,871.6
650.572,870.1
651.098,870.1
651.625,871.3
652.151,869.0
652.677,869.4
653.203,871.4
653.729,866.4
654.255,868.6
654.78,868.0
655.306,871.1
655.832,869.7
656.358,868.5
656.884,867.7
657.409,867.5
657.935,866.1
658.461,863.7
658.986,865.8
659.512,862.0
660.037,863.4
660.563,859.7
661.088,858.6
661.614,860.7
662.139,859.1
662.664,857.9
663.058,853.5

File: VLFR_01-LDPE_nobio_Raman_23469f09.csv
nm,Intensity
526.486,831.1
527.033,829.4
527.579,830.6
528.126,830.8
528.672,828.8
529.219,830.0
529.765,829.8
530.311,830.1
530.857,829.9
531.403,831.2
531.948,835.6
532.494,832.7
533.039,830.3
533.585,830.6
534.13,917.9
534.675,903.9
535.22,889.2
535.764,872.2
536.309,865.5
536.854,861.1
537.398,858.1
537.942,858.7
538.486,854.6
539.03,853.8
539.574,847.6
540.118,848.9
540.662,846.6
541.205,849.2
541.749,846.5
542.292,846.6
542.835,844.8
543.378,844.6
543.921,846.3
544.464,842.8
545.006,844.1
545.549,841.2
546.091,843.4
546.634,844.2
547.176,843.9
547.718,842.4
548.26,842.0
548.802,842.2
549.343,841.4
549.885,840.6
550.426,843.7
550.968,840.2
551.509,841.2
552.05,841.0
552.591,842.6
553.132,842.5
553.673,844.3
554.214,845.8
554.754,847.4
555.295,844.9
555.835,848.3
556.375,849.6
556.915,851.6
557.455,855.5
557.995,853.6
558.535,857.1
559.075,853.5
559.614,853.4
560.154,850.8
560.693,850.4
561.232,849.7
561.772,850.6
562.311,854.2
562.85,858.0
563.388,863.7
563.927,914.1
564.466,885.5
565.004,874.7
565.543,866.9
566.081,922.5
566.619,872.2
567.157,865.0
567.695,871.5
568.233,858.7
568.771,859.5
569.309,857.9
569.846,862.8
570.384,866.0
570.921,875.6
571.458,961.6
571.995,913.1
572.532,883.2
573.069,873.4
573.606,874.8
574.143,886.8
574.68,873.1
575.216,880.5
575.753,926.4
576.289,1042.9
576.825,987.5
577.361,955.6
577.897,908.4
578.433,905.7
578.969,909.9
579.505,914.5
580.041,917.9
580.576,925.1
581.112,931.6
581.647,939.7
582.183,943.5
582.718,947.8
583.253,953.9
583.788,955.9
584.323,967.3
584.858,973.4
585.392,972.9
585.927,982.6
586.462,989.0
586.996,1002.3
587.53,1012.1
588.065,1006.6
588.599,1024.6
589.133,1026.0
589.667,1036.3
590.201,1038.9
590.735,1047.1
591.268,1054.0
591.802,1057.3
592.335,1058.5
592.869,1064.3
593.402,1064.4
593.936,1065.5
594.469,1066.1
595.002,1076.2
595.535,1085.2
596.068,1086.3
596.601,1092.4
597.133,1102.1
597.666,1114.2
598.199,1118.6
598.731,1132.8
599.264,1139.0
599.796,1145.3
600.328,1143.2
600.86,1136.2
601.393,1137.7
601.925,1132.7
602.457,1133.0
602.988,1133.5
603.52,1118.3
604.052,1106.6
604.583,1099.4
605.115,1084.5
605.646,1072.4
606.178,1064.8
606.709,1052.9
607.24,1044.7
607.771,1033.3
608.302,1029.1
608.833,1024.5
609.364,1013.6
609.895,1006.5
610.426,1005.0
610.957,1000.0
611.487,999.7
612.018,1000.4
612.548,996.4
613.078,993.8
613.609,989.3
614.139,983.4
614.669,980.6
615.199,975.6
615.729,974.4
616.259,970.9
616.789,971.9
617.319,976.8
617.849,974.3
618.378,971.4
618.908,968.7
619.437,975.9
619.967,975.7
620.496,965.2
621.025,972.3
621.555,980.9
622.084,1011.1
622.613,1010.6
623.142,973.5
623.671,960.9
624.2,963.9
624.729,958.1
625.258,967.9
625.786,968.5
626.315,1003.5
626.844,1255.2
627.372,1825.9
627.901,1481.9
628.429,1692.0
628.957,1535.3
629.486,1402.6
630.014,1276.7
630.542,1251.1
631.07,1105.5
631.598,1010.6
632.126,982.9
632.654,966.5
633.182,958.8
633.71,954.8
634.237,954.4
634.765,953.8
635.293,949.4
635.82,948.0
636.348,949.4
636.875,947.8
637.403,950.8
637.93,948.1
638.458,942.6
638.985,946.9
639.512,949.2
640.039,948.9
640.566,950.8
641.093,952.8
641.62,948.5
642.147,951.7
642.674,951.1
643.201,955.5
643.728,956.8
644.255,950.8
644.781,952.1
645.308,955.6
645.835,953.8
646.361,956.1
646.888,953.9
647.414,954.0
647.941,954.9
648.467,960.2
648.993,955.1
649.52,954.9
650.046,952.3
650.572,959.6
651.098,958.0
651.625,961.4
652.151,958.6
652.677,962.3
653.203,959.5
653.729,966.3
654.255,963.6
654.78,962.2
655.306,958.5
655.832,960.5
656.358,954.9
656.884,955.8
657.409,951.9
657.935,950.4
658.461,950.9
658.986,946.8
659.512,943.6
660.037,940.8
660.563,933.7
661.088,932.3
661.614,928.2
662.139,921.0
662.664,922.9
663.058,913.7

File: VLFR_01-LDPE_nobio_Raman_145599eb.csv
nm,Intensity
526.532,833.4
527.079,832.95
527.625,832.9
528.172,833.55
528.718,834.1
529.265,833.4
529.811,833.8
530.357,832.95
530.903,833.55
531.449,833.3
531.994,839.85
532.54,834.2
533.085,833.85
533.63,833.7
534.176,875.05
534.721,869.05
535.266,860.35
535.81,855.15
536.355,851.5
536.9,849.45
537.444,847.7
537.988,847.85
538.533,846.5
539.077,845.45
539.621,845.5
540.165,845.35
540.708,843.65
541.252,843.6
541.795,842.05
542.339,842.5
542.882,843.25
543.425,843.25
543.968,842.95
544.511,842.3
545.054,841.75
545.597,841.75
546.139,841.65
546.682,843.2
547.224,841.95
547.766,840.35
548.308,842.05
548.85,842.5
549.392,841.4
549.934,842.55
550.475,841.45
551.017,839.55
551.558,841.95
552.1,841.25
552.641,841.4
553.182,842.55
553.723,843.05
554.264,842.6
554.804,843.7
555.345,846.25
555.885,845.35
556.426,844.95
556.966,847.3
557.506,847.85
558.046,847.8
558.586,847.6
559.126,847.7
559.665,848.35
560.205,846.75
560.745,845.85
561.284,845.05
561.823,846.9
562.362,848.6
562.901,849.05
563.44,852.6
563.979,882.55
564.518,859.5
565.056,856.2
565.595,853.7
566.133,880.55
566.671,854.25
567.21,853.8
567.748,855.25
568.285,850.8
568.823,851.25
569.361,853.35
569.899,852.55
570.436,856.95
570.974,858.05
571.511,914.5
572.048,872.2
572.585,861.75
573.122,858.7
573.659,860.25
574.196,862.05
574.733,860.65
575.269,864.65
575.806,877.8
576.342,934.15
576.878,909.0
577.414,889.5
577.951,876.1
578.486,873.6
579.022,876.35
579.558,876.55
580.094,879.35
580.629,882.75
581.165,883.7
581.7,886.2
582.236,889.95
582.771,894.1
583.306,902.25
583.841,905.75
584.376,907.45
584.911,916.9
585.445,920.6
585.98,924.75
586.514,933.2
587.049,942.9
587.583,953.55
588.117,954.6
588.651,962.7
589.186,968.95
589.72,979.35
590.253,985.15
590.787,997.4
591.321,1001.8
591.854,1009.15
592.388,1013.5
592.921,1018.35
593.455,1022.5
593.988,1030.25
594.521,1038.9
595.054,1049.8
595.587,1053.6
596.12,1064.0
596.653,1075.6
597.186,1085.95
597.718,1088.05
598.251,1107.6
598.783,1115.4
599.316,1127.05
599.848,1128.0
600.38,1129.8
600.912,1125.9
601.444,1128.25
601.976,1126.35
602.508,1120.0
603.04,1110.8
603.572,1106.2
604.103,1094.65
604.635,1082.05
605.167,1066.8
605.698,1050.1
606.229,1040.2
606.761,1030.45
607.292,1022.2
607.823,1017.9
608.354,1008.95
608.885,1004.1
609.416,998.45
609.947,994.95
610.477,988.2
611.008,984.45
611.539,977.05
612.069,975.15
612.6,977.9
613.13,974.3
613.66,969.95
614.19,966.65
614.721,962.7
615.251,959.1
615.781,955.5
616.311,955.95
616.841,950.45
617.37,951.85
617.9,953.3
618.43,949.6
618.96,948.3
619.489,945.35
620.019,945.05
620.548,941.2
621.077,941.75
621.607,947.4
622.136,960.7
622.665,954.55
623.194,942.35
623.723,935.7
624.252,935.3
624.781,930.95
625.31,931.9
625.839,937.4
626.368,950.3
626.896,1099.25
627.425,1281.95
627.953,1142.35
628.482,1294.3
629.01,1159.55
629.539,1103.0
630.067,1052.75
630.596,1041.35
631.124,974.25
631.652,942.75
632.18,933.15
632.708,926.05
633.236,925.2
633.764,924.15
634.292,923.85
634.82,922.6
635.348,921.65
635.876,923.2
636.403,924.5
636.931,925.15
637.459,922.75
637.986,927.0
638.514,927.65
639.041,929.3
639.568,931.55
640.096,931.9
640.623,935.5
641.15,935.6
641.678,939.65
642.205,939.65
642.732,941.65
643.259,944.7
643.786,943.2
644.313,942.3
644.84,942.3
645.367,943.4
645.894,945.15
646.421,946.75
646.948,948.8
647.474,947.55
648.001,947.3
648.528,952.2
649.054,950.45
649.581,950.3
650.108,952.5
650.634,954.55
651.161,954.9
651.687,958.15
652.214,957.75
652.74,954.2
653.266,958.6
653.793,957.85
654.319,957.85
654.845,960.35
655.371,956.65
655.897,954.4
656.424,950.5
656.95,949.15
657.476,948.4
658.002,945.35
658.528,945.0
659.054,937.85
659.58,941.0
660.106,933.9
660.631,930.55
661.157,926.65
661.683,921.3
662.209,919.85
662.735,915.25
663.129,914.65

File: VLFR_01-LDPE_nobio_Raman_295679de.csv
nm,Intensity
526.486,831.5
527.033,831.9
527.579,830.1
528.126,829.9
528.672,830.4
529.219,830.1
529.765,830.3
530.311,829.0
530.857,830.7
531.403,830.0
531.948,833.0
532.494,832.5
533.039,831.0
533.585,830.7
534.13,928.2
534.675,917.8
535.22,898.7
535.764,882.0
536.309,872.4
536.854,869.8
537.398,866.1
537.942,865.6
538.486,864.2
539.03,859.3
539.574,858.3
540.118,858.8
540.662,852.7
541.205,852.2
541.749,852.3
542.292,853.0
542.835,851.1
543.378,852.2
543.921,852.6
544.464,851.6
545.006,850.5
545.549,848.5
546.091,850.1
546.634,848.3
547.176,848.1
547.718,848.4
548.26,847.3
548.802,846.9
549.343,847.0
549.885,846.4
550.426,846.3
550.968,846.9
551.509,848.4
552.05,845.3
552.591,847.4
553.132,847.6
553.673,849.5
554.214,851.3
554.754,852.5
555.295,852.4
555.835,854.2
556.375,855.8
556.915,857.5
557.455,862.1
557.995,863.5
558.535,862.2
559.075,861.4
559.614,858.9
560.154,856.4
560.693,858.4
561.232,859.1
561.772,860.3
562.311,861.9
562.85,868.0
563.388,869.6
563.927,927.1
564.466,896.7
565.004,886.1
565.543,877.2
566.081,934.4
566.619,888.1
567.157,877.8
567.695,882.9
568.233,872.7
568.771,873.8
569.309,873.0
569.846,878.6
570.384,883.3
570.921,896.2
571.458,987.7
571.995,935.2
572.532,905.5
573.069,902.0
573.606,905.7
574.143,918.3
574.68,910.0
575.216,919.9
575.753,972.0
576.289,1102.4
576.825,1051.9
577.361,1023.5
577.897,982.2
578.433,992.3
578.969,1005.9
579.505,1028.7
580.041,1041.1
580.576,1066.1
581.112,1087.4
581.647,1110.5
582.183,1121.7
582.718,1149.7
583.253,1160.3
583.788,1173.4
584.323,1187.8
584.858,1192.5
585.392,1199.9
585.927,1205.0
586.462,1200.6
586.996,1207.7
587.53,1210.6
588.065,1204.9
588.599,1209.4
589.133,1205.4
589.667,1212.9
590.201,1218.5
590.735,1224.1
591.268,1235.6
591.802,1238.7
592.335,1251.8
592.869,1248.2
593.402,1263.9
593.936,1280.8
594.469,1289.3
595.002,1309.3
595.535,1330.3
596.068,1364.9
596.601,1377.6
597.133,1413.3
597.666,1427.8
598.199,1458.9
598.731,1489.3
599.264,1508.6
599.796,1517.8
600.328,1532.5
600.86,1533.2
601.393,1533.1
601.925,1528.4
602.457,1522.5
602.988,1505.6
603.52,1490.1
604.052,1460.1
604.583,1429.3
605.115,1405.1
605.646,1378.9
606.178,1339.7
606.709,1322.2
607.24,1297.0
607.771,1288.7
608.302,1275.0
608.833,1252.5
609.364,1231.4
609.895,1230.0
610.426,1205.5
610.957,1203.0
611.487,1188.9
612.018,1179.6
612.548,1184.5
613.078,1176.8
613.609,1161.3
614.139,1153.4
614.669,1144.6
615.199,1142.0
615.729,1132.8
616.259,1118.6
616.789,1126.5
617.319,1117.7
617.849,1114.3
618.378,1114.6
618.908,1106.3
619.437,1101.9
619.967,1106.8
620.496,1107.3
621.025,1102.3
621.555,1118.2
622.084,1143.9
622.613,1143.2
623.142,1105.7
623.671,1093.7
624.2,1093.1
624.729,1093.1
625.258,1097.8
625.786,1102.4
626.315,1132.6
626.844,1413.6
627.372,2015.1
627.901,1649.4
628.429,1883.4
628.957,1721.1
629.486,1572.8
630.014,1439.0
630.542,1407.2
631.07,1260.1
631.598,1159.2
632.126,1134.0
632.654,1125.4
633.182,1122.2
633.71,1111.5
634.237,1114.3
634.765,1105.8
635.293,1115.4
635.82,1104.1
636.348,1111.7
636.875,1113.1
637.403,1101.8
637.93,1098.8
638.458,1097.7
638.985,1091.5
639.512,1092.8
640.039,1099.6
640.566,1089.1
641.093,1077.0
641.62,1086.9
642.147,1089.2
642.674,1086.8
643.201,1081.5
643.728,1081.0
644.255,1081.5
644.781,1080.5
645.308,1081.2
645.835,1087.1
646.361,1085.4
646.888,1080.6
647.414,1088.4
647.941,1084.9
648.467,1088.6
648.993,1086.9
649.52,1094.0
650.046,1094.8
650.572,1098.5
651.098,1095.7
651.625,1105.6
652.151,1108.0
652.677,1113.0
653.203,1105.1
653.729,1106.6
654.255,1108.9
654.78,1109.7
655.306,1101.5
655.832,1102.6
656.358,1102.3
656.884,1096.3
657.409,1085.5
657.935,1085.4
658.461,1078.4
658.986,1070.9
659.512,1065.5
660.037,1054.0
660.563,1050.4
661.088,1043.3
661.614,1028.5
662.139,1018.7
662.664,1019.4
663.058,1008.4

File: VLFR_01-LDPE_nobio_Raman_579523bc.csv
nm,Intensity
526.486,828.5
527.033,830.4
527.579,830.1
528.126,830.1
528.672,829.9
529.219,829.9
529.765,829.5
530.311,830.3
530.857,830.2
531.403,829.4
531.948,829.6
532.494,830.1
533.039,832.2
533.585,830.5
534.13,899.7
534.675,891.4
535.22,876.5
535.764,866.1
536.309,859.1
536.854,858.4
537.398,857.5
537.942,858.8
538.486,855.0
539.03,858.6
539.574,851.1
540.118,850.5
540.662,850.0
541.205,849.5
541.749,846.9
542.292,847.1
542.835,846.9
543.378,846.5
543.921,847.6
544.464,845.4
545.006,844.9
545.549,845.4
546.091,845.9
546.634,846.0
547.176,843.9
547.718,844.7
548.26,844.9
548.802,845.0
549.343,844.3
549.885,844.3
550.426,843.4
550.968,846.4
551.509,845.3
552.05,845.2
552.591,846.3
553.132,847.6
553.673,848.7
554.214,845.7
554.754,847.7
555.295,846.9
555.835,847.7
556.375,848.8
556.915,850.8
557.455,852.8
557.995,854.9
558.535,855.9
559.075,852.2
559.614,852.6
560.154,851.8
560.693,849.1
561.232,850.1
561.772,851.6
562.311,852.5
562.85,853.7
563.388,857.7
563.927,894.7
564.466,875.3
565.004,869.2
565.543,861.7
566.081,898.0
566.619,865.8
567.157,858.1
567.695,861.5
568.233,854.0
568.771,855.6
569.309,857.2
569.846,856.5
570.384,859.3
570.921,864.4
571.458,919.7
571.995,891.4
572.532,871.0
573.069,861.0
573.606,863.8
574.143,868.6
574.68,861.2
575.216,861.8
575.753,895.2
576.289,975.1
576.825,933.9
577.361,909.3
577.897,873.5
578.433,867.2
578.969,870.1
579.505,869.9
580.041,870.5
580.576,873.3
581.112,871.7
581.647,877.1
582.183,877.5
582.718,883.7
583.253,887.0
583.788,891.8
584.323,896.7
584.858,902.9
585.392,909.4
585.927,919.1
586.462,932.7
586.996,941.0
587.53,949.3
588.065,955.7
588.599,969.1
589.133,970.7
589.667,982.4
590.201,991.8
590.735,997.9
591.268,1004.1
591.802,1004.6
592.335,1009.7
592.869,1003.0
593.402,1008.3
593.936,1008.2
594.469,1006.1
595.002,1015.2
595.535,1016.6
596.068,1012.2
596.601,1016.2
597.133,1020.5
597.666,1020.1
598.199,1027.3
598.731,1026.8
599.264,1031.9
599.796,1034.4
600.328,1039.1
600.86,1036.7
601.393,1032.5
601.925,1031.8
602.457,1030.5
602.988,1023.5
603.52,1019.9
604.052,1010.7
604.583,1003.5
605.115,992.3
605.646,985.2
606.178,979.1
606.709,973.6
607.24,966.1
607.771,967.9
608.302,958.5
608.833,955.1
609.364,952.5
609.895,948.4
610.426,948.7
610.957,941.4
611.487,938.0
612.018,939.2
612.548,935.4
613.078,935.3
613.609,935.0
614.139,934.1
614.669,930.7
615.199,925.6
615.729,930.9
616.259,922.8
616.789,923.4
617.319,926.1
617.849,920.8
618.378,923.3
618.908,919.1
619.437,924.4
619.967,921.2
620.496,927.3
621.025,924.3
621.555,934.6
622.084,959.6
622.613,954.2
623.142,926.9
623.671,918.2
624.2,913.3
624.729,912.9
625.258,919.0
625.786,920.3
626.315,947.3
626.844,1158.7
627.372,1641.4
627.901,1347.4
628.429,1517.0
628.957,1395.9
629.486,1296.3
630.014,1185.2
630.542,1157.0
631.07,1037.1
631.598,956.5
632.126,933.3
632.654,919.8
633.182,915.8
633.71,911.2
634.237,907.2
634.765,908.5
635.293,910.3
635.82,907.3
636.348,910.3
636.875,913.2
637.403,909.6
637.93,912.2
638.458,917.3
638.985,918.9
639.512,919.4
640.039,919.4
640.566,925.1
641.093,926.5
641.62,928.7
642.147,927.2
642.674,925.5
643.201,930.9
643.728,931.8
644.255,932.2
644.781,931.6
645.308,936.4
645.835,932.9
646.361,932.2
646.888,936.7
647.414,931.1
647.941,931.8
648.467,933.5
648.993,933.4
649.52,928.4
650.046,933.5
650.572,932.2
651.098,927.7
651.625,933.0
652.151,929.3
652.677,932.0
653.203,931.1
653.729,931.7
654.255,931.0
654.78,929.9
655.306,929.7
655.832,927.6
656.358,927.9
656.884,929.6
657.409,925.5
657.935,921.4
658.461,918.4
658.986,917.2
659.512,915.2
660.037,914.5
660.563,913.9
661.088,906.4
661.614,904.1
662.139,902.5
662.664,899.1
663.058,900.1

File: VLFR_01-LDPE_nobio_Raman_820522e5.csv
nm,Intensity
526.5,829.0
527.047,830.5
527.594,828.7
528.14,828.3
528.687,830.1
529.233,829.1
529.779,830.2
530.325,829.5
530.871,829.1
531.417,829.5
531.962,837.6
532.508,830.8
533.053,829.3
533.599,829.3
534.144,845.0
534.689,845.6
535.234,841.5
535.778,841.8
536.323,838.5
536.867,840.2
537.412,839.3
537.956,836.5
538.5,839.3
539.044,837.3
539.588,837.5
540.132,837.6
540.675,836.2
541.219,838.7
541.762,839.1
542.305,841.8
542.848,838.6
543.391,841.5
543.934,840.3
544.477,841.3
545.02,842.1
545.562,840.7
546.105,838.9
546.647,839.7
547.189,840.0
547.731,836.2
548.273,836.0
548.815,836.7
549.356,838.2
549.898,836.9
550.439,837.9
550.981,835.6
551.522,835.4
552.063,836.8
552.604,839.0
553.145,835.7
553.686,838.5
554.226,835.9
554.767,835.9
555.307,836.6
555.848,835.4
556.388,836.7
556.928,837.4
557.468,836.8
558.008,836.8
558.547,839.3
559.087,838.4
559.626,839.0
560.166,838.9
560.705,837.8
561.244,837.5
561.783,838.4
562.322,840.1
562.861,839.0
563.4,840.8
563.939,849.2
564.477,844.4
565.015,851.0
565.554,848.7
566.092,850.0
566.63,843.8
567.168,844.1
567.706,841.1
568.244,839.3
568.781,840.8
569.319,840.7
569.857,840.3
570.394,842.8
570.931,843.9
571.468,846.3
572.005,844.1
572.542,845.6
573.079,844.9
573.616,845.0
574.153,847.7
574.689,846.6
575.226,845.2
575.762,846.0
576.298,849.4
576.834,846.1
577.371,848.0
577.907,844.9
578.442,843.2
578.978,842.9
579.514,844.4
580.049,845.7
580.585,845.9
581.12,846.5
581.656,845.9
582.191,846.3
582.726,846.6
583.261,848.4
583.796,847.2
584.331,849.7
584.865,849.7
585.4,852.3
585.935,853.0
586.469,853.9
587.004,852.9
587.538,855.2
588.072,859.0
588.606,859.4
589.14,860.0
589.674,861.6
590.208,863.7
590.742,868.1
591.275,868.5
591.809,866.4
592.342,870.8
592.876,871.1
593.409,874.5
593.942,878.5
594.476,879.8
595.009,885.1
595.542,888.4
596.075,896.0
596.607,900.7
597.14,907.4
597.673,912.1
598.205,916.1
598.738,918.5
599.27,926.4
599.803,924.4
600.335,924.5
600.867,929.8
601.399,925.3
601.931,927.9
602.463,927.5
602.995,925.2
603.527,922.6
604.058,920.3
604.59,914.8
605.122,906.1
605.653,905.7
606.184,899.5
606.716,897.4
607.247,894.0
607.778,893.5
608.309,891.3
608.84,891.1
609.371,886.7
609.902,887.0
610.433,882.8
610.964,882.8
611.494,879.0
612.025,882.1
612.556,881.1
613.086,877.7
613.616,880.6
614.147,875.1
614.677,873.1
615.207,875.8
615.737,872.5
616.267,873.7
616.797,872.0
617.327,871.1
617.857,867.0
618.387,870.9
618.917,869.3
619.446,870.2
619.976,868.9
620.505,868.7
621.035,865.3
621.564,867.2
622.093,870.3
622.623,866.9
623.152,866.4
623.681,865.1
624.21,865.8
624.739,864.8
625.268,864.7
625.797,864.7
626.326,865.4
626.855,876.2
627.383,897.2
627.912,890.0
628.441,903.5
628.969,896.5
629.498,896.1
630.026,882.6
630.554,883.5
631.083,872.2
631.611,866.6
632.139,864.3
632.667,858.6
633.195,858.8
633.724,857.3
634.252,855.8
634.779,856.1
635.307,856.2
635.835,858.4
636.363,853.4
636.891,857.2
637.418,857.3
637.946,856.6
638.474,858.2
639.001,858.8
639.529,859.6
640.056,860.2
640.583,861.5
641.111,859.6
641.638,859.3
642.165,862.6
642.692,862.9
643.22,864.6
643.747,863.4
644.274,864.9
644.801,866.1
645.328,865.7
645.854,868.4
646.381,867.3
646.908,868.9
647.435,870.7
647.962,870.3
648.488,870.5
649.015,872.2
649.542,871.5
650.068,872.2
650.595,874.9
651.121,877.6
651.648,874.9
652.174,878.7
652.7,876.6
653.227,874.2
653.753,880.6
654.279,878.1
654.805,878.5
655.331,876.5
655.858,877.7
656.384,877.4
656.91,875.2
657.436,876.3
657.962,875.2
658.488,874.4
659.013,870.7
659.539,871.6
660.065,869.7
660.591,869.1
661.117,866.5
661.642,864.2
662.168,860.7
662.694,861.1
663.088,860.4