Folder: MPX_specDB/spectra (part 39)

File: VLFR_02-HDPE_bio_Raman_254d49ff.csv
nm,Intensity
528.65,1855.85
529.155,1855.45
529.66,1855.65
530.165,1857.2
530.67,1856.15
531.175,1858.85
531.68,1902.9
532.185,3443.25
532.69,1857.8
533.194,1857.45
533.699,1901.65
534.204,2040.65
534.708,2031.1
535.213,2052.15
535.717,2042.8
536.222,2041.55
536.726,2016.95
537.231,2046.25
537.735,2022.65
538.239,2033.05
538.743,2017.2
539.247,2012.6
539.751,2007.8
540.255,2002.85
540.759,2004.5
541.263,2013.95
541.767,2018.35
542.271,1995.45
542.775,2014.3
543.279,2020.5
543.782,2059.35
544.286,2133.6
544.789,2028.0
545.293,2025.85
545.796,2035.15
546.3,2101.35
546.803,2053.55
547.306,2035.15
547.81,2033.15
548.313,2032.85
548.816,2040.15
549.319,2047.6
549.822,2066.25
550.325,2093.0
550.828,2047.4
551.331,2052.6
551.834,2054.25
552.337,2046.35
552.839,2034.8
553.342,2053.15
553.844,2053.7
554.347,2049.25
554.849,2054.75
555.352,2056.5
555.854,2058.7
556.357,2057.5
556.859,2070.1
557.361,2066.8
557.863,2068.65
558.365,2074.0
558.867,2073.45
559.369,2078.55
559.871,2077.3
560.373,2077.95
560.875,2089.15
561.377,2098.2
561.878,2191.45
562.38,3184.2
562.881,2123.15
563.383,2109.55
563.884,2234.75
564.386,2149.1
564.887,2141.4
565.388,2120.65
565.89,2216.45
566.391,2282.55
566.892,2152.55
567.393,2164.0
567.894,2128.7
568.395,2128.3
568.896,2133.25
569.396,2146.55
569.897,2146.9
570.398,2163.25
570.898,2176.6
571.399,2418.0
571.9,2254.35
572.4,2207.3
572.9,2201.45
573.401,2207.3
573.901,2232.05
574.401,2233.7
574.901,2237.1
575.401,2349.75
575.901,2373.8
576.401,2562.1
576.901,2477.2
577.401,2409.9
577.901,2382.5
578.4,2388.3
578.9,2443.25
579.399,2479.6
579.899,2502.6
580.398,2541.95
580.898,2562.65
581.397,2622.1
581.896,2659.25
582.395,2718.95
582.895,2735.95
583.394,2780.15
583.893,2807.75
584.391,2871.9
584.89,2853.25
585.389,2925.05
585.888,2945.05
586.386,3024.8
586.885,3057.7
587.384,3112.8
587.882,3202.25
588.38,3224.0
588.879,3243.85
589.377,3296.2
589.875,3367.75
590.373,3443.35
590.871,3478.05
591.369,3569.0
591.867,3638.45
592.365,3655.15
592.863,3701.25
593.361,3745.75
593.858,3765.45
594.356,3806.35
594.853,3851.45
595.351,3969.7
595.848,3962.85
596.345,4020.6
596.843,4034.3
597.34,4176.5
597.837,4194.9
598.334,4247.75
598.831,4263.0
599.328,4414.0
599.824,4458.7
600.321,4498.75
600.818,4501.15
601.314,4498.6
601.811,4544.85
602.307,4488.85
602.804,4446.95
603.3,4494.9
603.796,4463.1
604.293,4397.35
604.789,4257.1
605.285,4178.05
605.781,4170.25
606.277,4119.0
606.772,4027.15
607.268,3921.4
607.764,3870.45
608.259,3823.65
608.755,3750.4
609.25,3693.75
609.746,3634.1
610.241,3635.45
610.736,3543.15
611.231,3537.9
611.727,3495.55
612.222,3425.45
612.716,3391.45
613.211,3342.2
613.706,3293.15
614.201,3341.15
614.695,3286.65
615.19,3269.15
615.684,3239.8
616.179,3202.7
616.673,3143.15
617.168,3192.5
617.662,3114.65
618.156,3107.05
618.65,3130.9
619.144,3117.2
619.638,3110.7
620.131,3075.75
620.625,3071.7
621.119,3063.55
621.612,3096.95
622.106,3092.55
622.599,3091.55
623.093,2989.5
623.586,2982.5
624.079,2964.0
624.572,3022.25
625.065,2953.0
625.558,2970.45
626.051,3022.75
626.544,3279.9
627.037,4650.45
627.529,4500.05
628.022,4009.6
628.514,5185.55
629.007,4216.15
629.499,3914.1
629.991,3611.6
630.483,3513.95
630.976,3257.55
631.468,3082.4
631.959,3003.3
632.451,2979.55
632.943,3021.8
633.435,2994.6
633.926,2993.45
634.418,3001.2
634.909,2970.5
635.401,2998.75
635.892,3006.85
636.383,2980.05
636.874,2978.85
637.365,3034.65
637.856,3019.25
638.347,3022.8
638.838,3035.1
639.329,3043.15
639.819,3062.85
640.31,3075.15
640.8,3065.9
641.291,3116.45
641.781,3087.25
642.271,3080.5
642.761,3130.15
643.251,3058.55
643.741,3123.55
644.231,3128.9
644.721,3098.35
645.211,3123.6
645.7,3103.0
646.19,3104.2
646.679,3137.0
647.169,3164.05
647.658,3106.1
648.147,3115.15
648.636,3161.25
649.125,3192.3
649.614,3280.2
650.103,3316.6
650.592,3255.15
651.08,3167.25
651.569,3076.25
652.058,3069.05
652.546,3040.8
653.034,3080.1
653.523,3047.9
654.011,3000.15
654.499,3016.55
654.987,2963.1
655.475,2999.05
655.963,2930.6
656.45,2934.45
656.938,2905.25
657.425,2908.4
657.913,2874.45
658.4,2831.2
658.888,2833.7
659.375,2770.55
659.862,2768.85
660.349,2701.35
660.836,2705.45
661.079,2668.85

File: VLFR_02-HDPE_bio_Raman_264e47a9.csv
nm,Intensity
526.495,828.9
527.042,829.85
527.589,829.45
528.136,829.4
528.682,829.35
529.229,828.45
529.775,830.4
530.321,828.9
530.867,828.85
531.413,828.75
531.959,830.35
532.505,828.95
533.051,828.5
533.596,830.0
534.141,870.95
534.687,865.65
535.232,858.55
535.777,852.8
536.321,851.75
536.866,847.9
537.41,848.45
537.955,849.3
538.499,848.0
539.043,845.55
539.587,843.75
540.131,842.3
540.675,843.45
541.219,843.6
541.762,842.45
542.305,840.95
542.849,843.3
543.392,841.5
543.935,841.5
544.478,841.35
545.02,841.05
545.563,840.55
546.106,840.9
546.648,840.5
547.19,841.55
547.732,841.4
548.274,839.5
548.816,841.3
549.358,840.2
549.9,841.05
550.441,841.15
550.983,840.75
551.524,841.35
552.065,841.6
552.606,841.65
553.147,841.05
553.688,841.9
554.229,843.55
554.769,843.55
555.31,844.2
555.85,844.85
556.391,845.4
556.931,847.65
557.471,849.4
558.011,849.35
558.551,850.0
559.09,851.55
559.63,848.9
560.169,850.2
560.709,849.1
561.248,851.45
561.787,851.6
562.326,852.75
562.865,856.9
563.404,858.55
563.943,886.65
564.481,868.6
565.02,870.75
565.558,866.95
566.096,912.45
566.634,872.75
567.172,867.15
567.71,868.3
568.248,867.65
568.786,871.6
569.324,873.35
569.861,880.1
570.399,882.7
570.936,888.65
571.473,938.9
572.01,910.7
572.547,905.2
573.084,907.05
573.621,915.8
574.158,926.5
574.694,927.7
575.231,939.35
575.767,979.05
576.303,1014.2
576.84,1010.85
577.376,1006.2
577.912,1006.05
578.448,1024.6
578.984,1044.95
579.519,1064.35
580.055,1078.65
580.59,1109.45
581.126,1122.65
581.661,1151.45
582.196,1174.5
582.731,1195.95
583.267,1215.05
583.801,1239.0
584.336,1263.0
584.871,1284.55
585.406,1309.8
585.94,1337.75
586.475,1376.25
587.009,1408.3
587.543,1446.35
588.078,1475.5
588.612,1494.55
589.146,1527.55
589.68,1558.9
590.214,1591.75
590.747,1622.0
591.281,1661.25
591.815,1672.4
592.348,1693.0
592.881,1696.3
593.415,1713.25
593.948,1722.7
594.481,1731.35
595.014,1761.05
595.547,1773.35
596.08,1789.05
596.613,1804.3
597.146,1829.4
597.678,1843.45
598.211,1866.7
598.743,1889.75
599.276,1899.95
599.808,1915.9
600.34,1900.7
600.872,1906.8
601.404,1884.95
601.936,1871.2
602.468,1855.2
603.0,1831.8
603.532,1797.85
604.064,1773.35
604.595,1722.2
605.127,1673.55
605.658,1627.9
606.189,1585.5
606.721,1558.9
607.252,1528.15
607.783,1507.25
608.314,1474.5
608.845,1454.3
609.376,1438.1
609.907,1412.0
610.438,1397.5
610.968,1376.65
611.499,1365.1
612.029,1347.15
612.56,1343.3
613.09,1336.25
613.621,1322.85
614.151,1310.45
614.681,1291.05
615.211,1281.95
615.741,1271.95
616.271,1260.0
616.801,1252.6
617.331,1237.05
617.861,1229.9
618.39,1219.5
618.92,1215.0
619.45,1199.95
619.979,1199.55
620.509,1192.65
621.038,1187.9
621.567,1183.4
622.096,1189.25
622.626,1185.1
623.155,1177.5
623.684,1172.5
624.213,1168.95
624.742,1164.05
625.271,1163.25
625.799,1168.15
626.328,1170.1
626.857,1248.8
627.386,1418.3
627.914,1318.95
628.443,1371.15
628.971,1345.35
629.5,1315.95
630.028,1276.1
630.556,1272.75
631.084,1226.05
631.613,1197.05
632.141,1186.15
632.669,1182.75
633.197,1182.45
633.725,1184.85
634.253,1189.65
634.781,1192.2
635.308,1195.05
635.836,1203.55
636.364,1206.2
636.891,1216.95
637.419,1214.4
637.947,1222.55
638.474,1230.15
639.002,1236.35
639.529,1238.65
640.056,1245.45
640.584,1255.6
641.111,1263.4
641.638,1267.7
642.165,1278.2
642.692,1280.9
643.219,1281.45
643.746,1281.05
644.273,1282.0
644.8,1280.6
645.327,1283.4
645.854,1285.6
646.381,1287.75
646.908,1287.0
647.434,1287.35
647.961,1280.8
648.488,1287.35
649.014,1275.35
649.541,1274.9
650.067,1271.7
650.594,1265.55
651.12,1270.65
651.646,1272.5
652.173,1271.1
652.699,1272.0
653.225,1267.35
653.752,1258.45
654.278,1263.9
654.804,1262.4
655.33,1252.5
655.856,1251.15
656.382,1233.5
656.908,1237.1
657.434,1223.95
657.96,1215.3
658.486,1200.8
659.012,1192.6
659.538,1180.75
660.064,1172.5
660.589,1154.5
661.115,1137.7
661.641,1123.85
662.166,1113.5
662.692,1101.9
663.086,1098.25

File: VLFR_02-HDPE_bio_Raman_310d27dc.csv
nm,Intensity
526.508,828.3
527.055,827.7
527.602,829.8
528.149,830.0
528.695,830.4
529.241,829.2
529.787,830.9
530.334,829.8
530.879,830.2
531.425,829.6
531.971,836.0
532.516,832.0
533.062,830.3
533.607,830.4
534.152,898.6
534.697,883.6
535.242,874.8
535.786,864.6
536.331,862.6
536.876,860.1
537.42,860.5
537.964,861.8
538.508,859.0
539.052,857.0
539.596,854.0
540.14,855.3
540.683,854.6
541.227,855.1
541.77,853.4
542.313,854.9
542.856,854.8
543.399,856.1
543.942,855.3
544.485,856.4
545.027,857.1
545.57,858.0
546.112,857.7
546.654,855.5
547.196,858.6
547.738,859.4
548.28,857.9
548.822,862.5
549.363,858.7
549.905,860.2
550.446,861.0
550.988,858.1
551.529,860.1
552.07,861.2
552.611,860.1
553.152,860.1
553.692,861.5
554.233,859.8
554.773,861.6
555.314,859.4
555.854,863.8
556.394,860.7
556.934,862.5
557.474,867.1
558.014,867.2
558.553,868.4
559.093,867.5
559.632,867.0
560.172,867.0
560.711,865.5
561.25,863.5
561.789,863.9
562.328,869.8
562.867,869.1
563.406,873.3
563.944,969.7
564.483,892.2
565.021,886.3
565.559,886.9
566.098,1063.3
566.636,889.9
567.174,873.9
567.711,874.8
568.249,870.3
568.787,872.4
569.324,872.3
569.862,871.4
570.399,875.1
570.936,881.5
571.474,1037.6
572.011,899.5
572.548,879.3
573.084,875.6
573.621,877.5
574.158,886.3
574.694,876.9
575.231,891.3
575.767,990.3
576.303,975.0
576.84,945.4
577.376,919.5
577.912,893.2
578.447,892.4
578.983,899.3
579.519,899.9
580.054,904.2
580.59,910.6
581.125,914.0
581.661,916.7
582.196,921.4
582.731,922.8
583.266,928.9
583.801,937.7
584.336,942.8
584.87,949.6
585.405,954.4
585.94,962.3
586.474,970.4
587.008,974.0
587.543,986.0
588.077,985.0
588.611,998.1
589.145,996.8
589.679,1002.8
590.213,1008.2
590.747,1013.4
591.28,1014.2
591.814,1025.6
592.347,1019.8
592.881,1026.1
593.414,1027.8
593.947,1031.5
594.48,1030.3
595.014,1034.4
595.547,1037.2
596.079,1035.1
596.612,1046.8
597.145,1047.0
597.678,1054.7
598.21,1052.1
598.743,1055.5
599.275,1059.7
599.807,1071.1
600.34,1065.3
600.872,1067.0
601.404,1066.2
601.936,1065.1
602.468,1059.2
603.0,1053.0
603.532,1049.6
604.063,1041.2
604.595,1042.9
605.126,1031.2
605.658,1021.8
606.189,1018.9
606.721,1016.2
607.252,1004.5
607.783,1003.0
608.314,1001.0
608.845,991.1
609.376,993.6
609.907,987.8
610.438,983.6
610.968,986.3
611.499,983.8
612.03,971.8
612.56,975.1
613.091,971.4
613.621,966.0
614.151,964.2
614.681,960.5
615.212,959.0
615.742,955.2
616.272,953.9
616.802,954.7
617.332,959.3
617.861,954.9
618.391,951.3
618.921,947.7
619.45,943.7
619.98,947.1
620.509,947.8
621.039,948.4
621.568,954.1
622.097,962.0
622.627,966.5
623.156,950.3
623.685,944.5
624.214,939.1
624.743,943.6
625.272,946.3
625.801,948.9
626.33,962.7
626.858,1115.5
627.387,1445.8
627.916,1232.6
628.444,1312.8
628.973,1296.6
629.501,1215.6
630.029,1141.0
630.558,1121.5
631.086,1020.2
631.614,970.1
632.142,952.1
632.67,948.6
633.198,944.7
633.726,949.1
634.254,940.7
634.782,943.0
635.31,940.7
635.838,944.8
636.365,947.5
636.893,944.4
637.421,949.6
637.948,947.1
638.476,949.0
639.003,950.7
639.531,952.2
640.058,952.3
640.585,959.2
641.113,948.9
641.64,956.5
642.167,957.7
642.694,956.0
643.221,960.3
643.748,960.6
644.275,954.9
644.802,959.8
645.329,961.1
645.856,955.7
646.382,956.7
646.909,956.5
647.436,958.5
647.962,958.1
648.489,957.2
649.016,956.5
649.542,956.8
650.069,957.5
650.595,960.8
651.121,954.2
651.648,953.0
652.174,959.5
652.7,957.7
653.227,962.9
653.753,961.7
654.279,960.3
654.805,956.2
655.331,960.4
655.857,958.0
656.383,956.7
656.909,953.0
657.435,951.0
657.961,949.3
658.487,946.8
659.013,941.6
659.538,943.8
660.064,942.2
660.59,937.6
661.116,932.9
661.641,929.7
662.167,926.9
662.692,925.6
663.087,921.4

File: VLFR_02-HDPE_bio_Raman_475e1b4e.csv
nm,Intensity
526.495,828.9
527.042,829.3
527.589,828.0
528.136,829.3
528.682,829.8
529.229,829.4
529.775,829.5
530.321,828.4
530.867,829.2
531.413,828.9
531.959,830.9
532.505,829.8
533.051,829.3
533.596,829.0
534.141,894.2
534.687,881.5
535.232,869.8
535.777,858.3
536.321,853.9
536.866,852.2
537.41,851.3
537.955,851.5
538.499,849.1
539.043,845.9
539.587,843.1
540.131,844.0
540.675,842.0
541.219,842.7
541.762,842.1
542.305,840.4
542.849,841.1
543.392,841.1
543.935,843.3
544.478,840.1
545.02,839.0
545.563,839.5
546.106,838.3
546.648,840.8
547.19,839.8
547.732,838.1
548.274,839.3
548.816,838.6
549.358,838.8
549.9,838.6
550.441,838.4
550.983,839.2
551.524,838.9
552.065,838.1
552.606,838.9
553.147,841.9
553.688,841.0
554.229,842.2
554.769,843.4
555.31,841.2
555.85,844.9
556.391,845.0
556.931,850.4
557.471,850.5
558.011,852.2
558.551,856.1
559.09,852.0
559.63,850.7
560.169,850.7
560.709,849.6
561.248,849.5
561.787,854.2
562.326,854.3
562.865,859.5
563.404,864.3
563.943,909.8
564.481,884.5
565.02,878.7
565.558,873.5
566.096,941.1
566.634,883.1
567.172,875.6
567.71,876.6
568.248,871.5
568.786,874.9
569.324,879.6
569.861,882.2
570.399,889.7
570.936,900.8
571.473,988.9
572.01,932.8
572.547,916.8
573.084,923.8
573.621,930.1
574.158,953.1
574.694,952.1
575.231,962.8
575.767,1027.2
576.303,1104.8
576.84,1087.0
577.376,1076.4
577.912,1072.1
578.448,1086.3
578.984,1114.1
579.519,1143.9
580.055,1161.1
580.59,1178.8
581.126,1200.2
581.661,1224.3
582.196,1235.6
582.731,1258.2
583.267,1277.6
583.801,1295.0
584.336,1299.4
584.871,1311.5
585.406,1326.7
585.94,1333.7
586.475,1347.3
587.009,1366.3
587.543,1373.2
588.078,1385.4
588.612,1400.4
589.146,1399.1
589.68,1430.7
590.214,1435.7
590.747,1452.5
591.281,1458.0
591.815,1477.1
592.348,1470.8
592.881,1470.8
593.415,1478.9
593.948,1471.1
594.481,1478.1
595.014,1479.3
595.547,1487.0
596.08,1493.8
596.613,1501.8
597.146,1506.4
597.678,1514.9
598.211,1523.5
598.743,1540.0
599.276,1539.7
599.808,1533.5
600.34,1532.9
600.872,1525.4
601.404,1519.1
601.936,1495.7
602.468,1491.0
603.0,1464.9
603.532,1449.8
604.064,1438.3
604.595,1406.5
605.127,1375.3
605.658,1359.5
606.189,1323.5
606.721,1300.5
607.252,1275.8
607.783,1267.9
608.314,1243.1
608.845,1236.1
609.376,1222.4
609.907,1209.0
610.438,1197.4
610.968,1185.1
611.499,1183.5
612.029,1179.4
612.56,1164.4
613.09,1161.7
613.621,1152.2
614.151,1137.4
614.681,1136.9
615.211,1125.0
615.741,1115.5
616.271,1109.8
616.801,1108.4
617.331,1108.1
617.861,1101.8
618.39,1092.5
618.92,1093.4
619.45,1085.5
619.979,1093.2
620.509,1078.5
621.038,1078.7
621.567,1083.0
622.096,1099.2
622.626,1100.1
623.155,1078.8
623.684,1074.8
624.213,1071.0
624.742,1079.0
625.271,1069.6
625.799,1078.6
626.328,1103.0
626.857,1245.2
627.386,1566.5
627.914,1371.1
628.443,1504.4
628.971,1445.8
629.5,1373.6
630.028,1296.6
630.556,1283.0
631.084,1190.9
631.613,1139.1
632.141,1121.5
632.669,1109.2
633.197,1096.2
633.725,1099.9
634.253,1102.3
634.781,1103.8
635.308,1096.2
635.836,1103.9
636.364,1116.3
636.891,1112.6
637.419,1103.3
637.947,1104.8
638.474,1108.1
639.002,1111.8
639.529,1108.9
640.056,1109.5
640.584,1109.4
641.111,1120.4
641.638,1116.6
642.165,1113.6
642.692,1118.1
643.219,1111.2
643.746,1113.3
644.273,1110.3
644.8,1112.7
645.327,1110.5
645.854,1115.4
646.381,1111.7
646.908,1105.0
647.434,1111.6
647.961,1107.7
648.488,1104.7
649.014,1096.4
649.541,1091.0
650.067,1094.7
650.594,1087.5
651.12,1092.7
651.646,1081.1
652.173,1088.3
652.699,1093.8
653.225,1083.4
653.752,1083.4
654.278,1078.8
654.804,1079.4
655.33,1075.2
655.856,1069.7
656.382,1068.1
656.908,1066.9
657.434,1058.2
657.96,1053.2
658.486,1049.4
659.012,1039.1
659.538,1031.6
660.064,1028.9
660.589,1022.3
661.115,1011.8
661.641,1006.6
662.166,996.9
662.692,986.5
663.086,981.9

File: VLFR_02-HDPE_bio_Raman_524f6fc1.csv
nm,Intensity
528.65,1844.25
529.155,1845.7
529.66,1844.85
530.165,1845.8
530.67,1845.85
531.175,1848.1
531.68,1892.4
532.185,4672.1
532.69,1848.3
533.194,1846.85
533.699,1983.75
534.204,2402.15
534.708,2395.35
535.213,2342.7
535.717,2196.35
536.222,2129.05
536.726,2124.4
537.231,2108.35
537.735,2102.15
538.239,2100.25
538.743,2088.5
539.247,2076.35
539.751,2066.4
540.255,2054.5
540.759,2057.2
541.263,2056.75
541.767,2062.15
542.271,2052.2
542.775,2056.3
543.279,2065.25
543.782,2066.65
544.286,2071.95
544.789,2056.95
545.293,2067.25
545.796,2076.95
546.3,2070.7
546.803,2079.3
547.306,2072.85
547.81,2088.55
548.313,2082.2
548.816,2077.2
549.319,2083.1
549.822,2073.2
550.325,2084.9
550.828,2099.35
551.331,2095.2
551.834,2092.3
552.337,2099.25
552.839,2102.35
553.342,2115.85
553.844,2124.85
554.347,2134.75
554.849,2134.8
555.352,2142.4
555.854,2154.0
556.357,2148.15
556.859,2181.8
557.361,2181.35
557.863,2199.15
558.365,2226.4
558.867,2208.65
559.369,2195.15
559.871,2192.15
560.373,2185.35
560.875,2193.0
561.377,2200.65
561.878,2219.15
562.38,2224.2
562.881,2259.3
563.383,2295.45
563.884,3251.65
564.386,2538.85
564.887,2424.9
565.388,2365.75
565.89,2862.3
566.391,3079.9
566.892,2318.5
567.393,2461.2
567.894,2275.15
568.395,2263.4
568.896,2258.4
569.396,2272.75
569.897,2272.75
570.398,2342.85
570.898,2403.4
571.399,3863.45
571.9,2696.55
572.4,2391.6
572.9,2294.1
573.401,2302.55
573.901,2414.55
574.401,2274.65
574.901,2297.45
575.401,3051.6
575.901,2931.1
576.401,3649.2
576.901,3163.8
577.401,2726.9
577.901,2391.25
578.4,2315.35
578.9,2303.25
579.399,2298.45
579.899,2303.65
580.398,2296.8
580.898,2300.85
581.397,2299.3
581.896,2307.6
582.395,2297.6
582.895,2282.8
583.394,2297.2
583.893,2297.1
584.391,2302.9
584.89,2299.3
585.389,2315.3
585.888,2295.35
586.386,2315.4
586.885,2319.6
587.384,2326.0
587.882,2344.4
588.38,2350.6
588.879,2367.05
589.377,2364.95
589.875,2378.45
590.373,2381.05
590.871,2397.75
591.369,2392.9
591.867,2401.2
592.365,2417.2
592.863,2415.9
593.361,2416.4
593.858,2426.25
594.356,2425.85
594.853,2422.15
595.351,2455.85
595.848,2440.7
596.345,2436.0
596.843,2455.4
597.34,2489.1
597.837,2486.85
598.334,2466.35
598.831,2500.8
599.328,2523.65
599.824,2516.95
600.321,2509.65
600.818,2516.5
601.314,2530.0
601.811,2555.1
602.307,2562.2
602.804,2518.35
603.3,2530.25
603.796,2494.4
604.293,2489.7
604.789,2479.95
605.285,2463.6
605.781,2448.4
606.277,2449.85
606.772,2437.95
607.268,2416.65
607.764,2407.15
608.259,2414.25
608.755,2405.3
609.25,2383.4
609.746,2378.65
610.241,2393.85
610.736,2413.05
611.231,2426.6
611.727,2382.25
612.222,2365.7
612.716,2370.65
613.211,2366.95
613.706,2365.4
614.201,2359.9
614.695,2381.5
615.19,2368.4
615.684,2378.65
616.179,2385.35
616.673,2426.8
617.168,2490.5
617.662,2486.75
618.156,2501.75
618.65,2464.7
619.144,2515.65
619.638,2577.5
620.131,2535.15
620.625,2549.25
621.119,2677.2
621.612,2869.65
622.106,3275.75
622.599,3129.6
623.093,2691.3
623.586,2550.7
624.079,2548.85
624.572,2535.95
625.065,2580.4
625.558,2676.1
626.051,2946.15
626.544,4526.6
627.037,12261.0
627.529,11361.5
628.022,8949.55
628.514,14625.3
629.007,8627.85
629.499,7141.95
629.991,5705.35
630.483,5411.0
630.976,3950.5
631.468,2891.9
631.959,2643.55
632.451,2575.45
632.943,2509.2
633.435,2456.55
633.926,2441.65
634.418,2383.2
634.909,2369.7
635.401,2353.05
635.892,2345.35
636.383,2336.45
636.874,2314.25
637.365,2295.2
637.856,2263.85
638.347,2274.25
638.838,2261.25
639.329,2254.2
639.819,2255.0
640.31,2243.75
640.8,2254.35
641.291,2231.35
641.781,2261.85
642.271,2257.7
642.761,2242.5
643.251,2238.05
643.741,2236.25
644.231,2246.05
644.721,2234.8
645.211,2232.95
645.7,2232.95
646.19,2227.4
646.679,2247.2
647.169,2232.95
647.658,2221.55
648.147,2228.8
648.636,2206.65
649.125,2224.0
649.614,2210.85
650.103,2196.6
650.592,2220.85
651.08,2212.95
651.569,2197.25
652.058,2202.6
652.546,2198.25
653.034,2187.75
653.523,2182.1
654.011,2198.65
654.499,2181.85
654.987,2176.15
655.475,2175.5
655.963,2191.2
656.45,2157.25
656.938,2156.25
657.425,2164.7
657.913,2143.85
658.4,2142.0
658.888,2154.45
659.375,2141.65
659.862,2136.95
660.349,2143.95
660.836,2123.5
661.079,2119.4

File: VLFR_02-HDPE_bio_Raman_0655be09.csv
nm,Intensity
528.635,1836.2
529.14,1836.5
529.645,1838.8
530.151,1837.5
530.656,1838.5
531.161,1839.3
531.666,1883.4
532.171,4144.3
532.676,1839.0
533.181,1839.1
533.686,1964.3
534.191,2291.2
534.696,2311.5
535.201,2253.0
535.705,2086.2
536.21,2039.9
536.715,2003.5
537.219,2002.9
537.724,2000.2
538.228,1990.4
538.733,1969.1
539.237,1957.0
539.741,1944.9
540.246,1937.1
540.75,1931.6
541.254,1928.2
541.758,1932.7
542.262,1928.6
542.766,1923.4
543.27,1923.0
543.774,1926.7
544.278,1931.9
544.781,1923.6
545.285,1923.0
545.789,1921.0
546.292,1918.2
546.796,1916.6
547.299,1921.6
547.803,1926.4
548.306,1927.6
548.809,1925.4
549.313,1919.7
549.816,1925.1
550.319,1925.3
550.822,1918.9
551.325,1923.4
551.828,1925.4
552.331,1927.2
552.834,1924.1
553.337,1947.6
553.839,1952.4
554.342,1952.5
554.845,1954.5
555.347,1957.0
555.85,1969.2
556.352,1965.2
556.854,1980.5
557.357,2009.9
557.859,2019.1
558.361,2016.5
558.863,2000.2
559.365,2005.1
559.867,1995.3
560.369,1996.5
560.871,1983.6
561.373,1995.2
561.875,1997.7
562.377,2000.3
562.878,2034.1
563.38,2069.6
563.881,2938.4
564.383,2251.9
564.884,2178.4
565.386,2112.7
565.887,2575.2
566.388,2658.4
566.889,2073.0
567.391,2227.3
567.892,2026.0
568.393,2017.8
568.893,2016.0
569.394,2023.5
569.895,2032.1
570.396,2071.5
570.897,2131.9
571.397,3438.0
571.898,2362.4
572.398,2105.0
572.899,2031.8
573.399,2027.4
573.899,2130.0
574.399,2010.6
574.9,2020.4
575.4,2724.7
575.9,2592.8
576.4,3290.6
576.899,2853.6
577.399,2420.4
577.899,2083.1
578.399,2028.2
578.898,2008.2
579.398,2000.2
579.897,1996.8
580.397,1990.4
580.896,1991.8
581.396,1979.0
581.895,1970.0
582.394,1968.1
582.893,1980.9
583.392,1969.4
583.891,1971.0
584.39,1967.4
584.889,1963.8
585.387,1970.0
585.886,1965.6
586.385,1972.0
586.883,1969.8
587.382,1969.7
587.88,1976.6
588.379,1966.8
588.877,1973.6
589.375,1980.1
589.873,1973.9
590.371,1982.8
590.869,1982.0
591.367,1982.3
591.865,1980.6
592.363,1981.1
592.86,1987.4
593.358,1994.4
593.856,1983.3
594.353,1991.8
594.851,1992.3
595.348,1992.2
595.845,1999.8
596.342,2001.5
596.84,2001.9
597.337,2005.4
597.834,2014.3
598.331,2020.4
598.827,2017.2
599.324,2030.9
599.821,2035.3
600.318,2034.3
600.814,2031.9
601.311,2044.2
601.807,2066.7
602.303,2071.3
602.8,2040.7
603.296,2036.7
603.792,2044.9
604.288,2037.5
604.784,2035.6
605.28,2025.9
605.776,2023.8
606.272,2009.8
606.767,2018.1
607.263,2006.1
607.758,2012.5
608.254,2012.2
608.749,2016.6
609.244,2010.2
609.74,2004.6
610.235,2012.6
610.73,2032.0
611.225,2034.5
611.72,2012.8
612.215,1997.5
612.709,2001.4
613.204,2005.2
613.699,2004.2
614.193,2000.2
614.688,2010.6
615.182,2014.0
615.676,2019.4
616.171,2040.8
616.665,2072.0
617.159,2111.1
617.653,2120.5
618.147,2121.2
618.641,2098.5
619.134,2120.0
619.628,2157.6
620.122,2135.3
620.615,2176.5
621.109,2237.2
621.602,2458.6
622.095,2698.4
622.588,2567.5
623.082,2265.0
623.575,2161.9
624.068,2153.1
624.56,2158.7
625.053,2192.7
625.546,2264.9
626.039,2456.6
626.531,3803.9
627.024,9791.0
627.516,8693.2
628.008,6939.8
628.501,11102.3
628.993,6638.0
629.485,5545.4
629.977,4631.6
630.469,4309.9
630.961,3159.5
631.452,2389.6
631.944,2234.6
632.436,2172.3
632.927,2130.6
633.418,2109.7
633.91,2077.0
634.401,2061.6
634.892,2046.1
635.383,2020.5
635.874,2019.0
636.365,2024.3
636.856,1988.9
637.347,1965.7
637.837,1965.5
638.328,1962.8
638.818,1948.4
639.309,1943.2
639.799,1943.1
640.289,1937.8
640.78,1931.5
641.27,1941.9
641.76,1934.2
642.249,1935.6
642.739,1942.3
643.229,1927.3
643.719,1933.8
644.208,1932.8
644.698,1928.5
645.187,1929.1
645.676,1932.0
646.165,1927.0
646.655,1926.8
647.144,1935.3
647.633,1919.9
648.121,1930.4
648.61,1927.5
649.099,1924.5
649.587,1916.5
650.076,1924.6
650.564,1926.0
651.053,1919.7
651.541,1929.9
652.029,1924.3
652.517,1918.6
653.005,1920.6
653.493,1921.1
653.981,1918.8
654.468,1918.2
654.956,1916.3
655.444,1917.7
655.931,1912.2
656.418,1911.9
656.906,1909.2
657.393,1910.5
657.88,1905.9
658.367,1909.7
658.854,1906.8
659.341,1914.8
659.827,1915.0
660.314,1918.5
660.8,1918.0
661.044,1908.6