Folder: MPX_specDB/spectra (part 62)

File: VLFR_02-HDPE_nobio_Raman_50267749.csv
nm,Intensity
526.508,828.8
527.055,828.9
527.602,830.0
528.149,829.3
528.695,827.4
529.241,828.7
529.787,830.2
530.334,830.6
530.879,831.1
531.425,830.2
531.971,832.5
532.516,831.2
533.062,829.9
533.607,829.8
534.152,888.4
534.697,883.0
535.242,882.6
535.786,863.6
536.331,856.2
536.876,853.5
537.42,852.5
537.964,854.2
538.508,851.0
539.052,851.5
539.596,847.7
540.14,847.8
540.683,846.1
541.227,846.0
541.77,846.4
542.313,847.3
542.856,847.9
543.399,846.5
543.942,844.3
544.485,846.1
545.027,845.3
545.57,846.8
546.112,846.7
546.654,846.5
547.196,846.3
547.738,846.3
548.28,847.6
548.822,848.6
549.363,846.8
549.905,847.0
550.446,846.3
550.988,848.2
551.529,848.2
552.07,847.4
552.611,849.9
553.152,848.1
553.692,849.2
554.233,849.8
554.773,850.9
555.314,849.9
555.854,850.6
556.394,851.2
556.934,852.8
557.474,854.5
558.014,856.0
558.553,856.1
559.093,853.4
559.632,852.9
560.172,853.1
560.711,853.2
561.25,852.3
561.789,853.5
562.328,854.9
562.867,855.0
563.406,860.7
563.944,919.6
564.483,873.1
565.021,869.2
565.559,863.6
566.098,926.2
566.636,866.0
567.174,861.7
567.711,862.9
568.249,856.3
568.787,857.4
569.324,858.1
569.862,860.7
570.399,862.3
570.936,869.5
571.474,958.6
572.011,879.3
572.548,865.5
573.084,861.1
573.621,860.5
574.158,865.9
574.694,861.0
575.231,861.6
575.767,900.2
576.303,985.3
576.84,922.2
577.376,904.2
577.912,866.7
578.447,860.0
578.983,860.6
579.519,859.2
580.054,858.7
580.59,858.6
581.125,861.0
581.661,858.7
582.196,857.2
582.731,859.5
583.266,856.1
583.801,859.7
584.336,860.5
584.87,858.3
585.405,856.6
585.94,858.2
586.474,860.5
587.008,861.7
587.543,860.2
588.077,863.0
588.611,859.8
589.145,860.9
589.679,865.1
590.213,865.8
590.747,865.4
591.28,864.5
591.814,869.9
592.347,868.1
592.881,868.7
593.414,871.6
593.947,872.4
594.48,871.4
595.014,872.6
595.547,877.3
596.079,880.0
596.612,879.9
597.145,879.9
597.678,887.4
598.21,890.5
598.743,890.9
599.275,895.4
599.807,896.3
600.34,896.3
600.872,896.7
601.404,896.0
601.936,907.1
602.468,906.4
603.0,905.7
603.532,904.8
604.063,905.9
604.595,907.3
605.126,909.6
605.658,907.9
606.189,909.0
606.721,909.4
607.252,908.0
607.783,909.0
608.314,911.6
608.845,910.3
609.376,915.9
609.907,907.7
610.438,910.2
610.968,911.5
611.499,910.9
612.03,909.1
612.56,906.7
613.091,905.9
613.621,907.6
614.151,905.8
614.681,907.4
615.212,904.9
615.742,902.4
616.272,904.5
616.802,906.9
617.332,911.1
617.861,907.5
618.391,908.2
618.921,906.6
619.45,910.5
619.98,908.8
620.509,904.6
621.039,912.8
621.568,923.1
622.097,948.9
622.627,954.3
623.156,912.6
623.685,904.3
624.214,899.9
624.743,901.2
625.272,902.2
625.801,915.5
626.33,944.2
626.858,1257.5
627.387,1796.6
627.916,1403.3
628.444,1681.1
628.973,1357.6
629.501,1250.2
630.029,1133.5
630.558,1113.7
631.086,992.5
631.614,911.3
632.142,898.5
632.67,891.3
633.198,886.3
633.726,880.3
634.254,876.5
634.782,875.0
635.31,875.6
635.838,873.1
636.365,872.0
636.893,869.5
637.421,864.6
637.948,864.3
638.476,864.1
639.003,863.5
639.531,861.0
640.058,860.4
640.585,863.3
641.113,860.4
641.64,863.8
642.167,859.5
642.694,863.7
643.221,861.4
643.748,862.8
644.275,857.8
644.802,858.5
645.329,860.9
645.856,859.9
646.382,858.7
646.909,859.6
647.436,859.2
647.962,861.4
648.489,859.4
649.016,861.3
649.542,859.7
650.069,858.5
650.595,861.7
651.121,858.7
651.648,859.2
652.174,859.6
652.7,859.4
653.227,860.2
653.753,860.0
654.279,859.3
654.805,859.5
655.331,861.2
655.857,859.1
656.383,861.5
656.909,859.5
657.435,862.2
657.961,861.2
658.487,859.6
659.013,859.2
659.538,858.6
660.064,859.3
660.59,859.6
661.116,861.0
661.641,859.7
662.167,855.7
662.692,857.8
663.087,854.3

File: VLFR_02-HDPE_nobio_Raman_80592416.csv
nm,Intensity
526.508,831.1
527.055,829.4
527.602,829.4
528.149,829.1
528.695,830.3
529.241,830.4
529.787,830.4
530.334,829.7
530.879,829.3
531.425,829.5
531.971,834.8
532.516,829.8
533.062,830.9
533.607,830.5
534.152,897.2
534.697,894.8
535.242,895.9
535.786,867.9
536.331,856.7
536.876,853.0
537.42,855.0
537.964,854.7
538.508,851.6
539.052,848.7
539.596,847.8
540.14,846.7
540.683,846.0
541.227,845.6
541.77,846.7
542.313,847.3
542.856,845.6
543.399,845.1
543.942,844.3
544.485,846.5
545.027,844.9
545.57,846.2
546.112,847.6
546.654,845.6
547.196,846.8
547.738,845.5
548.28,846.6
548.822,845.7
549.363,845.8
549.905,848.2
550.446,845.4
550.988,847.7
551.529,847.4
552.07,844.0
552.611,845.4
553.152,846.1
553.692,851.8
554.233,847.7
554.773,848.4
555.314,849.0
555.854,851.2
556.394,851.7
556.934,850.6
557.474,853.7
558.014,854.2
558.553,854.1
559.093,854.1
559.632,856.3
560.172,852.6
560.711,855.1
561.25,852.0
561.789,853.5
562.328,854.2
562.867,857.5
563.406,859.9
563.944,931.0
564.483,877.5
565.021,869.9
565.559,863.6
566.098,925.8
566.636,866.9
567.174,861.3
567.711,869.1
568.249,856.5
568.787,857.7
569.324,856.8
569.862,859.4
570.399,862.5
570.936,866.9
571.474,980.3
572.011,883.1
572.548,867.2
573.084,860.2
573.621,863.3
574.158,869.6
574.694,860.4
575.231,862.3
575.767,899.8
576.303,1013.7
576.84,937.3
577.376,916.3
577.912,866.9
578.447,861.6
578.983,860.8
579.519,859.6
580.054,862.4
580.59,858.4
581.125,857.7
581.661,859.0
582.196,860.1
582.731,856.2
583.266,857.8
583.801,858.2
584.336,855.4
584.87,859.0
585.405,858.5
585.94,857.5
586.474,855.4
587.008,860.1
587.543,856.9
588.077,858.8
588.611,855.9
589.145,858.8
589.679,855.7
590.213,857.4
590.747,860.0
591.28,856.9
591.814,859.7
592.347,859.1
592.881,859.2
593.414,855.9
593.947,857.3
594.48,859.3
595.014,855.6
595.547,859.3
596.079,856.2
596.612,859.1
597.145,860.5
597.678,856.0
598.21,859.5
598.743,860.1
599.275,861.7
599.807,860.7
600.34,857.7
600.872,860.2
601.404,861.7
601.936,863.9
602.468,861.0
603.0,860.3
603.532,860.4
604.063,861.9
604.595,860.6
605.126,858.3
605.658,861.4
606.189,859.7
606.721,857.3
607.252,858.8
607.783,857.8
608.314,856.7
608.845,857.7
609.376,859.5
609.907,857.1
610.438,857.8
610.968,859.3
611.499,860.8
612.03,858.1
612.56,861.1
613.091,858.5
613.621,859.6
614.151,860.6
614.681,859.2
615.212,863.0
615.742,859.5
616.272,862.5
616.802,866.6
617.332,872.5
617.861,873.7
618.391,875.6
618.921,872.8
619.45,875.5
619.98,877.6
620.509,879.1
621.039,886.7
621.568,902.4
622.097,938.6
622.627,935.0
623.156,894.3
623.685,881.2
624.214,881.0
624.743,879.4
625.272,885.6
625.801,894.4
626.33,935.1
626.858,1301.8
627.387,1873.7
627.916,1449.7
628.444,1807.4
628.973,1403.3
629.501,1278.9
630.029,1149.5
630.558,1116.6
631.086,978.0
631.614,901.2
632.142,886.6
632.67,879.2
633.198,875.8
633.726,871.8
634.254,870.5
634.782,865.9
635.31,864.3
635.838,865.7
636.365,863.2
636.893,861.3
637.421,858.3
637.948,856.6
638.476,856.5
639.003,857.4
639.531,856.4
640.058,854.1
640.585,854.7
641.113,856.0
641.64,852.5
642.167,855.3
642.694,855.2
643.221,853.4
643.748,851.9
644.275,852.6
644.802,853.0
645.329,853.2
645.856,852.7
646.382,850.9
646.909,851.7
647.436,851.0
647.962,852.2
648.489,851.5
649.016,853.3
649.542,852.1
650.069,851.3
650.595,851.2
651.121,853.4
651.648,850.1
652.174,851.4
652.7,851.3
653.227,850.1
653.753,850.2
654.279,848.0
654.805,849.7
655.331,850.8
655.857,851.3
656.383,851.5
656.909,850.3
657.435,851.4
657.961,850.8
658.487,850.9
659.013,852.4
659.538,851.2
660.064,851.7
660.59,849.9
661.116,849.5
661.641,847.3
662.167,848.7
662.692,849.1
663.087,847.9

File: VLFR_02-HDPE_nobio_Raman_a5041157.csv
nm,Intensity
526.486,830.2
527.033,830.5
527.579,831.1
528.126,829.7
528.672,829.7
529.219,830.1
529.765,828.5
530.311,829.5
530.857,830.3
531.403,829.5
531.948,833.9
532.494,831.0
533.039,829.8
533.585,829.7
534.13,878.6
534.675,873.7
535.22,870.4
535.764,855.0
536.309,852.4
536.854,851.3
537.398,850.5
537.942,849.7
538.486,850.2
539.03,847.8
539.574,845.7
540.118,844.9
540.662,845.7
541.205,844.7
541.749,844.8
542.292,845.9
542.835,847.8
543.378,844.7
543.921,844.5
544.464,845.0
545.006,844.2
545.549,845.1
546.091,843.5
546.634,846.6
547.176,845.8
547.718,844.4
548.26,844.5
548.802,846.6
549.343,845.8
549.885,847.8
550.426,847.3
550.968,847.8
551.509,847.4
552.05,849.1
552.591,850.8
553.132,849.3
553.673,851.2
554.214,854.1
554.754,853.3
555.295,852.6
555.835,855.9
556.375,859.6
556.915,857.0
557.455,862.1
557.995,864.0
558.535,866.2
559.075,865.5
559.614,865.5
560.154,866.2
560.693,868.7
561.232,869.7
561.772,871.1
562.311,873.1
562.85,871.6
563.388,874.4
563.927,918.5
564.466,889.9
565.004,887.7
565.543,880.5
566.081,942.1
566.619,884.8
567.157,878.7
567.695,880.8
568.233,875.0
568.771,877.0
569.309,879.3
569.846,878.2
570.384,883.3
570.921,888.5
571.458,958.1
571.995,903.1
572.532,885.6
573.069,886.9
573.606,885.1
574.143,894.7
574.68,889.0
575.216,890.8
575.753,932.9
576.289,1003.7
576.825,958.1
577.361,948.4
577.897,916.6
578.433,919.6
578.969,919.5
579.505,928.4
580.041,927.6
580.576,929.8
581.112,938.5
581.647,944.6
582.183,943.7
582.718,952.3
583.253,954.3
583.788,960.7
584.323,956.8
584.858,956.9
585.392,958.9
585.927,963.8
586.462,968.4
586.996,966.9
587.53,972.2
588.065,973.7
588.599,968.8
589.133,973.8
589.667,982.9
590.201,981.6
590.735,982.9
591.268,989.2
591.802,990.8
592.335,993.6
592.869,993.7
593.402,995.3
593.936,998.1
594.469,999.7
595.002,999.3
595.535,1002.6
596.068,1010.4
596.601,1010.6
597.133,1013.4
597.666,1009.4
598.199,1021.9
598.731,1020.8
599.264,1024.1
599.796,1029.3
600.328,1017.1
600.86,1021.6
601.393,1018.2
601.925,1011.6
602.457,1012.9
602.988,1011.3
603.52,1005.7
604.052,1002.6
604.583,1002.0
605.115,987.8
605.646,986.1
606.178,976.5
606.709,974.5
607.24,974.0
607.771,968.8
608.302,961.8
608.833,961.9
609.364,961.2
609.895,959.0
610.426,953.7
610.957,957.2
611.487,951.9
612.018,948.9
612.548,947.4
613.078,949.5
613.609,943.9
614.139,939.6
614.669,940.9
615.199,936.4
615.729,936.2
616.259,931.9
616.789,934.7
617.319,932.9
617.849,936.0
618.378,932.9
618.908,933.7
619.437,933.2
619.967,937.7
620.496,933.6
621.025,937.7
621.555,945.6
622.084,970.4
622.613,962.5
623.142,936.4
623.671,929.9
624.2,930.6
624.729,932.7
625.258,935.0
625.786,943.6
626.315,960.2
626.844,1159.8
627.372,1596.1
627.901,1300.0
628.429,1477.0
628.957,1357.6
629.486,1243.5
630.014,1142.2
630.542,1122.5
631.07,1016.8
631.598,950.3
632.126,941.8
632.654,936.8
633.182,937.5
633.71,925.6
634.237,924.6
634.765,928.0
635.293,920.4
635.82,921.9
636.348,920.7
636.875,919.7
637.403,920.4
637.93,920.7
638.458,915.6
638.985,914.1
639.512,912.4
640.039,915.9
640.566,920.8
641.093,913.0
641.62,913.5
642.147,917.8
642.674,915.4
643.201,914.4
643.728,917.0
644.255,913.1
644.781,913.9
645.308,915.9
645.835,913.5
646.361,917.1
646.888,914.1
647.414,913.3
647.941,915.9
648.467,911.1
648.993,911.9
649.52,912.1
650.046,911.7
650.572,908.0
651.098,910.5
651.625,909.4
652.151,908.1
652.677,907.3
653.203,908.3
653.729,909.6
654.255,904.9
654.78,904.3
655.306,907.4
655.832,907.1
656.358,904.7
656.884,904.5
657.409,902.5
657.935,899.0
658.461,901.4
658.986,899.2
659.512,900.4
660.037,898.0
660.563,896.4
661.088,893.4
661.614,890.9
662.139,887.8
662.664,886.1
663.058,885.6

File: VLFR_02-HDPE_nobio_Raman_aa962f45.csv
nm,Intensity
526.486,830.9
527.033,830.2
527.579,829.8
528.126,830.0
528.672,830.4
529.219,830.2
529.765,830.3
530.311,829.7
530.857,829.2
531.403,829.9
531.948,832.6
532.494,830.8
533.039,830.9
533.585,831.8
534.13,898.7
534.675,900.3
535.22,893.8
535.764,892.8
536.309,890.8
536.854,891.1
537.398,891.7
537.942,891.1
538.486,890.1
539.03,888.7
539.574,891.3
540.118,889.8
540.662,892.7
541.205,892.2
541.749,893.8
542.292,897.0
542.835,901.7
543.378,895.7
543.921,900.6
544.464,896.4
545.006,900.8
545.549,900.0
546.091,900.7
546.634,903.3
547.176,903.8
547.718,901.8
548.26,902.5
548.802,903.0
549.343,903.3
549.885,904.7
550.426,905.7
550.968,906.4
551.509,903.7
552.05,903.5
552.591,908.2
553.132,902.4
553.673,910.1
554.214,908.1
554.754,909.3
555.295,909.0
555.835,915.4
556.375,914.9
556.915,917.5
557.455,917.0
557.995,921.1
558.535,917.6
559.075,921.0
559.614,921.7
560.154,921.1
560.693,920.7
561.232,924.5
561.772,924.5
562.311,927.5
562.85,928.8
563.388,932.5
563.927,946.6
564.466,945.0
565.004,951.1
565.543,949.9
566.081,962.0
566.619,940.4
567.157,938.2
567.695,939.5
568.233,933.9
568.771,942.5
569.309,938.7
569.846,946.3
570.384,947.7
570.921,946.8
571.458,969.6
571.995,960.5
572.532,960.6
573.069,960.8
573.606,965.4
574.143,972.9
574.68,970.4
575.216,972.7
575.753,986.5
576.289,998.3
576.825,995.6
577.361,993.1
577.897,989.4
578.433,997.8
578.969,995.8
579.505,1006.7
580.041,1005.4
580.576,1017.2
581.112,1017.0
581.647,1021.3
582.183,1035.3
582.718,1038.1
583.253,1039.5
583.788,1045.9
584.323,1050.1
584.858,1055.3
585.392,1069.4
585.927,1074.1
586.462,1087.8
586.996,1097.8
587.53,1112.9
588.065,1117.9
588.599,1132.0
589.133,1141.5
589.667,1154.8
590.201,1159.6
590.735,1174.2
591.268,1185.8
591.802,1192.3
592.335,1199.9
592.869,1201.2
593.402,1201.1
593.936,1210.1
594.469,1219.0
595.002,1216.5
595.535,1223.9
596.068,1237.7
596.601,1245.3
597.133,1250.7
597.666,1262.4
598.199,1279.4
598.731,1293.0
599.264,1291.8
599.796,1294.0
600.328,1304.0
600.86,1303.1
601.393,1300.5
601.925,1303.0
602.457,1282.3
602.988,1291.2
603.52,1274.3
604.052,1270.9
604.583,1244.5
605.115,1229.6
605.646,1220.0
606.178,1202.1
606.709,1187.3
607.24,1178.7
607.771,1170.7
608.302,1166.5
608.833,1154.6
609.364,1148.3
609.895,1145.7
610.426,1141.8
610.957,1130.1
611.487,1125.9
612.018,1124.9
612.548,1129.8
613.078,1128.0
613.609,1120.9
614.139,1120.2
614.669,1112.5
615.199,1109.4
615.729,1106.1
616.259,1102.3
616.789,1099.8
617.319,1097.5
617.849,1102.2
618.378,1097.8
618.908,1087.5
619.437,1092.8
619.967,1083.1
620.496,1082.9
621.025,1082.7
621.555,1076.2
622.084,1081.3
622.613,1088.7
623.142,1080.8
623.671,1076.6
624.2,1083.1
624.729,1084.0
625.258,1075.2
625.786,1080.5
626.315,1087.1
626.844,1113.7
627.372,1205.1
627.901,1160.0
628.429,1183.5
628.957,1185.6
629.486,1163.0
630.014,1150.4
630.542,1144.8
631.07,1114.0
631.598,1099.0
632.126,1088.7
632.654,1088.8
633.182,1081.0
633.71,1078.0
634.237,1082.6
634.765,1083.2
635.293,1083.3
635.82,1077.6
636.348,1089.4
636.875,1090.9
637.403,1091.0
637.93,1083.1
638.458,1092.8
638.985,1090.1
639.512,1089.7
640.039,1091.3
640.566,1095.4
641.093,1100.4
641.62,1096.2
642.147,1104.5
642.674,1107.0
643.201,1104.9
643.728,1109.6
644.255,1107.0
644.781,1106.2
645.308,1107.7
645.835,1113.3
646.361,1113.2
646.888,1110.6
647.414,1115.9
647.941,1121.9
648.467,1117.3
648.993,1111.6
649.52,1113.8
650.046,1124.6
650.572,1116.3
651.098,1117.1
651.625,1116.4
652.151,1117.8
652.677,1118.5
653.203,1123.8
653.729,1127.7
654.255,1126.8
654.78,1117.1
655.306,1122.5
655.832,1120.7
656.358,1115.1
656.884,1118.2
657.409,1111.8
657.935,1110.5
658.461,1104.6
658.986,1100.4
659.512,1103.0
660.037,1094.7
660.563,1081.2
661.088,1077.4
661.614,1071.2
662.139,1071.2
662.664,1060.6
663.058,1057.8

File: VLFR_02-HDPE_nobio_Raman_ab8ca0bb.csv
nm,Intensity
526.508,829.8
527.055,829.7
527.602,828.5
528.149,830.2
528.695,830.3
529.241,830.8
529.787,829.5
530.334,828.6
530.879,829.5
531.425,829.4
531.971,831.6
532.516,831.6
533.062,829.5
533.607,830.0
534.152,908.8
534.697,915.2
535.242,912.2
535.786,873.7
536.331,861.9
536.876,855.3
537.42,852.9
537.964,855.9
538.508,854.1
539.052,847.5
539.596,846.9
540.14,847.3
540.683,844.7
541.227,845.7
541.77,844.7
542.313,847.1
542.856,843.1
543.399,842.8
543.942,843.7
544.485,844.4
545.027,842.0
545.57,843.4
546.112,843.4
546.654,842.5
547.196,844.9
547.738,843.1
548.28,843.7
548.822,842.5
549.363,842.4
549.905,844.2
550.446,842.5
550.988,842.8
551.529,843.0
552.07,843.9
552.611,845.5
553.152,847.9
553.692,846.5
554.233,847.3
554.773,848.3
555.314,847.0
555.854,848.4
556.394,850.2
556.934,853.7
557.474,856.2
558.014,852.5
558.553,856.0
559.093,853.3
559.632,852.1
560.172,850.9
560.711,850.8
561.25,851.0
561.789,852.3
562.328,855.0
562.867,855.0
563.406,861.0
563.944,955.9
564.483,878.9
565.021,872.3
565.559,863.8
566.098,927.2
566.636,864.9
567.174,862.0
567.711,875.6
568.249,857.0
568.787,860.3
569.324,857.2
569.862,860.5
570.399,863.4
570.936,868.9
571.474,1012.7
572.011,891.1
572.548,868.0
573.084,863.4
573.621,864.2
574.158,873.8
574.694,864.8
575.231,866.7
575.767,908.4
576.303,1045.1
576.84,967.3
577.376,938.8
577.912,880.4
578.447,873.8
578.983,868.7
579.519,876.1
580.054,873.9
580.59,875.7
581.125,877.7
581.661,880.0
582.196,881.6
582.731,881.1
583.266,883.6
583.801,886.2
584.336,887.1
584.87,890.8
585.405,895.3
585.94,893.8
586.474,898.0
587.008,901.2
587.543,899.0
588.077,905.6
588.611,903.8
589.145,908.1
589.679,909.1
590.213,914.2
590.747,916.7
591.28,912.8
591.814,916.4
592.347,917.3
592.881,917.8
593.414,916.0
593.947,918.2
594.48,921.4
595.014,918.9
595.547,922.8
596.079,923.0
596.612,924.4
597.145,920.9
597.678,923.1
598.21,930.2
598.743,928.0
599.275,929.5
599.807,931.1
600.34,930.8
600.872,930.5
601.404,928.9
601.936,933.4
602.468,926.9
603.0,926.4
603.532,924.9
604.063,926.1
604.595,920.8
605.126,917.0
605.658,911.0
606.189,910.9
606.721,909.7
607.252,908.2
607.783,907.1
608.314,906.6
608.845,903.3
609.376,906.2
609.907,901.9
610.438,898.3
610.968,905.9
611.499,897.3
612.03,897.0
612.56,899.6
613.091,896.2
613.621,898.6
614.151,895.2
614.681,895.3
615.212,898.3
615.742,897.8
616.272,897.3
616.802,903.0
617.332,910.0
617.861,908.0
618.391,907.4
618.921,910.7
619.45,913.0
619.98,914.2
620.509,913.8
621.039,920.9
621.568,941.0
622.097,990.3
622.627,984.5
623.156,927.3
623.685,910.1
624.214,910.1
624.743,910.4
625.272,914.9
625.801,925.3
626.33,980.3
626.858,1458.8
627.387,2235.1
627.916,1661.3
628.444,2118.9
628.973,1567.5
629.501,1410.1
630.029,1246.4
630.558,1208.3
631.086,1036.1
631.614,932.6
632.142,913.8
632.67,909.0
633.198,903.5
633.726,896.5
634.254,893.2
634.782,888.0
635.31,888.6
635.838,888.0
636.365,890.2
636.893,888.1
637.421,882.4
637.948,879.5
638.476,878.6
639.003,881.3
639.531,879.4
640.058,880.5
640.585,878.1
641.113,883.0
641.64,880.1
642.167,881.6
642.694,880.8
643.221,880.7
643.748,877.7
644.275,880.1
644.802,875.3
645.329,878.3
645.856,873.3
646.382,877.1
646.909,873.3
647.436,879.2
647.962,877.7
648.489,875.1
649.016,877.3
649.542,872.0
650.069,877.4
650.595,874.7
651.121,876.3
651.648,875.2
652.174,875.0
652.7,876.2
653.227,876.6
653.753,874.5
654.279,875.4
654.805,874.5
655.331,872.2
655.857,874.9
656.383,872.0
656.909,872.7
657.435,872.3
657.961,873.0
658.487,874.8
659.013,870.2
659.538,870.9
660.064,871.8
660.59,869.3
661.116,868.5
661.641,867.2
662.167,867.6
662.692,864.5
663.087,865.5

File: VLFR_02-HDPE_nobio_Raman_acacc930.csv
nm,Intensity
526.5,828.3
527.047,828.2
527.594,828.6
528.14,829.3
528.687,829.9
529.233,830.0
529.779,830.4
530.325,829.0
530.871,828.6
531.417,829.5
531.962,831.9
532.508,830.7
533.053,828.5
533.599,829.4
534.144,874.3
534.689,866.7
535.234,858.6
535.778,850.4
536.323,848.1
536.867,845.3
537.412,843.9
537.956,843.7
538.5,842.4
539.044,840.7
539.588,840.4
540.132,838.4
540.675,838.4
541.219,838.0
541.762,838.3
542.305,838.5
542.848,837.9
543.391,837.4
543.934,837.6
544.477,837.6
545.02,836.3
545.562,837.1
546.105,839.9
546.647,837.5
547.189,837.4
547.731,839.6
548.273,836.7
548.815,838.9
549.356,839.6
549.898,839.6
550.439,839.9
550.981,839.8
551.522,841.4
552.063,840.2
552.604,841.2
553.145,841.3
553.686,840.7
554.226,842.9
554.767,843.4
555.307,842.6
555.848,845.1
556.388,846.5
556.928,847.6
557.468,850.0
558.008,850.4
558.547,851.1
559.087,851.3
559.626,851.5
560.166,852.0
560.705,848.2
561.244,850.9
561.783,850.6
562.322,852.8
562.861,852.9
563.4,859.8
563.939,923.4
564.477,873.9
565.015,869.7
565.554,867.2
566.092,986.8
566.63,867.8
567.168,860.3
567.706,859.1
568.244,855.9
568.781,855.5
569.319,854.9
569.857,856.6
570.394,857.5
570.931,865.0
571.468,970.1
572.005,875.7
572.542,858.0
573.079,852.9
573.616,853.1
574.153,863.5
574.689,852.9
575.226,858.7
575.762,924.9
576.298,924.2
576.834,900.4
577.371,877.2
577.907,856.6
578.442,852.0
578.978,849.0
579.514,851.4
580.049,848.9
580.585,850.7
581.12,848.6
581.656,850.5
582.191,850.9
582.726,850.9
583.261,847.7
583.796,848.4
584.331,848.1
584.865,846.0
585.4,848.1
585.935,852.0
586.469,848.5
587.004,848.4
587.538,847.9
588.072,848.1
588.606,850.9
589.14,848.7
589.674,847.1
590.208,847.9
590.742,847.8
591.275,848.8
591.809,849.5
592.342,850.0
592.876,848.3
593.409,846.1
593.942,848.8
594.476,849.3
595.009,849.3
595.542,849.9
596.075,851.1
596.607,850.4
597.14,850.7
597.673,852.2
598.205,854.8
598.738,853.5
599.27,851.9
599.803,855.1
600.335,853.8
600.867,851.8
601.399,852.8
601.931,852.0
602.463,854.5
602.995,851.6
603.527,853.0
604.058,853.5
604.59,854.1
605.122,852.3
605.653,851.4
606.184,852.7
606.716,850.3
607.247,850.2
607.778,852.9
608.309,851.3
608.84,852.7
609.371,849.7
609.902,852.5
610.433,853.0
610.964,856.9
611.494,856.5
612.025,853.2
612.556,853.1
613.086,855.1
613.616,851.5
614.147,851.7
614.677,852.7
615.207,853.2
615.737,853.3
616.267,853.8
616.797,855.4
617.327,857.7
617.857,859.5
618.387,857.8
618.917,856.4
619.446,860.9
619.976,858.2
620.505,860.9
621.035,861.6
621.564,863.9
622.093,877.9
622.623,876.6
623.152,859.8
623.681,860.5
624.21,858.4
624.739,858.8
625.268,863.8
625.797,866.4
626.326,881.6
626.855,1003.3
627.383,1290.9
627.912,1109.2
628.441,1196.0
628.969,1159.3
629.498,1090.8
630.026,1023.9
630.554,1010.7
631.083,925.8
631.611,877.7
632.139,868.5
632.667,862.4
633.195,856.5
633.724,855.0
634.252,852.4
634.779,853.0
635.307,851.3
635.835,850.7
636.363,851.9
636.891,849.2
637.418,848.7
637.946,846.4
638.474,843.8
639.001,847.1
639.529,844.9
640.056,845.6
640.583,845.7
641.111,846.1
641.638,845.8
642.165,846.7
642.692,845.4
643.22,845.2
643.747,844.3
644.274,846.8
644.801,844.2
645.328,844.3
645.854,844.1
646.381,844.4
646.908,844.7
647.435,844.7
647.962,843.6
648.488,844.0
649.015,846.7
649.542,842.9
650.068,843.7
650.595,842.1
651.121,845.9
651.648,843.5
652.174,845.2
652.7,844.1
653.227,843.4
653.753,843.9
654.279,842.6
654.805,843.8
655.331,844.5
655.858,844.2
656.384,843.5
656.91,844.4
657.436,842.0
657.962,844.0
658.488,845.7
659.013,844.0
659.539,843.2
660.065,841.9
660.591,845.7
661.117,841.9
661.642,843.3
662.168,842.6
662.694,841.6
663.088,840.7

File: VLFR_02-HDPE_nobio_Raman_b6a59e3f.csv
nm,Intensity
526.5,828.3
527.047,829.6
527.594,829.7
528.14,828.6
528.687,829.1
529.233,829.5
529.779,830.8
530.325,829.7
530.871,830.3
531.417,829.8
531.962,834.8
532.508,830.4
533.053,830.1
533.599,830.3
534.144,951.0
534.689,936.9
535.234,919.7
535.778,912.4
536.323,902.3
536.867,900.5
537.412,897.2
537.956,892.9
538.5,893.6
539.044,889.3
539.588,886.8
540.132,888.6
540.675,886.9
541.219,885.6
541.762,885.8
542.305,879.4
542.848,883.3
543.391,880.1
543.934,881.0
544.477,881.2
545.02,881.0
545.562,880.8
546.105,882.2
546.647,881.5
547.189,881.4
547.731,878.5
548.273,882.6
548.815,882.2
549.356,881.5
549.898,881.3
550.439,882.7
550.981,882.2
551.522,880.1
552.063,880.7
552.604,881.3
553.145,882.7
553.686,886.1
554.226,884.0
554.767,887.9
555.307,883.9
555.848,885.7
556.388,889.2
556.928,896.1
557.468,893.5
558.008,901.1
558.547,904.9
559.087,901.8
559.626,903.4
560.166,904.1
560.705,906.2
561.244,905.9
561.783,905.0
562.322,921.2
562.861,922.0
563.4,929.0
563.939,1045.8
564.477,954.9
565.015,949.3
565.554,946.6
566.092,1171.2
566.63,957.1
567.168,939.8
567.706,941.0
568.244,938.1
568.781,945.8
569.319,950.5
569.857,951.1
570.394,961.9
570.931,967.1
571.468,1150.6
572.005,998.6
572.542,977.7
573.079,974.9
573.616,985.4
574.153,1002.8
574.689,1001.4
575.226,1022.2
575.762,1142.9
576.298,1146.2
576.834,1124.1
577.371,1108.9
577.907,1099.2
578.442,1118.4
578.978,1151.4
579.514,1171.6
580.049,1200.6
580.585,1227.0
581.12,1252.7
581.656,1289.7
582.191,1323.5
582.726,1358.1
583.261,1392.6
583.796,1411.8
584.331,1423.2
584.865,1455.0
585.4,1475.5
585.935,1490.3
586.469,1533.9
587.004,1545.3
587.538,1567.9
588.072,1576.0
588.606,1593.2
589.14,1607.2
589.674,1630.9
590.208,1653.4
590.742,1695.4
591.275,1698.8
591.809,1718.0
592.342,1729.4
592.876,1727.3
593.409,1745.8
593.942,1733.9
594.476,1730.2
595.009,1733.8
595.542,1707.9
596.075,1705.7
596.607,1696.0
597.14,1679.6
597.673,1678.8
598.205,1656.3
598.738,1651.2
599.27,1643.7
599.803,1637.8
600.335,1620.6
600.867,1598.9
601.399,1588.1
601.931,1579.9
602.463,1572.1
602.995,1556.4
603.527,1543.2
604.058,1519.4
604.59,1492.8
605.122,1465.8
605.653,1435.6
606.184,1427.3
606.716,1416.4
607.247,1390.9
607.778,1382.8
608.309,1357.7
608.84,1353.8
609.371,1340.5
609.902,1326.7
610.433,1313.9
610.964,1301.9
611.494,1284.5
612.025,1282.8
612.556,1271.9
613.086,1275.0
613.616,1253.1
614.147,1244.5
614.677,1242.7
615.207,1223.0
615.737,1225.3
616.267,1207.2
616.797,1208.5
617.327,1200.6
617.857,1194.9
618.387,1189.3
618.917,1187.1
619.446,1177.2
619.976,1181.1
620.505,1175.2
621.035,1165.5
621.564,1170.0
622.093,1180.7
622.623,1186.6
623.152,1166.8
623.681,1169.3
624.21,1163.7
624.739,1163.4
625.268,1167.8
625.797,1174.8
626.326,1193.5
626.855,1394.0
627.383,1810.9
627.912,1539.7
628.441,1664.8
628.969,1613.6
629.498,1522.1
630.026,1435.1
630.554,1422.5
631.083,1301.6
631.611,1240.1
632.139,1229.4
632.667,1218.4
633.195,1220.0
633.724,1228.2
634.252,1225.2
634.779,1233.8
635.307,1236.9
635.835,1248.8
636.363,1247.4
636.891,1259.8
637.418,1255.2
637.946,1257.2
638.474,1260.9
639.001,1263.9
639.529,1271.7
640.056,1276.4
640.583,1279.2
641.111,1283.4
641.638,1280.2
642.165,1293.8
642.692,1290.6
643.22,1287.8
643.747,1286.9
644.274,1280.9
644.801,1292.4
645.328,1283.7
645.854,1296.0
646.381,1283.9
646.908,1289.7
647.435,1284.2
647.962,1286.1
648.488,1277.7
649.015,1269.8
649.542,1266.7
650.068,1254.4
650.595,1258.6
651.121,1236.7
651.648,1245.6
652.174,1239.2
652.7,1243.7
653.227,1234.0
653.753,1230.1
654.279,1222.0
654.805,1218.3
655.331,1207.1
655.858,1210.0
656.384,1194.4
656.91,1194.1
657.436,1183.2
657.962,1175.9
658.488,1178.6
659.013,1163.7
659.539,1158.0
660.065,1152.7
660.591,1140.6
661.117,1131.6
661.642,1119.0
662.168,1112.3
662.694,1103.1
663.088,1090.8