Folder: MPX_specDB/spectra (part 111)

File: VLFR_07-PET_nobio_Raman_5fa93e9b.csv
nm,Intensity
791.588,10599.2
792.685,9964.9
793.781,9636.8
794.878,9375.4
795.975,9141.6
797.071,9260.8
798.168,9309.3
799.264,9245.2
800.36,9166.1
801.456,9183.3
802.552,9195.5
803.648,8923.3
804.744,8842.1
805.84,8849.0
806.936,8806.1
808.031,8751.6
809.127,8708.5
810.222,8514.9
811.317,8494.5
812.412,8557.0
813.507,8377.3
814.602,8273.2
815.697,8291.2
816.792,8232.0
817.887,8154.8
818.981,8091.8
820.076,8070.6
821.17,8014.6
822.265,7983.2
823.359,7896.0
824.453,7825.7
825.547,7923.2
826.641,7830.4
827.735,7662.7
828.828,7635.2
829.922,7575.9
831.016,7689.7
832.109,7506.8
833.202,7456.1
834.295,7419.0
835.388,7308.0
836.481,7356.0
837.574,7347.7
838.667,7366.0
839.76,7249.5
840.852,7391.1
841.945,7449.8
843.037,7254.1
844.129,7129.5
845.221,6928.1
846.314,6924.0
847.405,6881.9
848.497,6807.2
849.589,6777.8
850.681,6714.8
851.772,6654.8
852.863,6749.7
853.955,6653.3
855.046,6596.5
856.137,6524.2
857.228,6514.7
858.318,6635.5
859.409,6568.1
860.5,6632.0
861.59,6477.4
862.681,6424.4
863.771,6360.1
864.861,6422.7
865.951,6287.1
867.041,6224.9
868.131,6200.4
869.22,6229.6
870.31,6277.5
871.399,6400.5
872.488,6463.8
873.578,6442.3
874.667,6250.8
875.756,6164.2
876.845,6059.3
877.933,5986.1
879.022,6004.5
880.11,5992.4
881.199,5893.1
882.287,5957.2
883.375,5932.2
884.463,5882.4
885.551,5860.3
886.639,5812.7
887.726,5772.8
888.814,5688.5
889.901,5728.9
890.988,5698.6
892.075,5644.1
893.162,5577.5
894.249,5537.4
895.336,5520.2
896.423,5545.0
897.509,5777.4
898.595,6092.0
899.682,5725.1
900.768,5452.2
901.854,5324.9
902.94,5298.8
904.025,5291.3
905.111,5193.3
906.196,5408.2
907.282,5593.2
908.367,5582.5
909.452,5343.9
910.537,5121.6
911.622,5013.6
912.706,5013.6
913.791,4998.0
914.875,4918.6
915.959,4900.6
917.044,4862.1
918.128,4848.5
919.211,4807.4
920.295,4785.3
921.379,4754.5
922.462,4752.9
923.546,4702.3
924.629,4674.9
925.712,4652.9
926.795,4626.1
927.877,4580.2
928.96,4566.8
930.043,4534.8
931.125,4509.7
932.207,4485.4
933.289,4473.2
934.371,4446.1
935.453,4418.6
936.535,4398.5
937.616,4369.9
938.697,4365.8
939.779,4356.2
940.86,4334.9
941.941,4309.2
943.022,4290.2
944.102,4279.3
945.183,4253.1
946.263,4246.7
947.343,4222.7
948.423,4219.6
949.503,4215.0
950.583,4185.9
951.663,4179.7
952.742,4162.1
953.822,4152.4
954.901,4134.3
955.98,4137.6
957.059,4116.0
958.137,4102.4
959.216,4092.6
960.294,4086.8
961.373,4064.4
962.451,4056.4
963.529,4052.8
964.607,4044.3
965.684,4028.9
966.762,4032.9
967.839,4006.7
968.917,4003.4
969.994,4003.1
971.071,3999.0
972.147,3982.7
973.224,3974.2
974.3,3964.4
975.377,3960.7
976.453,3949.5
977.529,3947.4
978.605,3949.6
979.68,3935.7
980.756,3930.3
981.831,3916.8
982.907,3915.7
983.982,3918.2
985.057,3913.2
986.131,3902.7
987.206,3895.2
988.28,3893.6
989.355,3892.8
990.429,3883.9
991.503,3884.2
992.576,3871.6
993.65,3869.6
994.723,3860.9
995.797,3862.0
996.87,3855.7
997.943,3852.7
999.016,3846.0
1000.09,3844.1
1001.16,3844.6
1002.23,3836.8
1003.31,3836.4
1004.38,3834.2
1005.45,3829.3
1006.52,3826.8
1007.59,3819.7
1008.66,3820.2
1009.73,3817.3
1010.81,3816.1
1011.88,3813.5
1012.95,3809.7
1014.02,3811.4
1015.09,3807.2
1016.16,3805.1
1017.23,3805.7
1018.3,3800.3
1019.37,3798.1
1020.44,3803.9
1021.51,3804.3
1022.58,3804.4
1023.64,3802.3
1024.71,3796.1
1025.78,3795.7
1026.85,3789.8
1027.92,3786.3
1028.99,3783.3
1030.05,3781.9
1031.12,3781.3
1032.19,3781.4
1033.26,3781.9
1034.32,3781.8
1035.39,3784.5
1036.46,3782.5
1037.52,3777.8
1038.59,3773.5
1039.66,3772.1
1040.72,3770.3
1041.79,3770.1
1042.86,3767.3
1043.92,3769.7
1044.99,3767.9
1046.05,3766.0
1047.12,3765.2
1048.18,3764.8
1049.25,3765.7
1050.31,3760.9
1051.37,3764.8
1052.44,3761.6
1053.5,3763.8
1054.57,3762.9
1055.63,3764.0
1056.69,3764.5
1057.76,3761.8
1058.82,3761.3
1059.88,3762.8
1060.95,3762.7
1062.01,3762.3
1063.07,3761.8
1064.13,3760.9
1065.19,3759.9
1066.26,3761.4
1067.32,3760.1
1068.11,3760.4

File: VLFR_07-PET_nobio_Raman_6b30e466.csv
nm,Intensity
791.588,12490.8
792.685,11700.6
793.781,11274.0
794.878,11091.8
795.975,10807.7
797.071,10879.4
798.168,10729.7
799.264,10653.9
800.36,10672.2
801.456,10693.7
802.552,10555.8
803.648,10353.3
804.744,10223.7
805.84,10175.0
806.936,10148.7
808.031,10086.9
809.127,10044.2
810.222,9838.4
811.317,9788.4
812.412,9685.0
813.507,9687.5
814.602,9480.1
815.697,9434.4
816.792,9300.9
817.887,9164.6
818.981,9098.0
820.076,9010.2
821.17,8916.1
822.265,8818.7
823.359,8680.1
824.453,8680.4
825.547,8680.7
826.641,8606.4
827.735,8421.5
828.828,8365.7
829.922,8184.9
831.016,8302.1
832.109,8116.1
833.202,8029.3
834.295,8006.2
835.388,7898.0
836.481,7879.3
837.574,7857.9
838.667,7805.4
839.76,7756.2
840.852,7914.8
841.945,7988.2
843.037,7725.1
844.129,7585.4
845.221,7360.1
846.314,7380.0
847.405,7308.3
848.497,7133.2
849.589,7155.7
850.681,7118.9
851.772,7033.4
852.863,7088.8
853.955,7022.7
855.046,6958.6
856.137,6891.3
857.228,6866.1
858.318,6939.2
859.409,6916.2
860.5,6870.5
861.59,6740.3
862.681,6628.8
863.771,6584.4
864.861,6629.3
865.951,6535.7
867.041,6479.6
868.131,6425.7
869.22,6449.3
870.31,6472.7
871.399,6489.0
872.488,6608.1
873.578,6560.0
874.667,6414.0
875.756,6310.6
876.845,6242.1
877.933,6154.9
879.022,6152.6
880.11,6084.5
881.199,6012.7
882.287,6044.0
883.375,6014.1
884.463,5967.1
885.551,5969.2
886.639,5887.8
887.726,5861.6
888.814,5792.6
889.901,5755.4
890.988,5780.5
892.075,5734.1
893.162,5638.7
894.249,5574.7
895.336,5577.7
896.423,5558.4
897.509,5771.9
898.595,6038.1
899.682,5703.3
900.768,5468.7
901.854,5361.0
902.94,5301.2
904.025,5331.1
905.111,5287.5
906.196,5367.0
907.282,5570.3
908.367,5519.6
909.452,5329.5
910.537,5110.6
911.622,5054.1
912.706,5030.6
913.791,4983.0
914.875,4970.6
915.959,4918.9
917.044,4853.6
918.128,4859.0
919.211,4839.9
920.295,4832.9
921.379,4749.9
922.462,4762.5
923.546,4715.8
924.629,4716.3
925.712,4645.4
926.795,4627.5
927.877,4594.7
928.96,4582.9
930.043,4541.3
931.125,4497.3
932.207,4509.3
933.289,4470.6
934.371,4440.0
935.453,4421.9
936.535,4402.5
937.616,4371.7
938.697,4363.1
939.779,4335.9
940.86,4324.5
941.941,4283.9
943.022,4275.4
944.102,4270.4
945.183,4240.7
946.263,4223.3
947.343,4211.2
948.423,4193.2
949.503,4189.9
950.583,4161.6
951.663,4162.2
952.742,4146.9
953.822,4126.5
954.901,4118.7
955.98,4108.4
957.059,4103.7
958.137,4091.1
959.216,4076.3
960.294,4063.3
961.373,4049.2
962.451,4040.6
963.529,4029.9
964.607,4018.4
965.684,4012.5
966.762,4006.0
967.839,3997.8
968.917,3987.7
969.994,3977.0
971.071,3976.7
972.147,3959.4
973.224,3954.1
974.3,3953.1
975.377,3945.4
976.453,3936.6
977.529,3933.5
978.605,3931.2
979.68,3914.9
980.756,3921.0
981.831,3908.8
982.907,3904.9
983.982,3900.8
985.057,3900.2
986.131,3894.8
987.206,3890.4
988.28,3877.3
989.355,3878.9
990.429,3880.4
991.503,3871.4
992.576,3865.4
993.65,3860.1
994.723,3853.4
995.797,3850.9
996.87,3851.4
997.943,3846.1
999.016,3838.7
1000.09,3838.2
1001.16,3839.5
1002.23,3834.0
1003.31,3827.4
1004.38,3828.1
1005.45,3823.4
1006.52,3826.0
1007.59,3817.4
1008.66,3816.0
1009.73,3814.1
1010.81,3811.0
1011.88,3803.8
1012.95,3808.0
1014.02,3809.2
1015.09,3803.3
1016.16,3803.8
1017.23,3800.7
1018.3,3796.6
1019.37,3797.3
1020.44,3797.2
1021.51,3797.5
1022.58,3799.3
1023.64,3797.1
1024.71,3795.5
1025.78,3790.3
1026.85,3787.7
1027.92,3786.3
1028.99,3783.5
1030.05,3780.3
1031.12,3780.6
1032.19,3781.1
1033.26,3779.8
1034.32,3780.5
1035.39,3779.7
1036.46,3782.8
1037.52,3777.2
1038.59,3775.5
1039.66,3776.4
1040.72,3771.3
1041.79,3771.1
1042.86,3773.0
1043.92,3769.7
1044.99,3768.1
1046.05,3768.4
1047.12,3767.3
1048.18,3768.1
1049.25,3769.2
1050.31,3764.5
1051.37,3764.1
1052.44,3765.3
1053.5,3765.3
1054.57,3765.9
1055.63,3764.8
1056.69,3764.4
1057.76,3765.9
1058.82,3764.6
1059.88,3766.6
1060.95,3764.6
1062.01,3763.6
1063.07,3762.7
1064.13,3764.0
1065.19,3762.2
1066.26,3763.0
1067.32,3763.8
1068.11,3763.2

File: VLFR_07-PET_nobio_Raman_6c9578e7.csv
nm,Intensity
791.588,11208.1
792.685,10339.5
793.781,9789.6
794.878,9612.1
795.975,9463.2
797.071,9526.8
798.168,9475.9
799.264,9577.1
800.36,9575.7
801.456,9408.7
802.552,9488.7
803.648,9342.5
804.744,9273.8
805.84,9128.6
806.936,9105.3
808.031,9051.8
809.127,8841.8
810.222,8853.2
811.317,8859.6
812.412,8757.2
813.507,8711.0
814.602,8682.2
815.697,8540.9
816.792,8565.0
817.887,8441.1
818.981,8312.7
820.076,8358.9
821.17,8262.6
822.265,8195.6
823.359,8156.6
824.453,8067.0
825.547,8196.7
826.641,8031.0
827.735,7915.0
828.828,7824.3
829.922,7830.2
831.016,7856.4
832.109,7700.0
833.202,7650.2
834.295,7596.0
835.388,7517.9
836.481,7478.6
837.574,7571.5
838.667,7533.0
839.76,7498.9
840.852,7613.2
841.945,7646.4
843.037,7427.0
844.129,7338.8
845.221,7113.4
846.314,6984.3
847.405,7033.3
848.497,6950.5
849.589,6899.4
850.681,6868.0
851.772,6841.2
852.863,6865.6
853.955,6855.3
855.046,6771.1
856.137,6756.2
857.228,6681.5
858.318,6749.9
859.409,6878.0
860.5,6832.6
861.59,6590.4
862.681,6560.1
863.771,6594.6
864.861,6562.2
865.951,6465.8
867.041,6388.3
868.131,6329.3
869.22,6417.2
870.31,6355.2
871.399,6534.9
872.488,6721.9
873.578,6612.7
874.667,6450.0
875.756,6244.3
876.845,6240.5
877.933,6123.6
879.022,6132.7
880.11,6110.3
881.199,6016.6
882.287,6095.7
883.375,6058.5
884.463,6028.1
885.551,6020.7
886.639,5952.0
887.726,5846.7
888.814,5895.6
889.901,5773.9
890.988,5835.7
892.075,5794.9
893.162,5727.9
894.249,5669.7
895.336,5639.9
896.423,5672.8
897.509,5964.8
898.595,6385.1
899.682,5920.3
900.768,5501.8
901.854,5440.7
902.94,5440.2
904.025,5389.8
905.111,5411.6
906.196,5481.1
907.282,5877.5
908.367,5808.5
909.452,5542.0
910.537,5247.9
911.622,5179.4
912.706,5113.3
913.791,5075.0
914.875,5063.7
915.959,5024.7
917.044,5015.9
918.128,4932.9
919.211,4940.1
920.295,4912.4
921.379,4866.5
922.462,4818.7
923.546,4797.8
924.629,4786.1
925.712,4769.1
926.795,4719.6
927.877,4713.6
928.96,4689.4
930.043,4652.8
931.125,4598.2
932.207,4567.1
933.289,4549.4
934.371,4529.8
935.453,4510.8
936.535,4472.6
937.616,4466.1
938.697,4417.3
939.779,4403.7
940.86,4404.7
941.941,4388.1
943.022,4350.7
944.102,4339.6
945.183,4323.7
946.263,4309.7
947.343,4305.1
948.423,4257.6
949.503,4277.0
950.583,4235.2
951.663,4217.4
952.742,4232.4
953.822,4184.5
954.901,4183.0
955.98,4170.1
957.059,4146.3
958.137,4145.5
959.216,4143.9
960.294,4112.3
961.373,4096.3
962.451,4099.2
963.529,4074.1
964.607,4075.4
965.684,4066.5
966.762,4051.5
967.839,4051.0
968.917,4037.1
969.994,4027.7
971.071,4016.0
972.147,4005.2
973.224,4005.9
974.3,3990.0
975.377,3982.3
976.453,3977.2
977.529,3960.0
978.605,3961.8
979.68,3953.9
980.756,3938.9
981.831,3941.8
982.907,3935.4
983.982,3934.4
985.057,3922.2
986.131,3916.3
987.206,3906.7
988.28,3904.9
989.355,3903.6
990.429,3892.9
991.503,3887.2
992.576,3886.6
993.65,3877.4
994.723,3878.0
995.797,3866.1
996.87,3866.7
997.943,3865.4
999.016,3860.4
1000.09,3851.4
1001.16,3848.5
1002.23,3845.0
1003.31,3846.8
1004.38,3841.4
1005.45,3832.4
1006.52,3835.0
1007.59,3826.4
1008.66,3823.5
1009.73,3824.7
1010.81,3822.2
1011.88,3816.2
1012.95,3817.0
1014.02,3811.1
1015.09,3812.4
1016.16,3811.5
1017.23,3808.5
1018.3,3805.1
1019.37,3802.8
1020.44,3802.0
1021.51,3807.6
1022.58,3806.8
1023.64,3806.2
1024.71,3801.6
1025.78,3798.4
1026.85,3792.0
1027.92,3790.0
1028.99,3786.5
1030.05,3783.2
1031.12,3783.7
1032.19,3779.2
1033.26,3783.0
1034.32,3786.1
1035.39,3786.5
1036.46,3781.7
1037.52,3778.2
1038.59,3778.0
1039.66,3771.3
1040.72,3771.9
1041.79,3769.2
1042.86,3767.3
1043.92,3766.5
1044.99,3765.1
1046.05,3764.4
1047.12,3764.4
1048.18,3764.8
1049.25,3761.9
1050.31,3761.4
1051.37,3761.9
1052.44,3761.9
1053.5,3760.1
1054.57,3759.6
1055.63,3760.0
1056.69,3759.6
1057.76,3761.7
1058.82,3759.9
1059.88,3760.1
1060.95,3759.2
1062.01,3759.7
1063.07,3758.5
1064.13,3757.8
1065.19,3761.9
1066.26,3757.2
1067.32,3757.6
1068.11,3759.2

File: VLFR_07-PET_nobio_Raman_6e0086b3.csv
nm,Intensity
791.75,12956.2
792.846,12093.2
793.942,11581.5
795.037,11596.8
796.133,11257.5
797.228,11362.0
798.324,11270.5
799.419,11286.3
800.514,11097.6
801.61,11251.5
802.705,11040.8
803.8,10791.7
804.894,10731.2
805.989,10591.2
807.084,10426.3
808.178,10304.3
809.273,10445.8
810.367,10181.8
811.461,10244.3
812.556,10100.3
813.65,10002.1
814.744,10029.5
815.837,9886.5
816.931,10026.0
818.025,9752.55
819.118,9704.5
820.212,9628.75
821.305,9545.65
822.398,9383.6
823.491,9415.5
824.585,9258.15
825.677,9692.55
826.77,9078.4
827.863,9038.25
828.956,8887.65
830.048,9055.55
831.14,8770.0
832.233,8611.0
833.325,8683.45
834.417,8499.6
835.509,8477.7
836.601,8520.85
837.692,8472.95
838.784,8347.65
839.876,8426.3
840.967,8791.75
842.058,8299.45
843.149,8260.2
844.24,8027.3
845.331,7766.5
846.422,7792.5
847.513,7755.75
848.604,7648.75
849.694,7550.4
850.784,7596.85
851.875,7583.55
852.965,7550.1
854.055,7574.3
855.145,7483.4
856.235,7381.05
857.324,7395.55
858.414,7549.95
859.503,7583.7
860.593,7374.9
861.682,7271.85
862.771,7126.2
863.86,7234.85
864.949,7231.55
866.038,7064.5
867.126,7039.65
868.215,6955.75
869.303,7009.95
870.391,7019.2
871.479,7343.1
872.567,7395.0
873.655,7289.0
874.743,6954.8
875.831,6759.8
876.918,6730.5
878.006,6701.5
879.093,6647.15
880.18,6636.05
881.267,6567.45
882.354,6596.85
883.441,6462.4
884.527,6449.3
885.614,6448.3
886.7,6370.5
887.786,6229.4
888.872,6252.65
889.958,6168.75
891.044,6210.65
892.13,6121.15
893.216,6037.85
894.301,5978.7
895.386,6022.7
896.472,5992.9
897.557,6659.0
898.642,6592.75
899.726,5948.9
900.811,5791.0
901.896,5642.95
902.98,5611.4
904.064,5653.7
905.148,5631.05
906.232,5961.8
907.316,6215.05
908.4,5909.1
909.484,5562.95
910.567,5443.45
911.65,5309.8
912.734,5351.0
913.817,5240.95
914.9,5199.95
915.982,5145.5
917.065,5097.05
918.147,5127.9
919.23,5094.75
920.312,5041.95
921.394,4971.25
922.476,4975.85
923.558,4931.9
924.639,4940.4
925.721,4884.25
926.802,4835.55
927.884,4823.65
928.965,4772.25
930.046,4714.2
931.126,4731.25
932.207,4690.2
933.288,4652.85
934.368,4649.5
935.448,4609.3
936.528,4606.9
937.608,4524.15
938.688,4515.65
939.767,4510.1
940.847,4487.25
941.926,4444.3
943.005,4438.2
944.084,4414.35
945.163,4426.05
946.242,4354.25
947.321,4362.65
948.399,4330.9
949.477,4322.95
950.556,4289.75
951.634,4276.6
952.711,4265.95
953.789,4245.7
954.867,4225.25
955.944,4216.25
957.021,4201.0
958.098,4178.25
959.175,4166.45
960.252,4153.3
961.328,4122.4
962.405,4129.65
963.481,4119.75
964.557,4093.7
965.633,4081.35
966.709,4061.2
967.785,4063.55
968.86,4055.35
969.936,4050.0
971.011,4022.2
972.086,4019.5
973.161,3997.0
974.235,3988.55
975.31,3985.2
976.384,3971.5
977.459,3970.65
978.533,3960.9
979.607,3942.05
980.68,3933.85
981.754,3928.9
982.827,3925.7
983.901,3920.5
984.974,3912.8
986.047,3891.65
987.119,3894.75
988.192,3894.3
989.264,3878.0
990.337,3869.4
991.409,3863.55
992.481,3854.35
993.553,3851.5
994.624,3845.8
995.696,3841.4
996.767,3835.7
997.838,3833.0
998.909,3819.75
999.98,3819.25
1001.05,3815.95
1002.12,3808.15
1003.19,3811.85
1004.26,3807.0
1005.33,3797.5
1006.4,3791.8
1007.47,3792.45
1008.54,3784.95
1009.61,3782.4
1010.68,3780.25
1011.75,3775.2
1012.82,3774.0
1013.88,3769.15
1014.95,3771.15
1016.02,3763.7
1017.09,3764.8
1018.16,3761.4
1019.22,3759.5
1020.29,3763.35
1021.36,3769.05
1022.43,3768.7
1023.49,3758.8
1024.56,3757.5
1025.63,3749.8
1026.69,3744.8
1027.76,3741.3
1028.83,3737.3
1029.89,3732.0
1030.96,3735.1
1032.02,3731.75
1033.09,3736.3
1034.15,3741.65
1035.22,3738.7
1036.28,3732.25
1037.35,3728.2
1038.41,3725.1
1039.48,3724.55
1040.54,3723.1
1041.6,3721.15
1042.67,3718.2
1043.73,3716.0
1044.79,3715.55
1045.86,3716.4
1046.92,3715.1
1047.98,3714.2
1049.05,3714.2
1050.11,3713.55
1051.17,3712.9
1052.23,3712.15
1053.29,3711.45
1054.36,3710.55
1055.42,3713.25
1056.48,3709.85
1057.54,3709.0
1058.6,3710.45
1059.66,3711.2
1060.72,3709.8
1061.78,3709.2
1062.84,3709.85
1063.9,3710.15
1064.96,3708.55
1066.02,3708.4
1067.08,3707.95
1067.88,3706.9

File: VLFR_07-PET_nobio_Raman_7d60e8a5.csv
nm,Intensity
791.75,7329.4
792.846,7231.0
793.942,7093.1
795.037,7034.0
796.133,7077.8
797.228,6939.15
798.324,6941.4
799.419,6937.8
800.514,6951.55
801.61,6962.1
802.705,6879.25
803.8,6778.55
804.894,6744.2
805.989,6760.6
807.084,6675.9
808.178,6653.8
809.273,6603.05
810.367,6551.05
811.461,6522.8
812.556,6504.35
813.65,6475.1
814.744,6432.8
815.837,6368.2
816.931,6338.55
818.025,6295.3
819.118,6291.25
820.212,6216.15
821.305,6181.85
822.398,6117.7
823.491,6080.9
824.585,6019.0
825.677,6180.85
826.77,5969.9
827.863,5959.95
828.956,5955.35
830.048,5881.3
831.14,5882.7
832.233,5844.25
833.325,5760.9
834.417,5743.15
835.509,5681.9
836.601,5716.0
837.692,5737.95
838.784,5727.25
839.876,5685.25
840.967,5713.35
842.058,5656.0
843.149,5618.05
844.24,5541.8
845.331,5458.65
846.422,5450.25
847.513,5435.55
848.604,5437.65
849.694,5387.05
850.784,5392.7
851.875,5391.65
852.965,5350.45
854.055,5334.0
855.145,5308.3
856.235,5314.15
857.324,5292.0
858.414,5305.85
859.503,5321.85
860.593,5333.15
861.682,5258.65
862.771,5245.45
863.86,5207.75
864.949,5195.35
866.038,5175.95
867.126,5144.25
868.215,5146.65
869.303,5131.35
870.391,5156.7
871.479,5233.15
872.567,5244.8
873.655,5222.25
874.743,5098.35
875.831,5074.4
876.918,5045.3
878.006,5034.7
879.093,5057.75
880.18,4955.35
881.267,4988.8
882.354,4972.9
883.441,4950.8
884.527,4934.95
885.614,4939.75
886.7,4896.95
887.786,4880.6
888.872,4864.45
889.958,4835.4
891.044,4833.9
892.13,4830.2
893.216,4758.8
894.301,4752.2
895.386,4738.1
896.472,4766.25
897.557,4956.55
898.642,4921.8
899.726,4728.25
900.811,4645.05
901.896,4635.15
902.98,4619.3
904.064,4580.85
905.148,4620.65
906.232,4686.1
907.316,4794.7
908.4,4682.25
909.484,4569.5
910.567,4518.9
911.65,4484.85
912.734,4437.25
913.817,4437.8
914.9,4420.5
915.982,4412.35
917.065,4383.45
918.147,4393.35
919.23,4357.0
920.312,4340.4
921.394,4316.25
922.476,4316.45
923.558,4272.7
924.639,4279.45
925.721,4261.95
926.802,4246.35
927.884,4238.75
928.965,4219.05
930.046,4181.15
931.126,4181.7
932.207,4159.35
933.288,4155.35
934.368,4126.25
935.448,4132.1
936.528,4120.35
937.608,4108.25
938.688,4084.5
939.767,4072.05
940.847,4074.25
941.926,4053.7
943.005,4050.25
944.084,4021.2
945.163,4029.85
946.242,4022.1
947.321,4002.5
948.399,3998.3
949.477,3999.55
950.556,3981.7
951.634,3968.45
952.711,3958.1
953.789,3956.6
954.867,3948.35
955.944,3945.55
957.021,3929.55
958.098,3922.75
959.175,3919.8
960.252,3908.7
961.328,3903.95
962.405,3897.8
963.481,3893.7
964.557,3889.4
965.633,3879.15
966.709,3867.65
967.785,3864.75
968.86,3868.6
969.936,3857.85
971.011,3858.15
972.086,3850.2
973.161,3844.05
974.235,3835.2
975.31,3832.5
976.384,3832.9
977.459,3830.7
978.533,3822.95
979.607,3817.95
980.68,3811.75
981.754,3809.45
982.827,3807.75
983.901,3798.95
984.974,3798.7
986.047,3798.25
987.119,3791.15
988.192,3791.4
989.264,3789.15
990.337,3782.75
991.409,3779.75
992.481,3776.5
993.553,3776.35
994.624,3770.85
995.696,3766.85
996.767,3767.65
997.838,3763.95
998.909,3757.7
999.98,3756.35
1001.05,3758.2
1002.12,3754.65
1003.19,3752.45
1004.26,3749.0
1005.33,3746.35
1006.4,3747.1
1007.47,3744.05
1008.54,3742.0
1009.61,3739.55
1010.68,3737.85
1011.75,3736.05
1012.82,3736.05
1013.88,3735.7
1014.95,3732.15
1016.02,3731.7
1017.09,3731.15
1018.16,3730.35
1019.22,3729.25
1020.29,3727.55
1021.36,3731.0
1022.43,3730.55
1023.49,3725.9
1024.56,3726.0
1025.63,3721.95
1026.69,3719.6
1027.76,3718.2
1028.83,3717.95
1029.89,3716.75
1030.96,3715.85
1032.02,3714.55
1033.09,3714.8
1034.15,3715.3
1035.22,3714.45
1036.28,3712.9
1037.35,3713.35
1038.41,3707.85
1039.48,3709.35
1040.54,3707.3
1041.6,3707.55
1042.67,3705.95
1043.73,3706.15
1044.79,3703.85
1045.86,3704.75
1046.92,3703.15
1047.98,3703.25
1049.05,3704.05
1050.11,3703.35
1051.17,3701.95
1052.23,3704.2
1053.29,3703.4
1054.36,3702.4
1055.42,3703.15
1056.48,3701.3
1057.54,3700.2
1058.6,3700.6
1059.66,3701.4
1060.72,3700.4
1061.78,3701.95
1062.84,3700.15
1063.9,3700.9
1064.96,3699.95
1066.02,3700.75
1067.08,3700.75
1067.88,3698.1

File: VLFR_07-PET_nobio_Raman_7f3b0613.csv
nm,Intensity
791.75,12193.6
792.846,11360.1
793.942,10991.7
795.037,10772.3
796.133,10601.0
797.228,10708.3
798.324,10592.0
799.419,10591.8
800.514,10536.2
801.61,10403.8
802.705,10250.6
803.8,9980.95
804.894,9976.8
805.989,10010.8
807.084,9614.05
808.178,9630.55
809.273,9668.0
810.367,9520.15
811.461,9388.25
812.556,9276.0
813.65,9225.55
814.744,9227.0
815.837,9169.25
816.931,8934.9
818.025,8858.85
819.118,8940.3
820.212,8788.05
821.305,8694.8
822.398,8696.55
823.491,8567.4
824.585,8466.3
825.677,8748.1
826.77,8273.65
827.863,8239.1
828.956,8166.9
830.048,8208.35
831.14,7981.3
832.233,7858.35
833.325,7856.4
834.417,7687.6
835.509,7701.5
836.601,7765.05
837.692,7706.35
838.784,7695.3
839.876,7654.35
840.967,7902.7
842.058,7637.7
843.149,7454.15
844.24,7371.6
845.331,7116.35
846.422,7113.5
847.513,7067.55
848.604,6974.05
849.694,6969.7
850.784,6967.2
851.875,6974.85
852.965,6927.1
854.055,6797.1
855.145,6741.35
856.235,6704.9
857.324,6750.0
858.414,6788.9
859.503,6866.85
860.593,6860.1
861.682,6562.45
862.771,6539.55
863.86,6576.45
864.949,6543.85
866.038,6437.95
867.126,6386.95
868.215,6365.15
869.303,6425.9
870.391,6457.95
871.479,6504.45
872.567,6789.4
873.655,6512.8
874.743,6318.1
875.831,6236.15
876.918,6157.1
878.006,6084.55
879.093,6060.95
880.18,6057.05
881.267,6064.2
882.354,5971.85
883.441,5942.7
884.527,5933.4
885.614,5970.0
886.7,5832.7
887.786,5842.2
888.872,5685.6
889.958,5716.75
891.044,5658.85
892.13,5668.9
893.216,5582.45
894.301,5565.2
895.386,5532.45
896.472,5538.1
897.557,6112.95
898.642,6086.1
899.726,5525.85
900.811,5337.35
901.896,5294.75
902.98,5300.55
904.064,5251.0
905.148,5232.0
906.232,5496.1
907.316,5701.1
908.4,5467.25
909.484,5212.3
910.567,5088.25
911.65,5028.95
912.734,4961.7
913.817,4914.45
914.9,4917.1
915.982,4862.7
917.065,4845.0
918.147,4792.15
919.23,4784.9
920.312,4777.45
921.394,4709.1
922.476,4716.35
923.558,4650.35
924.639,4637.2
925.721,4595.75
926.802,4576.7
927.884,4552.1
928.965,4534.8
930.046,4499.2
931.126,4468.6
932.207,4463.75
933.288,4428.2
934.368,4404.35
935.448,4401.2
936.528,4342.55
937.608,4351.95
938.688,4331.2
939.767,4295.15
940.847,4290.55
941.926,4271.05
943.005,4267.6
944.084,4239.9
945.163,4206.55
946.242,4199.6
947.321,4188.25
948.399,4171.85
949.477,4156.3
950.556,4135.2
951.634,4119.05
952.711,4121.2
953.789,4107.85
954.867,4074.7
955.944,4091.25
957.021,4061.85
958.098,4046.15
959.175,4047.4
960.252,4012.5
961.328,4017.4
962.405,4007.6
963.481,3996.55
964.557,3978.25
965.633,3974.85
966.709,3968.65
967.785,3961.7
968.86,3951.95
969.936,3938.2
971.011,3936.25
972.086,3918.95
973.161,3917.8
974.235,3910.05
975.31,3903.1
976.384,3898.45
977.459,3888.5
978.533,3876.0
979.607,3875.9
980.68,3865.75
981.754,3855.1
982.827,3853.0
983.901,3850.85
984.974,3842.8
986.047,3841.6
987.119,3839.05
988.192,3827.8
989.264,3822.45
990.337,3819.9
991.409,3815.5
992.481,3809.65
993.553,3800.95
994.624,3796.55
995.696,3797.3
996.767,3788.5
997.838,3790.55
998.909,3782.8
999.98,3783.9
1001.05,3777.75
1002.12,3771.2
1003.19,3774.05
1004.26,3770.15
1005.33,3764.0
1006.4,3762.35
1007.47,3760.85
1008.54,3755.2
1009.61,3754.0
1010.68,3749.35
1011.75,3749.3
1012.82,3748.1
1013.88,3746.25
1014.95,3747.45
1016.02,3740.0
1017.09,3737.4
1018.16,3735.0
1019.22,3735.4
1020.29,3741.0
1021.36,3743.35
1022.43,3743.6
1023.49,3737.85
1024.56,3733.0
1025.63,3729.4
1026.69,3726.2
1027.76,3724.6
1028.83,3720.7
1029.89,3717.25
1030.96,3719.3
1032.02,3721.8
1033.09,3718.3
1034.15,3723.1
1035.22,3719.55
1036.28,3717.75
1037.35,3715.25
1038.41,3712.6
1039.48,3710.65
1040.54,3708.7
1041.6,3707.35
1042.67,3708.05
1043.73,3705.7
1044.79,3706.0
1045.86,3704.45
1046.92,3705.1
1047.98,3704.2
1049.05,3702.35
1050.11,3704.25
1051.17,3702.15
1052.23,3702.6
1053.29,3702.6
1054.36,3702.8
1055.42,3702.75
1056.48,3701.9
1057.54,3701.4
1058.6,3702.5
1059.66,3701.15
1060.72,3699.45
1061.78,3700.9
1062.84,3702.4
1063.9,3700.75
1064.96,3701.5
1066.02,3698.55
1067.08,3699.6
1067.88,3698.65