Folder: MPX_specDB/spectra (part 71)

File: VLFR_06-PET_bio_Raman_8e9859b1.csv
nm,Intensity
526.493,829.5
527.039,829.75
527.586,828.65
528.133,828.75
528.679,828.2
529.225,828.55
529.771,828.5
530.317,828.65
530.863,828.95
531.409,829.15
531.955,830.65
532.5,828.1
533.046,828.7
533.591,829.65
534.136,969.35
534.681,956.2
535.226,933.35
535.771,926.5
536.315,919.9
536.86,920.8
537.404,920.0
537.948,922.6
538.493,923.85
539.037,924.65
539.58,926.45
540.124,928.95
540.668,929.0
541.211,931.9
541.755,930.2
542.298,935.45
542.841,935.25
543.384,938.35
543.927,945.05
544.47,951.6
545.013,956.7
545.555,955.05
546.098,959.8
546.64,958.0
547.182,958.4
547.724,957.05
548.266,959.55
548.808,962.5
549.35,967.1
549.892,972.45
550.433,974.65
550.974,982.3
551.516,980.1
552.057,977.55
552.598,978.8
553.139,980.8
553.68,982.85
554.22,986.3
554.761,988.05
555.301,986.3
555.842,987.25
556.382,992.0
556.922,992.65
557.462,1005.75
558.002,1001.2
558.542,1002.3
559.082,998.55
559.621,1001.35
560.161,1006.45
560.7,1006.9
561.239,1010.5
561.778,1019.1
562.317,1112.85
562.856,1038.25
563.395,1021.05
563.934,1019.4
564.472,1024.85
565.011,1029.9
565.549,1041.9
566.088,1044.25
566.626,1038.4
567.164,1039.35
567.702,1039.25
568.24,1040.55
568.777,1038.6
569.315,1046.5
569.853,1049.9
570.39,1050.15
570.927,1059.9
571.465,1066.25
572.002,1059.45
572.539,1061.35
573.076,1062.5
573.612,1064.25
574.149,1068.9
574.686,1067.15
575.222,1070.0
575.759,1075.4
576.295,1079.0
576.831,1078.45
577.367,1077.95
577.903,1081.85
578.439,1080.85
578.975,1083.3
579.511,1084.85
580.046,1087.85
580.582,1086.2
581.117,1092.45
581.653,1095.4
582.188,1163.9
582.723,1102.2
583.258,1103.15
583.793,1106.05
584.328,1107.8
584.863,1108.8
585.398,1114.85
585.932,1148.0
586.467,1137.9
587.001,1118.55
587.535,1121.75
588.07,1121.5
588.604,1117.45
589.138,1122.1
589.672,1118.1
590.206,1118.95
590.739,1126.9
591.273,1126.4
591.807,1128.3
592.34,1128.85
592.873,1129.3
593.407,1130.7
593.94,1131.75
594.473,1133.05
595.006,1133.25
595.539,1130.4
596.072,1141.5
596.605,1141.75
597.138,1142.4
597.67,1142.25
598.203,1142.2
598.735,1147.7
599.268,1147.1
599.8,1146.25
600.332,1146.55
600.865,1145.5
601.397,1148.3
601.929,1144.0
602.46,1145.75
602.992,1152.8
603.524,1154.45
604.056,1153.2
604.587,1147.0
605.119,1150.05
605.65,1142.4
606.182,1144.3
606.713,1139.05
607.244,1144.55
607.775,1149.15
608.306,1152.65
608.837,1152.5
609.368,1149.05
609.899,1147.4
610.43,1148.45
610.961,1150.15
611.491,1146.95
612.022,1160.7
612.552,1153.4
613.083,1158.55
613.613,1162.15
614.143,1161.3
614.673,1161.3
615.203,1164.95
615.734,1165.05
616.263,1163.35
616.793,1159.4
617.323,1164.9
617.853,1161.35
618.383,1163.1
618.912,1162.85
619.442,1163.8
619.971,1163.0
620.501,1164.4
621.03,1160.9
621.56,1155.25
622.089,1163.95
622.618,1164.85
623.147,1167.4
623.676,1172.3
624.205,1173.9
624.734,1172.65
625.263,1168.2
625.792,1172.05
626.321,1169.0
626.849,1174.6
627.378,1170.85
627.906,1171.6
628.435,1173.85
628.963,1175.4
629.492,1176.65
630.02,1182.25
630.548,1172.0
631.077,1179.7
631.605,1186.9
632.133,1188.6
632.661,1184.05
633.189,1184.35
633.717,1178.55
634.245,1181.15
634.773,1179.85
635.3,1173.4
635.828,1187.05
636.356,1189.55
636.883,1191.9
637.411,1182.3
637.938,1184.45
638.466,1182.7
638.993,1186.1
639.521,1187.1
640.048,1180.35
640.575,1185.0
641.103,1186.6
641.63,1185.95
642.157,1181.55
642.684,1179.35
643.211,1177.3
643.738,1179.35
644.265,1172.5
644.792,1171.45
645.319,1167.7
645.845,1171.8
646.372,1169.55
646.899,1167.15
647.425,1173.3
647.952,1171.95
648.479,1166.45
649.005,1168.45
649.532,1165.95
650.058,1163.75
650.585,1162.05
651.111,1162.65
651.637,1162.0
652.164,1164.85
652.69,1162.95
653.216,1158.75
653.742,1157.55
654.268,1163.6
654.794,1159.05
655.32,1157.25
655.846,1153.4
656.372,1149.4
656.898,1152.85
657.424,1152.4
657.95,1147.0
658.476,1144.2
659.002,1146.9
659.528,1148.75
660.053,1145.85
660.579,1146.8
661.105,1135.45
661.63,1133.6
662.156,1136.15
662.681,1137.85
663.076,1126.9

File: VLFR_06-PET_bio_Raman_13cd97dc.csv
nm,Intensity
526.508,831.5
527.055,830.5
527.602,828.7
528.149,831.0
528.695,830.8
529.241,831.4
529.787,830.8
530.334,829.2
530.879,830.0
531.425,830.4
531.971,831.7
532.516,830.4
533.062,830.9
533.607,832.8
534.152,1352.9
534.697,1223.0
535.242,1097.4
535.786,1026.6
536.331,982.9
536.876,958.9
537.42,957.2
537.964,952.1
538.508,954.8
539.052,956.0
539.596,964.4
540.14,970.2
540.683,955.9
541.227,951.7
541.77,956.2
542.313,958.1
542.856,960.2
543.399,961.6
543.942,963.5
544.485,966.2
545.027,967.3
545.57,972.6
546.112,967.8
546.654,972.5
547.196,974.7
547.738,979.5
548.28,984.2
548.822,982.8
549.363,989.9
549.905,988.0
550.446,993.7
550.988,1000.8
551.529,996.0
552.07,1001.5
552.611,1000.0
553.152,1018.0
553.692,1009.8
554.233,1010.1
554.773,1012.3
555.314,1020.1
555.854,1034.2
556.394,1044.8
556.934,1045.4
557.474,1100.2
558.014,1064.9
558.553,1065.5
559.093,1050.5
559.632,1040.6
560.172,1042.4
560.711,1047.3
561.25,1052.8
561.789,1054.0
562.328,1062.7
562.867,1073.3
563.406,1076.5
563.944,1077.2
564.483,1082.2
565.021,1104.0
565.559,1131.2
566.098,1138.5
566.636,1101.5
567.174,1094.0
567.711,1124.5
568.249,1106.7
568.787,1109.7
569.324,1114.5
569.862,1125.5
570.399,1155.9
570.936,1194.8
571.474,1233.8
572.011,1192.8
572.548,1155.6
573.084,1146.0
573.621,1148.5
574.158,1169.9
574.694,1164.6
575.231,1167.4
575.767,1163.7
576.303,1189.5
576.84,1194.3
577.376,1180.9
577.912,1188.5
578.447,1190.3
578.983,1183.4
579.519,1197.0
580.054,1193.7
580.59,1198.2
581.125,1207.8
581.661,1242.5
582.196,1642.5
582.731,1247.0
583.266,1227.3
583.801,1233.0
584.336,1236.6
584.87,1241.3
585.405,1274.3
585.94,1464.0
586.474,1381.3
587.008,1273.8
587.543,1258.6
588.077,1251.9
588.611,1250.9
589.145,1253.7
589.679,1251.1
590.213,1258.8
590.747,1260.3
591.28,1260.6
591.814,1266.9
592.347,1270.6
592.881,1267.3
593.414,1261.3
593.947,1273.1
594.48,1273.0
595.014,1278.8
595.547,1271.2
596.079,1278.0
596.612,1282.4
597.145,1289.6
597.678,1280.4
598.21,1297.0
598.743,1294.3
599.275,1295.3
599.807,1294.1
600.34,1291.7
600.872,1294.9
601.404,1284.9
601.936,1287.8
602.468,1282.9
603.0,1294.8
603.532,1291.8
604.063,1303.0
604.595,1298.1
605.126,1286.1
605.658,1284.4
606.189,1288.3
606.721,1281.5
607.252,1283.7
607.783,1283.8
608.314,1298.4
608.845,1297.7
609.376,1295.9
609.907,1291.6
610.438,1293.5
610.968,1289.3
611.499,1294.0
612.03,1301.8
612.56,1304.7
613.091,1306.8
613.621,1315.9
614.151,1307.8
614.681,1309.9
615.212,1312.5
615.742,1303.6
616.272,1309.4
616.802,1313.3
617.332,1310.1
617.861,1321.1
618.391,1323.9
618.921,1321.8
619.45,1313.7
619.98,1323.3
620.509,1316.7
621.039,1312.6
621.568,1324.2
622.097,1314.6
622.627,1334.7
623.156,1333.1
623.685,1346.0
624.214,1338.0
624.743,1351.1
625.272,1344.7
625.801,1344.8
626.33,1343.4
626.858,1349.1
627.387,1349.1
627.916,1362.0
628.444,1361.8
628.973,1375.8
629.501,1379.9
630.029,1377.9
630.558,1371.6
631.086,1397.2
631.614,1432.8
632.142,1440.7
632.67,1419.3
633.198,1407.0
633.726,1409.7
634.254,1403.5
634.782,1400.3
635.31,1408.2
635.838,1424.8
636.365,1468.5
636.893,1468.9
637.421,1434.4
637.948,1410.6
638.476,1416.1
639.003,1422.2
639.531,1430.0
640.058,1424.8
640.585,1430.9
641.113,1433.4
641.64,1447.9
642.167,1440.9
642.694,1442.3
643.221,1422.9
643.748,1434.2
644.275,1433.4
644.802,1430.7
645.329,1428.0
645.856,1434.8
646.382,1434.8
646.909,1437.2
647.436,1439.9
647.962,1427.7
648.489,1436.5
649.016,1432.1
649.542,1431.7
650.069,1429.5
650.595,1422.6
651.121,1426.0
651.648,1430.0
652.174,1425.9
652.7,1430.8
653.227,1427.7
653.753,1427.8
654.279,1424.4
654.805,1425.3
655.331,1416.2
655.857,1420.2
656.383,1418.2
656.909,1420.7
657.435,1419.3
657.961,1412.7
658.487,1419.6
659.013,1416.7
659.538,1410.2
660.064,1412.8
660.59,1414.2
661.116,1398.5
661.641,1396.9
662.167,1383.8
662.692,1379.3
663.087,1379.9

File: VLFR_06-PET_bio_Raman_24a3b533.csv
nm,Intensity
528.637,1838.8
529.143,1839.9
529.648,1839.4
530.153,1840.4
530.659,1839.5
531.164,1844.4
531.669,1925.2
532.174,4201.9
532.679,1849.7
533.184,1873.2
533.689,5592.0
534.194,12633.8
534.699,9924.2
535.203,7212.4
535.708,5081.4
536.213,3850.3
536.717,3389.2
537.222,3174.7
537.726,3049.6
538.231,3107.1
538.735,3088.7
539.24,3087.5
539.744,3377.6
540.248,3109.0
540.752,2802.7
541.256,2652.0
541.761,2679.0
542.265,2662.9
542.769,2663.3
543.272,2633.4
543.776,2740.8
544.28,2674.6
544.784,2686.0
545.288,2688.2
545.791,2704.6
546.295,2702.3
546.798,2753.1
547.302,2775.1
547.805,2760.1
548.308,2781.7
548.812,2786.6
549.315,2789.2
549.818,2770.2
550.321,3087.8
550.824,3728.8
551.327,2908.7
551.83,2884.8
552.333,3001.1
552.836,3703.0
553.339,2994.5
553.842,2996.2
554.344,3072.4
554.847,3078.7
555.349,3460.0
555.852,3895.0
556.354,4053.8
556.857,4098.2
557.359,5872.4
557.861,4781.9
558.363,4369.1
558.866,3996.5
559.368,3426.5
559.87,3371.5
560.372,3358.5
560.873,3402.9
561.375,3490.0
561.877,3622.3
562.379,3679.2
562.88,3930.5
563.382,3878.8
563.883,3680.4
564.385,3834.4
564.886,4374.4
565.388,5194.2
565.889,5591.8
566.39,4343.6
566.891,3874.1
567.392,4334.1
567.893,4512.7
568.394,3968.3
568.895,3889.5
569.396,4076.8
569.897,4377.7
570.398,5271.3
570.898,6986.8
571.399,8175.5
571.899,6095.3
572.4,4790.8
572.9,4279.2
573.4,4227.7
573.901,4518.0
574.401,4425.5
574.901,4420.7
575.401,4960.4
575.901,4592.0
576.401,5017.8
576.901,4880.8
577.401,4524.8
577.9,4351.8
578.4,4488.2
578.9,4406.3
579.399,4455.2
579.899,4537.2
580.398,4643.3
580.897,4903.4
581.397,5313.5
581.896,12766.5
582.395,10502.0
582.894,5042.6
583.393,4704.8
583.892,4762.2
584.391,4934.8
584.889,5207.8
585.388,7282.2
585.887,12967.8
586.385,9786.5
586.884,5567.6
587.382,5007.3
587.881,4926.0
588.379,4932.1
588.877,4932.8
589.375,4792.9
589.874,4779.5
590.372,4843.1
590.87,4783.4
591.367,4842.3
591.865,4870.1
592.363,4909.9
592.861,4862.9
593.358,4910.1
593.856,4967.5
594.353,4911.4
594.851,4931.2
595.348,4979.6
595.845,5043.8
596.342,5032.4
596.84,5024.1
597.337,4988.2
597.833,5028.9
598.33,5065.2
598.827,5099.9
599.324,5039.4
599.821,5139.5
600.317,5166.1
600.814,5148.9
601.31,5114.4
601.807,5154.9
602.303,5153.7
602.799,5189.9
603.295,5059.6
603.791,5167.4
604.287,5171.5
604.783,5122.4
605.279,5185.7
605.775,5186.4
606.271,5265.3
606.766,5168.3
607.262,5178.5
607.757,5280.0
608.253,5226.2
608.748,5188.8
609.243,5195.4
609.738,5315.7
610.233,5235.3
610.729,5223.6
611.223,5212.6
611.718,5379.7
612.213,5185.5
612.708,5255.9
613.202,5242.8
613.697,5324.4
614.192,5362.2
614.686,5388.1
615.18,5287.9
615.675,5357.9
616.169,5445.5
616.663,5444.8
617.157,5464.9
617.651,5535.8
618.145,5554.0
618.638,5591.2
619.132,5559.3
619.626,5495.5
620.119,5509.0
620.613,5443.4
621.106,5457.1
621.599,5548.3
622.093,5605.3
622.586,5508.2
623.079,5606.3
623.572,5459.2
624.065,5648.6
624.558,5647.4
625.05,5798.8
625.543,5754.9
626.036,5629.1
626.528,5818.1
627.02,5689.2
627.513,5863.2
628.005,5972.9
628.497,6134.6
628.989,6393.8
629.481,6404.1
629.973,6274.6
630.465,6356.1
630.957,6913.1
631.449,8337.4
631.94,8719.5
632.432,7608.0
632.923,7323.3
633.414,7258.3
633.906,6924.7
634.397,6596.1
634.888,6530.0
635.379,6745.3
635.87,7603.5
636.361,9005.8
636.852,8369.8
637.342,6975.1
637.833,6723.5
638.323,6608.3
638.814,6465.1
639.304,6468.9
639.794,6568.3
640.285,6549.3
640.775,6636.0
641.265,6481.8
641.755,6571.0
642.244,6837.3
642.734,6591.9
643.224,6497.0
643.713,6720.2
644.203,6569.9
644.692,6550.3
645.181,6695.4
645.671,6627.2
646.16,6430.5
646.649,6541.9
647.138,6673.2
647.627,6671.1
648.115,6534.7
648.604,6451.8
649.093,6377.1
649.581,6653.2
650.07,6452.3
650.558,6480.7
651.046,6513.2
651.534,6501.8
652.023,6482.1
652.511,6326.5
652.998,6211.8
653.486,6257.3
653.974,6225.0
654.462,6126.7
654.949,6193.1
655.437,6102.4
655.924,6064.5
656.411,6031.6
656.898,6091.4
657.385,5951.1
657.872,6006.2
658.359,5965.4
658.846,5901.6
659.333,5737.8
659.82,5630.1
660.306,5851.0
660.793,5807.7
661.036,5611.7

File: VLFR_06-PET_bio_Raman_28d56d51.csv
nm,Intensity
526.508,830.3
527.055,830.5
527.602,828.9
528.149,829.0
528.695,830.1
529.241,830.6
529.787,829.9
530.334,830.4
530.879,831.1
531.425,829.3
531.971,832.8
532.516,830.8
533.062,830.9
533.607,838.4
534.152,2202.9
534.697,1848.4
535.242,1498.2
535.786,1266.7
536.331,1129.6
536.876,1079.6
537.42,1050.1
537.964,1044.7
538.508,1056.4
539.052,1052.8
539.596,1071.8
540.14,1078.3
540.683,1042.8
541.227,1028.5
541.77,1023.1
542.313,1025.2
542.856,1030.1
543.399,1026.5
543.942,1044.9
544.485,1040.3
545.027,1040.6
545.57,1042.3
546.112,1046.4
546.654,1050.7
547.196,1048.5
547.738,1060.6
548.28,1059.9
548.822,1065.1
549.363,1060.9
549.905,1070.5
550.446,1085.7
550.988,1101.2
551.529,1080.3
552.07,1084.9
552.611,1091.9
553.152,1118.8
553.692,1098.9
554.233,1105.8
554.773,1112.1
555.314,1125.4
555.854,1182.7
556.394,1183.7
556.934,1194.8
557.474,1342.4
558.014,1235.5
558.553,1220.8
559.093,1184.9
559.632,1153.7
560.172,1149.5
560.711,1165.5
561.25,1164.5
561.789,1181.0
562.328,1199.5
562.867,1209.7
563.406,1219.6
563.944,1214.3
564.483,1223.7
565.021,1271.6
565.559,1344.6
566.098,1355.2
566.636,1263.3
567.174,1238.4
567.711,1329.8
568.249,1258.6
568.787,1250.1
569.324,1268.7
569.862,1310.6
570.399,1358.6
570.936,1494.9
571.474,1619.1
572.011,1450.9
572.548,1349.4
573.084,1322.6
573.621,1324.6
574.158,1366.6
574.694,1347.5
575.231,1385.7
575.767,1359.6
576.303,1405.8
576.84,1415.0
577.376,1387.9
577.912,1379.7
578.447,1392.8
578.983,1387.1
579.519,1396.4
580.054,1402.3
580.59,1409.1
581.125,1433.9
581.661,1517.8
582.196,2762.8
582.731,1512.1
583.266,1460.5
583.801,1457.5
584.336,1467.5
584.87,1482.8
585.405,1582.5
585.94,2147.1
586.474,1898.5
587.008,1552.3
587.543,1507.8
588.077,1502.2
588.611,1499.8
589.145,1500.9
589.679,1494.3
590.213,1492.7
590.747,1508.1
591.28,1513.8
591.814,1509.7
592.347,1515.1
592.881,1512.8
593.414,1520.3
593.947,1526.8
594.48,1520.2
595.014,1529.2
595.547,1537.4
596.079,1539.3
596.612,1542.4
597.145,1551.3
597.678,1555.8
598.21,1561.0
598.743,1568.0
599.275,1566.3
599.807,1563.1
600.34,1563.9
600.872,1573.0
601.404,1560.9
601.936,1557.5
602.468,1572.1
603.0,1576.9
603.532,1578.7
604.063,1579.6
604.595,1579.4
605.126,1568.3
605.658,1554.3
606.189,1559.5
606.721,1560.5
607.252,1574.1
607.783,1579.2
608.314,1578.5
608.845,1591.0
609.376,1580.8
609.907,1583.5
610.438,1582.0
610.968,1577.6
611.499,1584.3
612.03,1589.0
612.56,1588.2
613.091,1611.5
613.621,1620.4
614.151,1621.1
614.681,1625.3
615.212,1621.2
615.742,1619.8
616.272,1626.6
616.802,1629.3
617.332,1636.5
617.861,1640.2
618.391,1653.4
618.921,1655.8
619.45,1646.7
619.98,1648.9
620.509,1642.1
621.039,1648.5
621.568,1651.7
622.097,1655.2
622.627,1671.9
623.156,1672.1
623.685,1675.5
624.214,1695.1
624.743,1698.4
625.272,1708.6
625.801,1707.4
626.33,1708.6
626.858,1705.6
627.387,1725.2
627.916,1722.7
628.444,1745.9
628.973,1779.1
629.501,1788.5
630.029,1776.7
630.558,1785.8
631.086,1849.8
631.614,1979.2
632.142,1966.1
632.67,1887.3
633.198,1885.9
633.726,1861.9
634.254,1852.8
634.782,1843.6
635.31,1836.7
635.838,1918.0
636.365,2039.8
636.893,2048.6
637.421,1925.4
637.948,1895.2
638.476,1887.3
639.003,1896.6
639.531,1900.8
640.058,1903.7
640.585,1907.6
641.113,1926.5
641.64,1936.8
642.167,1943.4
642.694,1935.4
643.221,1944.3
643.748,1913.1
644.275,1925.1
644.802,1932.5
645.329,1947.5
645.856,1942.9
646.382,1954.2
646.909,1957.5
647.436,1958.9
647.962,1976.6
648.489,1969.2
649.016,1960.1
649.542,1971.5
650.069,1959.4
650.595,1972.2
651.121,1963.8
651.648,1967.0
652.174,1979.5
652.7,1979.6
653.227,1982.9
653.753,1987.3
654.279,1976.0
654.805,1968.3
655.331,1968.3
655.857,1982.4
656.383,1977.8
656.909,1981.5
657.435,1982.9
657.961,1979.6
658.487,1996.1
659.013,1979.4
659.538,1986.9
660.064,1986.0
660.59,1993.0
661.116,1969.6
661.641,1957.7
662.167,1956.4
662.692,1956.7
663.087,1947.8

File: VLFR_06-PET_bio_Raman_044a2b98.csv
nm,Intensity
526.508,829.1
527.055,828.9
527.602,828.8
528.149,830.2
528.695,830.3
529.241,828.7
529.787,828.6
530.334,830.7
530.879,829.9
531.425,831.2
531.971,833.4
532.516,830.7
533.062,829.1
533.607,838.5
534.152,1919.1
534.697,1620.9
535.242,1320.6
535.786,1141.2
536.331,1034.8
536.876,987.5
537.42,974.1
537.964,962.8
538.508,972.9
539.052,965.3
539.596,976.8
540.14,982.0
540.683,950.7
541.227,943.9
541.77,938.1
542.313,940.5
542.856,938.3
543.399,937.3
543.942,948.9
544.485,946.2
545.027,948.5
545.57,944.7
546.112,948.2
546.654,953.8
547.196,955.8
547.738,957.3
548.28,956.4
548.822,957.4
549.363,956.9
549.905,966.9
550.446,973.8
550.988,986.3
551.529,976.8
552.07,972.2
552.611,978.6
553.152,998.0
553.692,984.4
554.233,986.2
554.773,985.5
555.314,999.9
555.854,1042.2
556.394,1050.3
556.934,1063.2
557.474,1182.7
558.014,1081.0
558.553,1075.8
559.093,1036.7
559.632,1012.4
560.172,1019.8
560.711,1015.7
561.25,1027.4
561.789,1027.1
562.328,1039.2
562.867,1056.0
563.406,1058.1
563.944,1048.6
564.483,1060.9
565.021,1097.6
565.559,1157.4
566.098,1157.8
566.636,1075.5
567.174,1065.2
567.711,1137.4
568.249,1081.9
568.787,1074.6
569.324,1079.6
569.862,1100.2
570.399,1146.2
570.936,1255.1
571.474,1372.8
572.011,1232.8
572.548,1133.0
573.084,1109.8
573.621,1109.8
574.158,1144.0
574.694,1122.7
575.231,1147.1
575.767,1133.7
576.303,1154.0
576.84,1170.6
577.376,1141.2
577.912,1137.9
578.447,1135.1
578.983,1141.1
579.519,1144.2
580.054,1152.0
580.59,1155.9
581.125,1168.8
581.661,1250.4
582.196,2286.6
582.731,1222.1
583.266,1179.3
583.801,1180.7
584.336,1183.7
584.87,1197.9
585.405,1290.6
585.94,1765.0
586.474,1529.1
587.008,1241.2
587.543,1205.4
588.077,1202.4
588.611,1187.2
589.145,1192.6
589.679,1194.8
590.213,1204.2
590.747,1197.1
591.28,1202.3
591.814,1197.5
592.347,1205.5
592.881,1196.4
593.414,1204.6
593.947,1205.2
594.48,1207.6
595.014,1210.1
595.547,1220.4
596.079,1216.4
596.612,1209.7
597.145,1221.7
597.678,1212.2
598.21,1223.5
598.743,1223.2
599.275,1222.9
599.807,1223.2
600.34,1221.0
600.872,1216.1
601.404,1229.8
601.936,1227.4
602.468,1221.0
603.0,1228.9
603.532,1232.8
604.063,1228.2
604.595,1229.2
605.126,1227.5
605.658,1219.4
606.189,1221.0
606.721,1222.4
607.252,1222.0
607.783,1226.1
608.314,1228.0
608.845,1229.1
609.376,1230.8
609.907,1231.0
610.438,1221.2
610.968,1235.2
611.499,1229.3
612.03,1229.7
612.56,1240.7
613.091,1239.5
613.621,1253.9
614.151,1256.5
614.681,1254.7
615.212,1247.1
615.742,1253.0
616.272,1259.9
616.802,1265.0
617.332,1262.5
617.861,1273.7
618.391,1274.1
618.921,1262.9
619.45,1268.4
619.98,1259.2
620.509,1266.7
621.039,1263.0
621.568,1267.0
622.097,1271.8
622.627,1273.4
623.156,1277.1
623.685,1294.2
624.214,1295.9
624.743,1292.5
625.272,1304.8
625.801,1300.5
626.33,1302.3
626.858,1303.7
627.387,1303.5
627.916,1311.4
628.444,1329.9
628.973,1345.9
629.501,1355.9
630.029,1351.7
630.558,1356.9
631.086,1409.6
631.614,1543.6
632.142,1532.2
632.67,1467.2
633.198,1436.1
633.726,1424.7
634.254,1403.0
634.782,1391.2
635.31,1400.8
635.838,1456.5
636.365,1577.6
636.893,1587.1
637.421,1442.2
637.948,1419.8
638.476,1417.7
639.003,1410.9
639.531,1424.2
640.058,1414.7
640.585,1428.5
641.113,1427.7
641.64,1436.3
642.167,1448.6
642.694,1441.5
643.221,1440.2
643.748,1440.5
644.275,1439.2
644.802,1435.7
645.329,1443.3
645.856,1445.3
646.382,1449.7
646.909,1457.8
647.436,1451.1
647.962,1467.3
648.489,1468.8
649.016,1458.4
649.542,1456.7
650.069,1460.0
650.595,1469.2
651.121,1464.7
651.648,1462.6
652.174,1476.3
652.7,1469.8
653.227,1486.6
653.753,1482.5
654.279,1480.1
654.805,1484.7
655.331,1484.9
655.857,1485.6
656.383,1486.9
656.909,1487.7
657.435,1490.0
657.961,1486.4
658.487,1483.4
659.013,1492.2
659.538,1493.6
660.064,1490.1
660.59,1488.8
661.116,1483.0
661.641,1483.5
662.167,1489.7
662.692,1476.4
663.087,1468.4

File: VLFR_06-PET_bio_Raman_48ee4762.csv
nm,Intensity
526.508,831.6
527.055,831.7
527.602,829.4
528.149,831.4
528.695,831.1
529.241,829.7
529.787,830.4
530.334,831.1
530.879,830.4
531.425,831.5
531.971,836.1
532.516,832.1
533.062,831.6
533.607,840.7
534.152,1993.1
534.697,1674.7
535.242,1343.5
535.786,1145.6
536.331,1029.9
536.876,981.1
537.42,966.2
537.964,956.5
538.508,957.6
539.052,951.5
539.596,969.1
540.14,976.2
540.683,937.8
541.227,923.6
541.77,920.7
542.313,922.4
542.856,921.6
543.399,918.7
543.942,928.3
544.485,925.3
545.027,928.0
545.57,925.5
546.112,931.2
546.654,935.3
547.196,931.8
547.738,933.8
548.28,934.9
548.822,938.2
549.363,937.5
549.905,939.9
550.446,958.6
550.988,964.6
551.529,948.6
552.07,950.9
552.611,956.2
553.152,976.0
553.692,960.0
554.233,961.7
554.773,961.4
555.314,975.7
555.854,1016.5
556.394,1026.7
556.934,1034.8
557.474,1170.9
558.014,1059.1
558.553,1060.5
559.093,1013.4
559.632,988.1
560.172,992.0
560.711,992.5
561.25,996.4
561.789,1003.9
562.328,1012.6
562.867,1022.0
563.406,1032.1
563.944,1019.5
564.483,1028.8
565.021,1068.1
565.559,1138.7
566.098,1128.3
566.636,1047.2
567.174,1031.5
567.711,1108.2
568.249,1043.0
568.787,1037.8
569.324,1048.2
569.862,1075.5
570.399,1113.0
570.936,1235.6
571.474,1335.7
572.011,1198.6
572.548,1096.2
573.084,1078.2
573.621,1072.3
574.158,1102.7
574.694,1090.1
575.231,1108.9
575.767,1094.2
576.303,1122.6
576.84,1140.8
577.376,1101.4
577.912,1088.6
578.447,1097.3
578.983,1097.3
579.519,1104.0
580.054,1109.4
580.59,1121.8
581.125,1130.2
581.661,1203.0
582.196,2310.2
582.731,1182.8
583.266,1139.4
583.801,1137.0
584.336,1146.2
584.87,1158.9
585.405,1259.2
585.94,1739.1
586.474,1499.8
587.008,1193.2
587.543,1169.2
588.077,1159.6
588.611,1157.0
589.145,1151.0
589.679,1153.0
590.213,1159.8
590.747,1158.0
591.28,1162.3
591.814,1164.3
592.347,1155.3
592.881,1163.5
593.414,1165.7
593.947,1164.8
594.48,1166.9
595.014,1171.5
595.547,1170.5
596.079,1169.5
596.612,1173.6
597.145,1176.6
597.678,1184.1
598.21,1181.2
598.743,1186.5
599.275,1185.0
599.807,1188.9
600.34,1191.1
600.872,1191.9
601.404,1190.4
601.936,1194.7
602.468,1196.6
603.0,1188.7
603.532,1199.2
604.063,1195.0
604.595,1199.9
605.126,1195.8
605.658,1189.5
606.189,1192.1
606.721,1188.3
607.252,1198.8
607.783,1192.1
608.314,1192.8
608.845,1207.7
609.376,1201.4
609.907,1202.4
610.438,1205.8
610.968,1198.6
611.499,1204.5
612.03,1211.2
612.56,1215.3
613.091,1220.6
613.621,1221.9
614.151,1226.1
614.681,1233.0
615.212,1225.0
615.742,1230.0
616.272,1238.1
616.802,1232.2
617.332,1245.4
617.861,1241.8
618.391,1244.1
618.921,1248.1
619.45,1253.7
619.98,1247.1
620.509,1246.7
621.039,1244.3
621.568,1247.0
622.097,1260.7
622.627,1259.3
623.156,1259.4
623.685,1262.3
624.214,1273.6
624.743,1279.3
625.272,1285.2
625.801,1280.3
626.33,1279.3
626.858,1286.7
627.387,1290.1
627.916,1301.9
628.444,1321.8
628.973,1340.1
629.501,1337.9
630.029,1333.0
630.558,1341.6
631.086,1390.9
631.614,1506.5
632.142,1495.1
632.67,1421.5
633.198,1416.0
633.726,1404.0
634.254,1376.3
634.782,1366.6
635.31,1386.3
635.838,1438.8
636.365,1536.3
636.893,1550.3
637.421,1427.0
637.948,1408.3
638.476,1399.1
639.003,1401.8
639.531,1411.1
640.058,1410.5
640.585,1412.4
641.113,1419.5
641.64,1431.1
642.167,1443.5
642.694,1440.2
643.221,1421.5
643.748,1427.1
644.275,1433.9
644.802,1431.3
645.329,1427.9
645.856,1437.3
646.382,1433.2
646.909,1455.0
647.436,1446.1
647.962,1456.5
648.489,1443.6
649.016,1447.1
649.542,1449.6
650.069,1456.6
650.595,1451.6
651.121,1451.1
651.648,1457.3
652.174,1461.3
652.7,1468.7
653.227,1467.9
653.753,1465.1
654.279,1461.5
654.805,1477.5
655.331,1469.1
655.857,1467.8
656.383,1472.5
656.909,1477.9
657.435,1468.0
657.961,1475.2
658.487,1475.5
659.013,1474.6
659.538,1481.3
660.064,1468.1
660.59,1481.0
661.116,1465.5
661.641,1467.9
662.167,1453.7
662.692,1464.9
663.087,1459.2