Folder: MPX_specDB/spectra (part 57)

File: VLFR_02-HDPE_nobio_Raman_8e8300fd.csv
nm,Intensity
526.486,831.5
527.033,829.7
527.579,828.8
528.126,830.2
528.672,831.4
529.219,830.6
529.765,829.3
530.311,830.7
530.857,829.5
531.403,831.2
531.948,833.0
532.494,830.7
533.039,831.2
533.585,829.5
534.13,888.2
534.675,882.1
535.22,878.4
535.764,859.0
536.309,852.6
536.854,852.3
537.398,852.0
537.942,851.3
538.486,848.1
539.03,848.6
539.574,844.2
540.118,842.8
540.662,844.2
541.205,842.6
541.749,843.4
542.292,841.6
542.835,842.5
543.378,843.3
543.921,842.0
544.464,842.7
545.006,843.6
545.549,841.8
546.091,842.7
546.634,843.3
547.176,841.8
547.718,843.1
548.26,843.4
548.802,843.3
549.343,842.5
549.885,842.0
550.426,845.1
550.968,842.8
551.509,842.6
552.05,842.8
552.591,844.0
553.132,842.7
553.673,846.3
554.214,845.5
554.754,846.5
555.295,847.1
555.835,847.5
556.375,848.1
556.915,850.1
557.455,854.7
557.995,855.3
558.535,857.4
559.075,854.4
559.614,853.8
560.154,856.6
560.693,851.6
561.232,852.2
561.772,854.5
562.311,856.3
562.85,861.5
563.388,861.8
563.927,910.7
564.466,878.3
565.004,876.8
565.543,870.9
566.081,938.9
566.619,877.0
567.157,869.9
567.695,875.1
568.233,868.6
568.771,868.4
569.309,866.8
569.846,868.1
570.384,873.6
570.921,880.5
571.458,961.1
571.995,897.9
572.532,882.1
573.069,876.7
573.606,879.7
574.143,892.5
574.68,883.9
575.216,889.4
575.753,934.5
576.289,1018.7
576.825,968.0
577.361,956.2
577.897,915.1
578.433,914.4
578.969,917.5
579.505,926.5
580.041,929.2
580.576,935.9
581.112,942.4
581.647,946.1
582.183,956.3
582.718,960.5
583.253,964.2
583.788,976.9
584.323,973.0
584.858,981.0
585.392,985.8
585.927,991.9
586.462,996.1
586.996,1010.9
587.53,1014.8
588.065,1017.4
588.599,1027.6
589.133,1032.3
589.667,1040.4
590.201,1046.8
590.735,1048.8
591.268,1056.1
591.802,1061.5
592.335,1064.5
592.869,1066.3
593.402,1060.7
593.936,1065.2
594.469,1071.1
595.002,1073.1
595.535,1073.4
596.068,1077.8
596.601,1085.7
597.133,1082.3
597.666,1092.0
598.199,1101.7
598.731,1110.8
599.264,1114.9
599.796,1112.7
600.328,1124.6
600.86,1119.9
601.393,1123.1
601.925,1120.1
602.457,1121.5
602.988,1119.3
603.52,1113.5
604.052,1106.2
604.583,1094.5
605.115,1085.6
605.646,1072.8
606.178,1060.7
606.709,1052.4
607.24,1040.4
607.771,1039.1
608.302,1031.9
608.833,1026.1
609.364,1020.0
609.895,1014.2
610.426,1010.5
610.957,1002.3
611.487,999.7
612.018,998.7
612.548,996.6
613.078,996.0
613.609,988.0
614.139,982.2
614.669,980.3
615.199,974.2
615.729,977.1
616.259,974.1
616.789,973.3
617.319,975.6
617.849,974.7
618.378,967.8
618.908,966.9
619.437,967.9
619.967,970.3
620.496,967.5
621.025,974.4
621.555,972.9
622.084,998.1
622.613,997.1
623.142,970.7
623.671,963.2
624.2,961.5
624.729,963.1
625.258,960.7
625.786,969.2
626.315,995.1
626.844,1229.2
627.372,1726.8
627.901,1381.7
628.429,1590.4
628.957,1449.5
629.486,1313.1
630.014,1194.2
630.542,1174.7
631.07,1054.9
631.598,985.5
632.126,967.2
632.654,960.4
633.182,960.3
633.71,952.1
634.237,954.6
634.765,953.0
635.293,952.2
635.82,954.8
636.348,952.5
636.875,946.7
637.403,954.8
637.93,947.2
638.458,952.9
638.985,953.2
639.512,954.7
640.039,949.5
640.566,956.1
641.093,948.4
641.62,957.6
642.147,955.1
642.674,957.5
643.201,955.6
643.728,956.8
644.255,953.0
644.781,958.3
645.308,951.5
645.835,951.8
646.361,954.3
646.888,953.6
647.414,950.9
647.941,951.4
648.467,950.8
648.993,951.4
649.52,951.1
650.046,946.2
650.572,950.8
651.098,945.6
651.625,949.5
652.151,948.7
652.677,945.5
653.203,947.7
653.729,947.9
654.255,948.5
654.78,945.2
655.306,944.2
655.832,943.2
656.358,942.0
656.884,936.2
657.409,944.2
657.935,938.0
658.461,933.9
658.986,932.2
659.512,934.2
660.037,930.2
660.563,926.2
661.088,926.4
661.614,918.4
662.139,914.5
662.664,914.6
663.058,908.6

File: VLFR_02-HDPE_nobio_Raman_8fbbef83.csv
nm,Intensity
526.508,829.7
527.055,830.0
527.602,829.6
528.149,829.4
528.695,829.5
529.241,829.8
529.787,830.6
530.334,831.4
530.879,829.5
531.425,831.5
531.971,833.2
532.516,830.0
533.062,828.8
533.607,830.2
534.152,879.6
534.697,878.4
535.242,876.2
535.786,857.3
536.331,852.3
536.876,851.0
537.42,850.2
537.964,850.3
538.508,850.8
539.052,847.2
539.596,846.3
540.14,846.0
540.683,845.8
541.227,843.1
541.77,843.0
542.313,845.2
542.856,845.7
543.399,844.4
543.942,845.6
544.485,846.0
545.027,844.3
545.57,845.3
546.112,846.6
546.654,845.5
547.196,845.5
547.738,845.3
548.28,846.2
548.822,845.0
549.363,844.5
549.905,845.7
550.446,846.7
550.988,845.1
551.529,845.2
552.07,845.8
552.611,847.3
553.152,845.5
553.692,847.9
554.233,849.0
554.773,850.1
555.314,847.3
555.854,850.6
556.394,850.0
556.934,850.1
557.474,850.4
558.014,851.5
558.553,852.0
559.093,852.5
559.632,854.6
560.172,852.7
560.711,851.8
561.25,851.4
561.789,851.7
562.328,854.4
562.867,856.7
563.406,858.6
563.944,913.8
564.483,872.2
565.021,864.8
565.559,864.5
566.098,924.0
566.636,864.4
567.174,859.2
567.711,860.5
568.249,855.6
568.787,855.4
569.324,855.7
569.862,858.8
570.399,860.1
570.936,865.9
571.474,952.0
572.011,880.6
572.548,862.2
573.084,859.4
573.621,857.2
574.158,865.1
574.694,858.0
575.231,861.1
575.767,894.5
576.303,962.7
576.84,918.3
577.376,892.9
577.912,864.1
578.447,856.0
578.983,857.1
579.519,860.3
580.054,856.2
580.59,857.9
581.125,856.7
581.661,857.2
582.196,857.1
582.731,858.1
583.266,860.2
583.801,859.1
584.336,859.4
584.87,859.9
585.405,860.8
585.94,860.6
586.474,863.4
587.008,863.7
587.543,863.8
588.077,865.6
588.611,869.0
589.145,866.0
589.679,868.6
590.213,870.5
590.747,872.0
591.28,876.6
591.814,876.0
592.347,878.2
592.881,880.1
593.414,878.3
593.947,879.1
594.48,881.0
595.014,881.3
595.547,884.9
596.079,883.8
596.612,886.0
597.145,883.0
597.678,884.7
598.21,885.1
598.743,885.7
599.275,887.7
599.807,882.8
600.34,886.3
600.872,881.8
601.404,881.6
601.936,882.3
602.468,882.5
603.0,882.3
603.532,880.7
604.063,880.3
604.595,883.7
605.126,875.4
605.658,876.6
606.189,875.2
606.721,876.1
607.252,873.2
607.783,875.6
608.314,873.1
608.845,876.9
609.376,874.0
609.907,876.3
610.438,874.4
610.968,877.1
611.499,873.8
612.03,873.9
612.56,877.1
613.091,876.1
613.621,874.7
614.151,876.4
614.681,874.1
615.212,874.1
615.742,874.2
616.272,873.2
616.802,878.5
617.332,882.9
617.861,882.8
618.391,880.5
618.921,879.1
619.45,881.7
619.98,883.5
620.509,882.6
621.039,889.2
621.568,894.7
622.097,922.3
622.627,912.7
623.156,888.4
623.685,884.8
624.214,881.6
624.743,883.3
625.272,884.9
625.801,890.3
626.33,917.6
626.858,1162.2
627.387,1564.3
627.916,1271.0
628.444,1488.5
628.973,1274.3
629.501,1176.3
630.029,1082.0
630.558,1052.9
631.086,958.8
631.614,898.5
632.142,886.3
632.67,877.2
633.198,876.0
633.726,875.0
634.254,872.8
634.782,869.3
635.31,870.0
635.838,869.5
636.365,868.8
636.893,868.2
637.421,864.6
637.948,862.5
638.476,864.7
639.003,865.9
639.531,865.1
640.058,864.9
640.585,864.5
641.113,868.0
641.64,865.6
642.167,864.1
642.694,863.3
643.221,864.4
643.748,868.0
644.275,865.7
644.802,865.5
645.329,864.8
645.856,866.2
646.382,867.6
646.909,866.6
647.436,866.0
647.962,864.2
648.489,862.5
649.016,864.9
649.542,866.3
650.069,866.0
650.595,865.6
651.121,864.2
651.648,863.3
652.174,864.1
652.7,862.1
653.227,864.2
653.753,860.9
654.279,859.8
654.805,862.7
655.331,861.5
655.857,862.4
656.383,860.1
656.909,860.5
657.435,862.5
657.961,861.2
658.487,861.8
659.013,856.6
659.538,859.6
660.064,860.2
660.59,859.0
661.116,859.0
661.641,856.7
662.167,857.4
662.692,857.1
663.087,856.3

File: VLFR_02-HDPE_nobio_Raman_10c74d50.csv
cm-1,Intensity
-123.878,1852.35
-105.821,1852.3
-87.8007,1852.5
-69.8161,1852.25
-51.8675,1852.75
-33.9547,1854.6
-16.0776,1873.15
1.76388,2835.95
19.5698,1852.85
37.3403,1853.85
55.0755,1966.35
72.7754,2303.3
90.4402,2325.95
108.07,2331.1
125.665,2320.0
143.225,2333.45
160.75,2323.1
178.241,2320.35
195.697,2342.45
213.119,2351.65
230.506,2342.1
247.859,2364.15
265.178,2368.65
282.463,2385.3
299.713,2397.0
316.93,2446.0
334.113,2474.35
351.263,2498.0
368.379,2532.15
385.461,2511.55
402.51,2484.2
419.526,2511.85
436.508,2569.6
453.458,2562.7
470.374,2520.15
487.257,2538.65
504.107,2573.9
520.925,2551.0
537.71,2527.8
554.462,2551.15
571.182,2569.0
587.87,2576.45
604.525,2559.85
621.148,2562.55
637.739,2596.45
654.297,2580.6
670.824,2606.5
687.319,2599.05
703.782,2582.35
720.213,2603.9
736.613,2623.15
752.981,2637.8
769.317,2648.85
785.623,2628.7
801.897,2634.6
818.139,2642.85
834.351,2644.6
850.532,2636.0
866.681,2672.5
882.8,2707.25
898.888,2749.25
914.945,2713.2
930.972,2697.55
946.968,2722.7
962.934,2756.1
978.869,2760.0
994.774,2802.0
1010.65,2767.7
1026.49,2791.25
1042.31,2840.95
1058.09,2880.5
1073.85,2925.25
1089.57,3186.85
1105.27,3081.3
1120.93,3100.85
1136.57,2962.55
1152.18,2921.65
1167.75,2847.95
1183.3,2840.15
1198.82,2845.3
1214.31,2857.6
1229.77,2854.85
1245.2,2869.65
1260.6,2902.5
1275.97,2920.7
1291.32,2945.95
1306.63,2963.55
1321.92,2988.7
1337.18,3016.45
1352.41,2991.1
1367.61,3025.95
1382.78,3041.3
1397.93,2994.55
1413.05,2977.45
1428.14,2996.55
1443.2,2967.85
1458.23,2950.05
1473.23,3007.6
1488.21,2934.1
1503.16,2894.8
1518.08,2887.2
1532.97,2938.35
1547.84,2914.35
1562.68,2938.35
1577.49,2933.9
1592.27,2946.25
1607.03,2937.4
1621.76,2939.45
1636.46,2943.95
1651.14,2958.65
1665.78,2957.75
1680.41,2938.8
1695.0,2926.0
1709.57,2941.95
1724.11,2942.7
1738.62,2934.25
1753.11,2948.3
1767.57,2966.85
1782.01,2974.65
1796.41,2965.0
1810.8,2922.85
1825.15,2932.6
1839.48,2951.9
1853.79,2960.2
1868.06,2987.85
1882.31,2986.65
1896.54,2984.5
1910.74,2994.85
1924.91,2990.45
1939.06,2990.6
1953.19,3012.45
1967.28,3013.9
1981.35,3020.25
1995.4,3030.0
2009.42,3032.0
2023.42,3070.25
2037.39,3035.15
2051.33,3084.6
2065.25,3070.05
2079.15,3072.65
2093.01,3105.95
2106.86,3105.05
2120.68,3105.45
2134.47,3105.35
2148.24,3109.25
2161.99,3104.75
2175.71,3099.6
2189.41,3113.6
2203.08,3114.35
2216.73,3086.75
2230.35,3100.15
2243.95,3087.1
2257.52,3100.0
2271.07,3077.1
2284.6,3089.6
2298.1,3094.6
2311.58,3053.75
2325.03,3064.5
2338.46,3069.0
2351.87,3058.2
2365.25,3058.15
2378.61,3018.75
2391.94,3043.4
2405.26,3040.0
2418.54,3059.95
2431.81,3056.5
2445.05,3041.55
2458.27,3039.2
2471.46,3027.3
2484.63,3031.75
2497.78,3017.0
2510.9,3012.65
2524.0,3037.5
2537.08,2998.2
2550.14,2998.7
2563.17,3009.95
2576.18,2968.9
2589.17,2977.15
2602.13,2976.95
2615.07,3001.2
2627.99,2976.95
2640.89,2987.95
2653.76,2979.65
2666.61,2972.05
2679.44,2973.35
2692.25,2977.75
2705.03,2978.05
2717.79,2958.15
2730.53,2985.8
2743.25,2982.45
2755.94,2956.8
2768.61,2965.7
2781.27,2964.5
2793.89,2947.9
2806.5,2987.65
2819.09,2976.7
2831.65,3004.7
2844.19,3062.45
2856.71,3104.75
2869.21,3147.9
2881.69,3269.6
2894.14,3243.4
2906.58,3266.7
2918.99,3154.65
2931.38,3103.55
2943.75,3098.5
2956.1,3046.7
2968.42,2969.6
2980.73,2931.0
2993.01,2875.95
3005.28,2886.25
3017.52,2881.3
3029.74,2821.85
3041.94,2844.85
3054.12,2802.45
3066.28,2761.4
3078.42,2808.55
3090.54,2804.15
3102.63,2767.35
3114.71,2765.85
3126.77,2775.2
3138.8,2757.6
3150.82,2762.9
3162.81,2748.9
3174.78,2726.75
3186.74,2725.05
3198.67,2740.0
3210.58,2730.55
3222.47,2738.25
3234.35,2711.6
3246.2,2701.25
3258.03,2748.7
3269.84,2731.65
3281.64,2735.9
3293.41,2726.4
3305.16,2720.3
3316.89,2717.75
3328.61,2713.85
3340.3,2697.25
3351.97,2714.45
3363.63,2716.75
3375.26,2676.6
3386.88,2648.85
3398.47,2666.8
3410.05,2638.35
3421.6,2663.75
3433.14,2637.55
3444.66,2603.05
3456.15,2621.6
3467.63,2581.7
3479.09,2602.3
3490.53,2562.65
3501.96,2576.15
3513.36,2527.05
3524.74,2528.5
3536.11,2516.4
3547.45,2494.7
3558.78,2492.35
3570.09,2492.7
3581.37,2500.95
3592.64,2465.2
3603.9,2452.15
3615.13,2430.6
3626.34,2404.6
3637.54,2408.05
3648.72,2422.75
3659.87,2408.1
3665.45,2409.85

File: VLFR_02-HDPE_nobio_Raman_17c008d5.csv
nm,Intensity
526.532,830.433
527.079,830.1
527.625,830.033
528.172,830.0
528.718,829.2
529.265,830.3
529.811,830.433
530.357,830.367
530.903,830.367
531.449,829.833
531.994,833.4
532.54,830.633
533.085,830.433
533.63,831.2
534.176,901.267
534.721,902.033
535.266,897.733
535.81,869.267
536.355,860.533
536.9,857.033
537.444,857.333
537.988,856.3
538.533,855.2
539.077,852.6
539.621,849.733
540.165,849.6
540.708,849.767
541.252,849.167
541.795,848.3
542.339,848.1
542.882,848.433
543.425,848.267
543.968,848.767
544.511,847.533
545.054,848.5
545.597,847.767
546.139,847.967
546.682,847.867
547.224,848.467
547.766,848.933
548.308,849.233
548.85,847.033
549.392,847.833
549.934,849.667
550.475,848.8
551.017,848.133
551.558,850.333
552.1,848.9
552.641,848.667
553.182,850.7
553.723,851.933
554.264,850.6
554.804,852.7
555.345,851.767
555.885,853.5
556.426,853.233
556.966,854.533
557.506,856.233
558.046,857.0
558.586,856.9
559.126,856.4
559.665,855.3
560.205,853.967
560.745,855.867
561.284,853.533
561.823,854.867
562.362,856.867
562.901,857.933
563.44,862.4
563.979,961.933
564.518,876.267
565.056,870.467
565.595,866.1
566.133,935.633
566.671,863.267
567.21,863.633
567.748,866.167
568.285,856.967
568.823,857.767
569.361,858.967
569.899,859.933
570.436,862.7
570.974,868.533
571.511,1039.17
572.048,883.767
572.585,866.3
573.122,859.3
573.659,861.0
574.196,866.733
574.733,857.733
575.269,864.567
575.806,895.333
576.342,1032.73
576.878,945.5
577.414,914.367
577.951,870.467
578.486,862.567
579.022,861.6
579.558,861.733
580.094,860.8
580.629,860.6
581.165,859.9
581.7,860.667
582.236,859.6
582.771,861.033
583.306,860.367
583.841,859.533
584.376,861.2
584.911,860.233
585.445,861.833
585.98,860.4
586.514,860.567
587.049,863.033
587.583,863.833
588.117,861.267
588.651,863.133
589.186,863.667
589.72,864.567
590.253,865.867
590.787,865.933
591.321,867.667
591.854,868.8
592.388,869.533
592.921,869.233
593.455,870.667
593.988,869.6
594.521,872.167
595.054,871.667
595.587,874.0
596.12,874.767
596.653,875.333
597.186,879.6
597.718,877.533
598.251,880.9
598.783,882.233
599.316,883.167
599.848,883.133
600.38,884.367
600.912,886.767
601.444,886.0
601.976,891.4
602.508,887.933
603.04,884.467
603.572,887.167
604.103,885.733
604.635,883.867
605.167,883.8
605.698,879.7
606.229,879.533
606.761,879.033
607.292,879.267
607.823,877.133
608.354,877.7
608.885,878.1
609.416,876.6
609.947,875.433
610.477,875.733
611.008,875.767
611.539,876.533
612.069,875.9
612.6,876.5
613.13,875.533
613.66,875.2
614.19,875.5
614.721,875.6
615.251,876.533
615.781,876.967
616.311,878.4
616.841,881.767
617.37,887.8
617.9,888.433
618.43,888.333
618.96,886.367
619.489,890.533
620.019,892.0
620.548,892.333
621.077,898.967
621.607,922.133
622.136,965.4
622.665,952.733
623.194,904.033
623.723,894.567
624.252,891.033
624.781,893.2
625.31,898.2
625.839,909.167
626.368,963.9
626.896,1440.03
627.425,1988.97
627.953,1527.9
628.482,2042.43
629.01,1467.17
629.539,1334.37
630.067,1185.2
630.596,1151.73
631.124,992.933
631.652,912.0
632.18,895.967
632.708,888.567
633.236,885.233
633.764,879.667
634.292,877.3
634.82,874.533
635.348,871.233
635.876,870.667
636.403,870.633
636.931,870.133
637.459,865.033
637.986,863.6
638.514,862.967
639.041,862.2
639.568,862.6
640.096,859.967
640.623,861.067
641.15,862.333
641.678,861.933
642.205,860.4
642.732,861.167
643.259,860.967
643.786,860.933
644.313,861.667
644.84,860.867
645.367,862.5
645.894,859.2
646.421,860.6
646.948,860.667
647.474,860.567
648.001,861.6
648.528,859.667
649.054,861.733
649.581,860.033
650.108,860.2
650.634,861.833
651.161,861.933
651.687,858.8
652.214,862.267
652.74,860.6
653.266,862.8
653.793,862.833
654.319,861.167
654.845,861.733
655.371,861.6
655.897,859.6
656.424,860.0
656.95,860.767
657.476,859.867
658.002,860.6
658.528,861.633
659.054,860.8
659.58,861.4
660.106,862.367
660.631,861.867
661.157,860.967
661.683,858.1
662.209,858.9
662.735,858.533
663.129,857.0

File: VLFR_02-HDPE_nobio_Raman_24bc6922.csv
nm,Intensity
526.547,833.2
527.094,831.4
527.641,832.4
528.188,833.5
528.734,832.3
529.281,833.6
529.827,832.1
530.373,832.2
530.92,832.4
531.466,832.0
532.011,841.8
532.557,831.9
533.103,833.0
533.648,834.7
534.193,894.8
534.738,892.2
535.283,880.4
535.828,876.7
536.373,873.8
536.917,867.7
537.462,867.5
538.006,869.9
538.55,863.9
539.094,862.8
539.638,862.3
540.182,864.3
540.726,859.8
541.269,861.7
541.812,858.9
542.356,860.3
542.899,860.2
543.442,859.4
543.985,860.4
544.527,859.9
545.07,860.5
545.612,858.3
546.155,863.0
546.697,858.9
547.239,859.5
547.781,857.0
548.323,858.1
548.865,860.5
549.406,860.7
549.948,860.8
550.489,860.9
551.03,858.6
551.572,858.9
552.113,861.1
552.654,861.5
553.194,860.8
553.735,863.4
554.276,863.8
554.816,866.0
555.356,864.2
555.896,864.1
556.437,862.8
556.977,870.7
557.516,870.0
558.056,869.4
558.596,871.7
559.135,873.0
559.675,872.8
560.214,872.1
560.753,873.0
561.292,870.9
561.831,874.7
562.37,874.6
562.909,877.4
563.448,882.8
563.986,955.3
564.525,898.0
565.063,893.3
565.601,893.0
566.139,1024.3
566.677,892.4
567.215,889.9
567.753,886.2
568.291,887.6
568.828,889.0
569.366,889.6
569.903,890.2
570.441,896.9
570.978,900.7
571.515,1047.2
572.052,920.1
572.589,908.4
573.126,908.0
573.662,909.8
574.199,917.5
574.735,917.8
575.272,928.6
575.808,972.3
576.344,1035.7
576.88,996.9
577.416,981.9
577.952,959.2
578.488,965.0
579.024,979.9
579.559,980.5
580.095,989.7
580.63,1002.1
581.166,1014.8
581.701,1021.7
582.236,1033.9
582.771,1038.4
583.306,1050.2
583.841,1057.8
584.376,1068.9
584.911,1077.2
585.445,1080.7
585.98,1085.7
586.514,1099.1
587.048,1092.7
587.583,1099.2
588.117,1101.8
588.651,1107.8
589.185,1108.0
589.719,1115.2
590.253,1117.9
590.786,1121.1
591.32,1123.5
591.853,1132.5
592.387,1134.4
592.92,1136.3
593.454,1133.3
593.987,1138.5
594.52,1141.0
595.053,1145.6
595.586,1145.6
596.119,1142.5
596.651,1143.8
597.184,1152.7
597.717,1150.8
598.249,1158.6
598.782,1165.4
599.314,1166.6
599.846,1159.4
600.379,1164.1
600.911,1162.9
601.443,1162.5
601.975,1169.3
602.507,1163.6
603.038,1167.1
603.57,1159.2
604.102,1161.5
604.633,1143.9
605.165,1139.3
605.696,1128.9
606.228,1127.3
606.759,1117.0
607.29,1110.9
607.821,1109.8
608.352,1101.6
608.883,1102.2
609.414,1092.5
609.945,1084.3
610.476,1078.1
611.006,1083.7
611.537,1073.8
612.067,1071.5
612.598,1068.2
613.128,1067.6
613.659,1065.8
614.189,1056.3
614.719,1052.6
615.249,1049.3
615.779,1046.5
616.309,1042.0
616.839,1039.7
617.369,1038.1
617.899,1043.2
618.428,1027.5
618.958,1030.0
619.487,1031.2
620.017,1027.5
620.546,1026.0
621.076,1020.5
621.605,1036.1
622.134,1052.6
622.663,1044.5
623.193,1029.9
623.722,1026.5
624.251,1023.5
624.78,1023.4
625.308,1019.9
625.837,1033.1
626.366,1051.9
626.895,1266.9
627.423,1560.9
627.952,1341.7
628.48,1568.0
629.009,1397.2
629.537,1304.5
630.065,1234.3
630.594,1205.0
631.122,1102.5
631.65,1056.6
632.178,1042.6
632.706,1040.1
633.234,1033.9
633.762,1029.0
634.29,1034.9
634.818,1023.0
635.346,1029.8
635.873,1032.4
636.401,1036.1
636.929,1027.2
637.456,1033.1
637.984,1029.5
638.511,1034.2
639.039,1032.1
639.566,1027.6
640.093,1025.4
640.62,1030.4
641.148,1028.5
641.675,1023.3
642.202,1027.3
642.729,1021.4
643.256,1021.2
643.783,1020.9
644.31,1021.8
644.837,1017.8
645.364,1021.0
645.891,1017.9
646.417,1017.0
646.944,1018.6
647.471,1011.6
647.997,1011.3
648.524,1013.4
649.051,1008.1
649.577,1012.8
650.104,1010.0
650.63,1007.9
651.157,1006.4
651.683,1000.8
652.209,1003.0
652.736,1004.9
653.262,1001.0
653.788,998.5
654.314,1000.0
654.84,995.6
655.366,999.7
655.893,991.6
656.419,992.2
656.945,986.2
657.471,988.5
657.997,983.4
658.522,984.2
659.048,981.2
659.574,980.2
660.1,980.7
660.626,975.9
661.152,970.3
661.677,967.7
662.203,959.3
662.729,959.8
663.123,954.2

File: VLFR_02-HDPE_nobio_Raman_41d6915f.csv
cm-1,Intensity
-123.878,1852.15
-105.821,1853.15
-87.8007,1853.55
-69.8161,1852.95
-51.8675,1853.45
-33.9547,1854.75
-16.0776,1890.8
1.76388,3046.3
19.5698,1854.6
37.3403,1853.35
55.0755,1945.15
72.7754,2195.6
90.4402,2175.95
108.07,2160.35
125.665,2110.5
143.225,2077.1
160.75,2062.5
178.241,2066.05
195.697,2059.15
213.119,2051.9
230.506,2046.4
247.859,2038.7
265.178,2029.1
282.463,2026.9
299.713,2025.35
316.93,2026.85
334.113,2027.3
351.263,2027.75
368.379,2036.1
385.461,2023.0
402.51,2023.45
419.526,2027.55
436.508,2022.2
453.458,2021.1
470.374,2027.3
487.257,2018.15
504.107,2019.75
520.925,2028.15
537.71,2018.55
554.462,2020.4
571.182,2022.4
587.87,2022.85
604.525,2015.15
621.148,2027.7
637.739,2023.45
654.297,2027.7
670.824,2032.3
687.319,2038.5
703.782,2031.2
720.213,2056.35
736.613,2050.95
752.981,2064.7
769.317,2063.7
785.623,2061.9
801.897,2072.3
818.139,2080.8
834.351,2083.9
850.532,2087.75
866.681,2112.15
882.8,2122.1
898.888,2118.95
914.945,2117.5
930.972,2125.0
946.968,2133.1
962.934,2146.55
978.869,2141.5
994.774,2152.6
1010.65,2164.95
1026.49,2167.2
1042.31,2194.9
1058.09,2622.55
1073.85,2297.0
1089.57,2253.05
1105.27,2225.15
1120.93,2514.1
1136.57,2545.85
1152.18,2197.5
1167.75,2253.8
1183.3,2192.1
1198.82,2166.7
1214.31,2179.15
1229.77,2195.7
1245.2,2191.75
1260.6,2210.8
1275.97,2217.2
1291.32,2877.3
1306.63,2346.65
1321.92,2214.75
1337.18,2169.35
1352.41,2151.05
1367.61,2214.3
1382.78,2140.45
1397.93,2153.5
1413.05,2602.15
1428.14,2441.4
1443.2,2690.85
1458.23,2507.85
1473.23,2306.95
1488.21,2183.3
1503.16,2151.6
1518.08,2137.75
1532.97,2139.6
1547.84,2132.05
1562.68,2133.25
1577.49,2132.4
1592.27,2130.4
1607.03,2132.7
1621.76,2126.2
1636.46,2142.55
1651.14,2130.75
1665.78,2125.0
1680.41,2135.6
1695.0,2139.4
1709.57,2144.05
1724.11,2141.55
1738.62,2147.45
1753.11,2149.1
1767.57,2159.4
1782.01,2154.8
1796.41,2167.85
1810.8,2155.85
1825.15,2151.95
1839.48,2156.25
1853.79,2177.4
1868.06,2188.0
1882.31,2185.65
1896.54,2195.4
1910.74,2208.7
1924.91,2216.25
1939.06,2227.3
1953.19,2230.6
1967.28,2231.45
1981.35,2246.4
1995.4,2252.35
2009.42,2267.55
2023.42,2287.05
2037.39,2297.35
2051.33,2313.65
2065.25,2304.9
2079.15,2333.45
2093.01,2345.75
2106.86,2353.6
2120.68,2368.35
2134.47,2375.9
2148.24,2365.25
2161.99,2363.6
2175.71,2408.7
2189.41,2390.35
2203.08,2378.55
2216.73,2381.6
2230.35,2379.7
2243.95,2377.0
2257.52,2350.05
2271.07,2362.5
2284.6,2337.9
2298.1,2326.5
2311.58,2336.85
2325.03,2331.95
2338.46,2334.4
2351.87,2336.05
2365.25,2331.95
2378.61,2329.25
2391.94,2335.55
2405.26,2354.5
2418.54,2340.75
2431.81,2365.25
2445.05,2331.5
2458.27,2318.05
2471.46,2325.8
2484.63,2300.85
2497.78,2311.55
2510.9,2310.55
2524.0,2323.65
2537.08,2307.0
2550.14,2315.55
2563.17,2314.95
2576.18,2329.1
2589.17,2341.6
2602.13,2350.55
2615.07,2332.8
2627.99,2326.45
2640.89,2338.45
2653.76,2350.65
2666.61,2342.8
2679.44,2339.3
2692.25,2393.55
2705.03,2464.65
2717.79,2589.45
2730.53,2510.75
2743.25,2355.1
2755.94,2337.05
2768.61,2301.95
2781.27,2300.5
2793.89,2323.7
2806.5,2359.85
2819.09,2451.75
2831.65,3113.15
2844.19,6399.4
2856.71,5790.15
2869.21,4801.75
2881.69,6971.5
2894.14,4704.6
2906.58,4156.7
2918.99,3624.1
2931.38,3495.85
2943.75,2805.6
2956.1,2409.2
2968.42,2303.65
2980.73,2274.35
2993.01,2231.95
3005.28,2215.8
3017.52,2197.5
3029.74,2179.95
3041.94,2166.45
3054.12,2157.45
3066.28,2144.7
3078.42,2148.55
3090.54,2143.85
3102.63,2120.2
3114.71,2118.5
3126.77,2123.0
3138.8,2116.25
3150.82,2109.05
3162.81,2108.7
3174.78,2116.15
3186.74,2094.05
3198.67,2092.65
3210.58,2095.75
3222.47,2100.8
3234.35,2094.85
3246.2,2095.35
3258.03,2099.2
3269.84,2100.85
3281.64,2084.8
3293.41,2097.6
3305.16,2089.15
3316.89,2087.25
3328.61,2080.9
3340.3,2077.25
3351.97,2080.1
3363.63,2094.15
3375.26,2078.05
3386.88,2065.3
3398.47,2077.4
3410.05,2076.95
3421.6,2072.85
3433.14,2069.8
3444.66,2077.45
3456.15,2068.5
3467.63,2072.05
3479.09,2065.95
3490.53,2064.35
3501.96,2064.2
3513.36,2068.65
3524.74,2066.5
3536.11,2051.75
3547.45,2054.95
3558.78,2041.5
3570.09,2043.05
3581.37,2055.85
3592.64,2055.0
3603.9,2040.85
3615.13,2044.95
3626.34,2041.9
3637.54,2053.4
3648.72,2043.75
3659.87,2033.0
3665.45,2021.2