Folder: MPX_specDB/spectra (part 138)

File: VLFR_08-PLA_bio_Raman_b171f5a6.csv
nm,Intensity
526.508,831.1
527.055,830.0
527.602,830.2
528.149,828.9
528.695,828.8
529.241,830.2
529.787,830.0
530.334,829.6
530.879,830.2
531.425,831.1
531.971,837.2
532.516,831.5
533.062,829.5
533.607,831.8
534.152,1072.4
534.697,1020.1
535.242,980.6
535.786,964.6
536.331,957.5
536.876,956.7
537.42,948.4
537.964,945.4
538.508,934.4
539.052,931.5
539.596,932.0
540.14,922.9
540.683,943.8
541.227,947.2
541.77,938.6
542.313,934.2
542.856,936.7
543.399,962.8
543.942,968.0
544.485,946.6
545.027,937.6
545.57,928.7
546.112,928.0
546.654,934.2
547.196,935.4
547.738,935.8
548.28,937.3
548.822,939.2
549.363,941.0
549.905,940.9
550.446,940.4
550.988,950.5
551.529,945.6
552.07,955.2
552.611,958.1
553.152,951.1
553.692,947.0
554.233,960.6
554.773,953.6
555.314,949.8
555.854,941.2
556.394,947.0
556.934,950.0
557.474,962.9
558.014,1098.0
558.553,993.5
559.093,967.7
559.632,963.7
560.172,958.5
560.711,957.5
561.25,955.3
561.789,953.3
562.328,951.8
562.867,963.4
563.406,1011.4
563.944,980.4
564.483,973.2
565.021,989.8
565.559,990.5
566.098,1020.2
566.636,982.7
567.174,963.2
567.711,969.0
568.249,963.8
568.787,973.1
569.324,976.3
569.862,970.8
570.399,969.2
570.936,972.9
571.474,988.5
572.011,988.8
572.548,985.8
573.084,990.9
573.621,992.2
574.158,983.4
574.694,999.8
575.231,970.3
575.767,977.4
576.303,995.6
576.84,1068.4
577.376,1000.3
577.912,982.6
578.447,975.8
578.983,976.0
579.519,977.1
580.054,977.9
580.59,983.3
581.125,975.6
581.661,982.8
582.196,977.1
582.731,982.4
583.266,985.5
583.801,984.7
584.336,979.8
584.87,984.3
585.405,984.0
585.94,990.3
586.474,996.7
587.008,1040.0
587.543,1063.5
588.077,1013.2
588.611,986.3
589.145,986.5
589.679,978.0
590.213,984.3
590.747,980.6
591.28,980.7
591.814,983.2
592.347,984.7
592.881,983.4
593.414,980.6
593.947,981.5
594.48,980.3
595.014,982.6
595.547,981.0
596.079,981.9
596.612,981.2
597.145,981.4
597.678,977.8
598.21,987.2
598.743,983.2
599.275,982.8
599.807,984.0
600.34,979.7
600.872,981.5
601.404,982.9
601.936,980.0
602.468,976.1
603.0,985.6
603.532,980.2
604.063,978.1
604.595,973.4
605.126,976.5
605.658,973.8
606.189,971.9
606.721,973.3
607.252,976.1
607.783,972.8
608.314,973.5
608.845,968.9
609.376,974.3
609.907,972.9
610.438,973.6
610.968,976.5
611.499,968.9
612.03,968.3
612.56,976.1
613.091,970.7
613.621,976.5
614.151,976.5
614.681,979.9
615.212,973.2
615.742,976.4
616.272,976.5
616.802,975.0
617.332,972.9
617.861,977.9
618.391,971.0
618.921,974.5
619.45,974.2
619.98,972.5
620.509,979.3
621.039,969.9
621.568,968.6
622.097,974.5
622.627,985.9
623.156,988.4
623.685,985.2
624.214,979.0
624.743,973.7
625.272,976.6
625.801,972.0
626.33,973.0
626.858,969.8
627.387,976.6
627.916,986.3
628.444,1064.4
628.973,1043.0
629.501,1039.7
630.029,1053.6
630.558,1111.5
631.086,1553.0
631.614,1263.4
632.142,1114.3
632.67,1094.0
633.198,1204.2
633.726,1155.1
634.254,1043.0
634.782,985.7
635.31,973.9
635.838,963.1
636.365,966.8
636.893,960.4
637.421,963.1
637.948,957.2
638.476,955.4
639.003,953.8
639.531,951.9
640.058,955.9
640.585,955.0
641.113,956.5
641.64,955.3
642.167,955.3
642.694,954.6
643.221,952.1
643.748,952.1
644.275,948.4
644.802,946.3
645.329,944.9
645.856,944.5
646.382,943.1
646.909,945.8
647.436,940.7
647.962,942.4
648.489,939.4
649.016,937.5
649.542,938.2
650.069,939.7
650.595,940.1
651.121,936.7
651.648,938.2
652.174,937.0
652.7,935.2
653.227,941.8
653.753,935.6
654.279,936.3
654.805,933.3
655.331,935.2
655.857,932.0
656.383,937.9
656.909,936.0
657.435,934.9
657.961,933.9
658.487,934.8
659.013,935.8
659.538,929.0
660.064,931.1
660.59,931.3
661.116,931.2
661.641,928.6
662.167,927.2
662.692,929.4
663.087,927.1

File: VLFR_08-PLA_bio_Raman_b1625ae1.csv
nm,Intensity
528.626,1863.22
529.132,1863.2
529.637,1863.57
530.143,1863.28
530.648,1863.85
531.153,1866.38
531.658,1905.32
532.164,4480.9
532.669,1865.47
533.174,1864.32
533.679,1940.05
534.184,2205.38
534.689,2221.23
535.194,2233.25
535.699,2245.4
536.203,2228.07
536.708,2236.07
537.213,2242.05
537.717,2265.82
538.222,2261.25
538.726,2256.43
539.231,2259.65
539.735,2262.43
540.239,2260.02
540.744,2283.98
541.248,2292.98
541.752,2306.48
542.256,2297.25
542.76,2309.27
543.264,2307.82
543.768,2334.05
544.272,2336.77
544.776,2332.48
545.28,2332.38
545.784,2344.38
546.287,2327.02
546.791,2347.57
547.294,2341.05
547.798,2356.15
548.301,2364.48
548.805,2365.0
549.308,2362.9
549.811,2370.68
550.315,2389.45
550.818,2392.8
551.321,2396.75
551.824,2419.13
552.327,2420.23
552.83,2394.05
553.333,2398.85
553.835,2420.23
554.338,2427.15
554.841,2433.85
555.343,2430.82
555.846,2432.6
556.349,2421.2
556.851,2423.48
557.353,2446.18
557.856,2498.7
558.358,2484.98
558.86,2435.05
559.362,2457.25
559.864,2459.05
560.366,2452.38
560.868,2488.8
561.37,2578.18
561.872,2504.2
562.374,2480.4
562.876,2494.4
563.377,2516.25
563.879,2496.7
564.38,2503.75
564.882,2525.15
565.383,2519.4
565.885,2504.98
566.386,2522.2
566.887,2522.15
567.388,2527.2
567.889,2521.65
568.391,2513.93
568.892,2507.73
569.392,2538.1
569.893,2522.9
570.394,2527.0
570.895,2507.75
571.395,2547.82
571.896,2547.38
572.397,2555.07
572.897,2549.65
573.397,2560.3
573.898,2553.2
574.398,2537.98
574.898,2563.95
575.398,2553.13
575.898,2562.65
576.398,2576.85
576.898,2608.57
577.398,2563.48
577.898,2561.8
578.398,2544.13
578.897,2541.6
579.397,2559.57
579.896,2582.25
580.396,2572.1
580.895,2579.88
581.395,2583.77
581.894,2571.55
582.393,2575.18
582.892,2584.2
583.391,2591.93
583.89,2577.57
584.389,2605.63
584.888,2579.27
585.387,2573.07
585.886,2573.75
586.384,2589.55
586.883,2604.5
587.381,2620.07
587.88,2619.55
588.378,2592.5
588.876,2540.95
589.375,2564.07
589.873,2545.68
590.371,2572.25
590.869,2564.05
591.367,2579.07
591.865,2559.32
592.363,2573.05
592.86,2575.7
593.358,2568.18
593.856,2564.05
594.353,2561.32
594.851,2561.63
595.348,2570.85
595.845,2569.15
596.342,2596.95
596.84,2562.65
597.337,2568.1
597.834,2574.65
598.331,2572.02
598.828,2568.35
599.324,2599.1
599.821,2587.48
600.318,2583.63
600.814,2590.7
601.311,2574.35
601.807,2571.15
602.304,2557.48
602.8,2598.95
603.296,2584.1
603.792,2576.7
604.288,2569.18
604.784,2582.63
605.28,2575.93
605.776,2584.5
606.272,2579.75
606.767,2581.57
607.263,2569.43
607.759,2573.55
608.254,2578.88
608.749,2576.85
609.245,2566.5
609.74,2568.73
610.235,2559.43
610.73,2542.15
611.225,2553.5
611.72,2557.75
612.215,2551.0
612.71,2540.65
613.204,2568.6
613.699,2533.93
614.194,2551.43
614.688,2557.57
615.182,2529.9
615.677,2560.27
616.171,2521.95
616.665,2536.07
617.159,2529.07
617.653,2550.43
618.147,2532.1
618.641,2527.95
619.135,2527.55
619.628,2539.6
620.122,2544.7
620.615,2515.0
621.109,2531.77
621.602,2528.8
622.095,2517.1
622.589,2516.73
623.082,2512.38
623.575,2525.0
624.068,2509.05
624.561,2515.45
625.053,2499.73
625.546,2493.75
626.039,2481.18
626.531,2516.3
627.024,2496.05
627.516,2492.1
628.008,2480.7
628.501,2515.4
628.993,2516.93
629.485,2498.18
629.977,2496.1
630.469,2530.55
630.96,2645.57
631.452,2576.95
631.944,2526.18
632.435,2518.6
632.927,2534.93
633.418,2534.6
633.91,2505.85
634.401,2465.27
634.892,2462.18
635.383,2450.13
635.874,2434.35
636.365,2426.25
636.856,2440.25
637.346,2434.6
637.837,2429.0
638.327,2428.3
638.818,2416.48
639.308,2418.32
639.799,2397.27
640.289,2413.6
640.779,2392.5
641.269,2384.0
641.759,2386.13
642.249,2393.82
642.738,2390.43
643.228,2375.98
643.718,2369.43
644.207,2383.73
644.697,2385.63
645.186,2378.2
645.675,2382.1
646.164,2362.0
646.653,2354.93
647.142,2343.77
647.631,2348.07
648.12,2334.35
648.609,2339.45
649.098,2351.0
649.586,2306.45
650.075,2341.5
650.563,2345.2
651.051,2320.68
651.539,2327.8
652.027,2313.98
652.515,2296.02
653.003,2299.65
653.491,2272.3
653.979,2281.5
654.467,2271.13
654.954,2252.88
655.442,2259.2
655.929,2254.43
656.416,2203.23
656.904,2222.43
657.391,2233.2
657.878,2238.4
658.365,2211.1
658.851,2220.63
659.338,2200.13
659.825,2203.68
660.311,2208.2
660.798,2198.4
661.041,2205.73

File: VLFR_08-PLA_bio_Raman_b1133382.csv
nm,Intensity
528.626,1863.35
529.132,1864.0
529.637,1863.25
530.143,1862.6
530.648,1864.8
531.153,1864.6
531.658,1874.8
532.164,3287.8
532.669,1865.55
533.174,1866.65
533.679,2086.25
534.184,2896.65
534.689,2712.3
535.194,2627.2
535.699,2521.45
536.203,2427.3
536.708,2474.7
537.213,2358.9
537.717,2396.55
538.222,2380.5
538.726,2288.05
539.231,2266.75
539.735,2218.55
540.239,2249.95
540.744,2423.95
541.248,2370.85
541.752,2258.9
542.256,2248.15
542.76,2255.8
543.264,2403.0
543.768,2609.65
544.272,2436.55
544.776,2256.0
545.28,2224.2
545.784,2214.75
546.287,2219.85
546.791,2237.05
547.294,2243.75
547.798,2223.5
548.301,2229.65
548.805,2249.75
549.308,2242.35
549.811,2237.15
550.315,2256.8
550.818,2259.0
551.321,2275.85
551.824,2321.95
552.327,2339.9
552.83,2358.8
553.333,2320.45
553.835,2401.15
554.338,2342.55
554.841,2291.55
555.343,2258.4
555.846,2246.3
556.349,2255.3
556.851,2269.55
557.353,2351.15
557.856,3026.6
558.358,3042.6
558.86,2401.4
559.362,2390.1
559.864,2364.6
560.366,2301.4
560.868,2301.05
561.37,2275.35
561.872,2294.45
562.374,2308.8
562.876,2401.15
563.377,2698.85
563.879,2481.8
564.38,2372.6
564.882,2543.95
565.383,2524.2
565.885,2641.4
566.386,2701.25
566.887,2361.25
567.388,2341.75
567.889,2420.4
568.391,2373.35
568.892,2395.0
569.392,2366.7
569.893,2344.65
570.394,2345.65
570.895,2362.95
571.395,2566.35
571.896,2559.15
572.397,2439.65
572.897,2442.55
573.397,2472.7
573.898,2484.05
574.398,2521.85
574.898,2455.85
575.398,2360.2
575.898,2385.7
576.398,2684.15
576.898,2979.45
577.398,2501.8
577.898,2363.4
578.398,2338.8
578.897,2338.6
579.397,2330.8
579.896,2334.1
580.396,2340.55
580.895,2337.25
581.395,2338.2
581.894,2328.45
582.393,2331.6
582.892,2351.7
583.391,2348.35
583.89,2344.1
584.389,2363.45
584.888,2342.8
585.387,2346.35
585.886,2359.25
586.384,2406.8
586.883,2622.1
587.381,2903.2
587.88,2667.05
588.378,2383.0
588.876,2335.6
589.375,2331.7
589.873,2334.35
590.371,2340.55
590.869,2329.95
591.367,2336.25
591.865,2333.1
592.363,2321.6
592.86,2342.3
593.358,2331.6
593.856,2329.15
594.353,2317.4
594.851,2329.95
595.348,2332.35
595.845,2333.55
596.342,2339.05
596.84,2313.35
597.337,2316.8
597.834,2322.25
598.331,2321.6
598.828,2329.55
599.324,2323.8
599.821,2334.5
600.318,2334.55
600.814,2344.8
601.311,2338.45
601.807,2327.05
602.304,2325.15
602.8,2323.65
603.296,2329.65
603.792,2331.95
604.288,2321.1
604.784,2323.0
605.28,2324.95
605.776,2311.05
606.272,2311.35
606.767,2325.9
607.263,2321.4
607.759,2310.85
608.254,2311.8
608.749,2307.5
609.245,2297.3
609.74,2314.15
610.235,2306.8
610.73,2306.5
611.225,2304.95
611.72,2307.7
612.215,2299.35
612.71,2308.35
613.204,2300.6
613.699,2289.75
614.194,2299.05
614.688,2292.65
615.182,2294.05
615.677,2300.25
616.171,2290.5
616.665,2307.45
617.159,2296.85
617.653,2299.05
618.147,2297.7
618.641,2306.7
619.135,2289.5
619.628,2301.1
620.122,2289.15
620.615,2285.85
621.109,2279.7
621.602,2301.75
622.095,2309.65
622.589,2363.6
623.082,2405.55
623.575,2360.3
624.068,2329.8
624.561,2312.35
625.053,2290.9
625.546,2291.3
626.039,2287.15
626.531,2277.2
627.024,2310.5
627.516,2316.95
628.008,2475.9
628.501,2914.1
628.993,2768.65
629.485,2756.9
629.977,2820.1
630.469,3189.7
630.96,5634.6
631.452,4981.7
631.944,3471.9
632.435,3039.6
632.927,3362.45
633.418,3760.7
633.91,3180.5
634.401,2617.9
634.892,2368.75
635.383,2302.7
635.874,2260.95
636.365,2234.7
636.856,2241.6
637.346,2217.6
637.837,2224.55
638.327,2223.95
638.818,2208.55
639.308,2221.55
639.799,2213.1
640.289,2213.0
640.779,2186.0
641.269,2198.65
641.759,2214.85
642.249,2211.05
642.738,2205.55
643.228,2184.7
643.718,2186.2
644.207,2174.95
644.697,2173.15
645.186,2160.65
645.675,2170.55
646.164,2159.2
646.653,2157.3
647.142,2148.5
647.631,2146.7
648.12,2129.75
648.609,2134.4
649.098,2137.7
649.586,2130.05
650.075,2131.85
650.563,2137.85
651.051,2132.2
651.539,2129.25
652.027,2118.6
652.515,2113.8
653.003,2123.4
653.491,2101.85
653.979,2104.65
654.467,2098.35
654.954,2112.15
655.442,2088.9
655.929,2088.35
656.416,2081.45
656.904,2082.35
657.391,2088.05
657.878,2088.75
658.365,2070.1
658.851,2078.8
659.338,2064.35
659.825,2065.5
660.311,2069.15
660.798,2066.6
661.041,2061.05

File: VLFR_08-PLA_bio_Raman_bb6e4e08.csv
nm,Intensity
526.495,829.7
527.042,829.0
527.589,829.1
528.136,829.1
528.682,829.6
529.229,828.5
529.775,829.1
530.321,828.4
530.867,828.4
531.413,829.5
531.959,835.6
532.505,831.1
533.051,828.4
533.596,831.4
534.141,1035.7
534.687,986.4
535.232,949.3
535.777,930.9
536.321,922.9
536.866,918.7
537.41,909.1
537.955,912.6
538.499,897.6
539.043,894.5
539.587,890.8
540.131,885.1
540.675,900.8
541.219,907.2
541.762,896.1
542.305,892.5
542.849,894.3
543.392,914.6
543.935,923.2
544.478,904.7
545.02,890.1
545.563,887.3
546.106,887.2
546.648,886.7
547.19,887.3
547.732,890.6
548.274,885.3
548.816,894.0
549.358,892.3
549.9,890.3
550.441,890.6
550.983,892.8
551.524,900.1
552.065,897.3
552.606,903.7
553.147,899.9
553.688,900.6
554.229,911.2
554.769,897.9
555.31,891.9
555.85,887.3
556.391,889.6
556.931,896.7
557.471,909.9
558.011,1028.4
558.551,932.5
559.09,904.6
559.63,906.2
560.169,896.9
560.709,902.5
561.248,892.4
561.787,892.4
562.326,898.6
562.865,905.6
563.404,937.2
563.943,919.7
564.481,910.0
565.02,926.0
565.558,922.7
566.096,955.4
566.634,922.7
567.172,899.0
567.71,906.1
568.248,910.7
568.786,908.5
569.324,907.1
569.861,906.4
570.399,907.0
570.936,906.7
571.473,931.5
572.01,929.6
572.547,923.1
573.084,922.2
573.621,927.2
574.158,920.5
574.694,933.3
575.231,912.6
575.767,912.8
576.303,930.7
576.84,992.0
577.376,930.4
577.912,911.5
578.448,913.7
578.984,911.8
579.519,912.6
580.055,908.2
580.59,906.9
581.126,909.2
581.661,911.2
582.196,906.3
582.731,912.4
583.267,914.3
583.801,912.5
584.336,911.4
584.871,914.5
585.406,913.9
585.94,915.9
586.475,931.8
587.009,963.8
587.543,984.5
588.078,937.5
588.612,914.3
589.146,911.9
589.68,911.1
590.214,912.9
590.747,913.4
591.281,906.4
591.815,910.5
592.348,912.5
592.881,912.1
593.415,910.6
593.948,910.6
594.481,909.3
595.014,911.2
595.547,909.9
596.08,909.6
596.613,913.9
597.146,912.0
597.678,915.6
598.211,913.7
598.743,909.9
599.276,911.7
599.808,911.8
600.34,912.5
600.872,910.8
601.404,909.0
601.936,908.1
602.468,909.4
603.0,909.6
603.532,908.5
604.064,907.8
604.595,910.7
605.127,909.2
605.658,906.2
606.189,904.6
606.721,909.3
607.252,905.8
607.783,907.7
608.314,911.8
608.845,907.9
609.376,906.4
609.907,907.2
610.438,907.0
610.968,903.8
611.499,908.4
612.029,908.3
612.56,908.0
613.09,909.1
613.621,909.9
614.151,909.0
614.681,912.5
615.211,905.6
615.741,910.2
616.271,911.0
616.801,907.6
617.331,909.3
617.861,911.1
618.39,911.7
618.92,905.6
619.45,911.9
619.979,910.6
620.509,912.1
621.038,908.3
621.567,908.1
622.096,910.1
622.626,916.9
623.155,923.9
623.684,919.6
624.213,908.7
624.742,909.2
625.271,907.5
625.799,907.6
626.328,906.8
626.857,908.9
627.386,909.1
627.914,921.1
628.443,991.3
628.971,988.0
629.5,978.1
630.028,984.6
630.556,1049.9
631.084,1473.9
631.613,1188.0
632.141,1055.7
632.669,1030.1
633.197,1136.1
633.725,1087.5
634.253,982.3
634.781,931.2
635.308,916.3
635.836,910.0
636.364,907.1
636.891,905.1
637.419,901.1
637.947,903.7
638.474,899.7
639.002,901.1
639.529,898.9
640.056,900.1
640.584,902.3
641.111,900.2
641.638,901.8
642.165,897.8
642.692,900.9
643.219,899.6
643.746,895.2
644.273,896.1
644.8,894.9
645.327,891.9
645.854,892.2
646.381,894.4
646.908,891.8
647.434,893.3
647.961,892.0
648.488,891.1
649.014,891.6
649.541,889.9
650.067,889.8
650.594,888.0
651.12,892.1
651.646,892.0
652.173,891.6
652.699,885.5
653.225,889.0
653.752,883.7
654.278,885.4
654.804,886.8
655.33,885.6
655.856,886.0
656.382,887.4
656.908,888.7
657.434,887.6
657.96,887.1
658.486,886.2
659.012,886.7
659.538,885.3
660.064,883.9
660.589,881.1
661.115,885.1
661.641,883.6
662.166,884.6
662.692,884.0
663.086,879.8

File: VLFR_08-PLA_bio_Raman_bbd491a8.csv
nm,Intensity
526.547,832.3
527.095,833.15
527.642,831.7
528.189,832.15
528.736,831.45
529.283,832.85
529.829,831.6
530.376,832.2
530.922,830.55
531.468,831.9
532.014,846.45
532.56,831.85
533.106,831.75
533.651,831.75
534.196,842.35
534.742,841.5
535.287,840.15
535.832,841.65
536.376,842.2
536.921,841.65
537.465,843.15
538.01,843.25
538.554,842.4
539.098,842.15
539.642,844.05
540.186,843.45
540.729,843.6
541.273,844.65
541.816,845.0
542.36,847.0
542.903,843.65
543.446,843.55
543.988,843.65
544.531,843.1
545.074,842.6
545.616,842.05
546.158,842.6
546.701,842.0
547.243,842.4
547.785,843.25
548.326,841.7
548.868,842.8
549.41,843.55
549.951,843.55
550.492,843.4
551.034,843.15
551.575,843.55
552.116,843.2
552.656,842.3
553.197,844.45
553.738,844.35
554.278,843.85
554.819,844.45
555.359,846.0
555.899,846.2
556.439,844.4
556.979,844.8
557.519,844.4
558.058,844.7
558.598,845.35
559.137,845.45
559.677,843.15
560.216,844.5
560.755,845.0
561.294,845.8
561.833,847.15
562.371,847.0
562.91,846.95
563.449,846.95
563.987,846.6
564.525,847.0
565.064,846.75
565.602,845.8
566.14,845.9
566.678,846.75
567.216,848.35
567.753,847.8
568.291,847.75
568.828,848.7
569.366,847.45
569.903,848.7
570.44,849.2
570.977,847.9
571.514,847.75
572.051,848.7
572.588,848.3
573.125,848.8
573.661,850.85
574.198,846.75
574.734,849.15
575.271,849.4
575.807,848.85
576.343,850.15
576.879,849.15
577.415,850.5
577.951,850.35
578.486,851.3
579.022,851.05
579.557,850.55
580.093,850.15
580.628,848.7
581.164,850.05
581.699,849.75
582.234,851.65
582.769,849.35
583.304,848.85
583.838,851.85
584.373,848.75
584.908,851.5
585.442,851.7
585.977,850.25
586.511,851.75
587.045,850.75
587.58,850.9
588.114,849.8
588.648,849.4
589.182,850.45
589.715,849.2
590.249,850.85
590.783,849.9
591.316,849.3
591.85,848.7
592.383,848.9
592.917,849.95
593.45,849.15
593.983,849.8
594.516,850.8
595.049,849.65
595.582,850.0
596.115,850.15
596.648,850.6
597.18,849.55
597.713,850.8
598.245,849.4
598.778,851.65
599.31,851.05
599.842,850.35
600.375,849.25
600.907,850.0
601.439,849.5
601.971,850.4
602.503,849.45
603.034,850.0
603.566,849.15
604.098,850.9
604.629,848.4
605.161,849.5
605.692,849.2
606.224,848.3
606.755,849.3
607.286,848.85
607.817,850.0
608.348,850.4
608.879,849.0
609.41,848.45
609.941,850.3
610.472,849.6
611.002,849.65
611.533,848.85
612.063,848.8
612.594,849.35
613.124,849.0
613.655,849.2
614.185,849.55
614.715,851.55
615.245,849.15
615.775,849.5
616.305,848.65
616.835,849.65
617.365,850.65
617.895,847.8
618.425,848.45
618.954,851.05
619.484,848.85
620.013,849.35
620.543,849.5
621.072,848.35
621.602,850.55
622.131,849.45
622.66,849.2
623.189,849.5
623.718,849.45
624.247,849.35
624.776,850.25
625.305,848.3
625.834,850.1
626.363,849.7
626.891,850.15
627.42,849.9
627.949,849.25
628.477,849.55
629.006,849.0
629.534,847.4
630.062,848.95
630.591,849.75
631.119,850.55
631.647,850.0
632.175,847.95
632.703,848.7
633.231,848.95
633.759,850.1
634.287,850.2
634.815,848.75
635.343,847.9
635.871,849.65
636.398,850.45
636.926,849.2
637.454,848.2
637.981,848.0
638.509,849.55
639.036,848.8
639.564,848.2
640.091,849.45
640.618,849.95
641.146,848.3
641.673,848.95
642.2,849.8
642.727,848.9
643.254,848.7
643.781,848.15
644.308,848.25
644.835,849.15
645.362,847.35
645.889,848.4
646.416,847.1
646.942,848.6
647.469,849.5
647.996,848.3
648.522,848.1
649.049,847.65
649.576,849.4
650.102,848.45
650.629,847.25
651.155,847.7
651.682,847.35
652.208,848.4
652.734,848.0
653.261,848.5
653.787,848.55
654.313,848.65
654.839,846.75
655.365,848.15
655.892,846.65
656.418,847.25
656.944,848.35
657.47,847.45
657.996,847.5
658.522,847.15
659.048,847.2
659.574,846.4
660.099,848.05
660.625,846.8
661.151,847.75
661.677,847.65
662.203,845.55
662.728,846.5
663.123,846.5

File: VLFR_08-PLA_bio_Raman_be02c587.csv
nm,Intensity
526.547,831.1
527.095,832.95
527.642,832.8
528.189,832.85
528.736,832.35
529.283,832.55
529.829,831.8
530.376,831.5
530.922,832.1
531.468,832.1
532.014,834.3
532.56,832.05
533.106,831.85
533.651,835.9
534.196,1052.5
534.742,1004.0
535.287,971.15
535.832,952.8
536.376,946.6
536.921,949.15
537.465,939.3
538.01,938.85
538.554,928.35
539.098,927.75
539.642,919.2
540.186,920.35
540.729,935.7
541.273,935.1
541.816,925.05
542.36,921.3
542.903,927.1
543.446,949.85
543.988,961.15
544.531,933.5
545.074,924.15
545.616,921.45
546.158,924.65
546.701,921.4
547.243,926.7
547.785,922.4
548.326,924.05
548.868,929.45
549.41,932.4
549.951,930.15
550.492,931.25
551.034,932.45
551.575,937.4
552.116,938.55
552.656,942.8
553.197,941.75
553.738,939.95
554.278,949.1
554.819,942.55
555.359,938.35
555.899,933.2
556.439,934.8
556.979,937.45
557.519,954.35
558.058,1077.05
558.598,966.2
559.137,949.45
559.677,948.95
560.216,945.9
560.755,943.7
561.294,940.15
561.833,939.05
562.371,941.75
562.91,950.5
563.449,983.45
563.987,963.55
564.525,958.2
565.064,975.8
565.602,972.9
566.14,1005.4
566.678,964.7
567.216,953.85
567.753,956.05
568.291,955.75
568.828,959.05
569.366,957.1
569.903,955.3
570.44,954.9
570.977,959.25
571.514,978.15
572.051,978.1
572.588,968.1
573.125,973.35
573.661,977.0
574.198,970.5
574.734,981.0
575.271,963.35
575.807,961.8
576.343,981.5
576.879,1038.45
577.415,984.45
577.951,965.95
578.486,962.6
579.022,961.45
579.557,965.7
580.093,964.6
580.628,960.65
581.164,959.65
581.699,963.4
582.234,964.15
582.769,965.15
583.304,963.8
583.838,966.1
584.373,969.0
584.908,966.05
585.442,965.8
585.977,969.2
586.511,982.1
587.045,1016.3
587.58,1045.35
588.114,988.15
588.648,972.2
589.182,966.3
589.715,965.3
590.249,966.6
590.783,966.5
591.316,967.15
591.85,965.3
592.383,966.55
592.917,963.8
593.45,963.35
593.983,964.6
594.516,965.2
595.049,962.2
595.582,963.95
596.115,967.95
596.648,966.7
597.18,965.2
597.713,968.1
598.245,965.35
598.778,969.1
599.31,967.35
599.842,964.8
600.375,965.2
600.907,967.25
601.439,963.35
601.971,963.55
602.503,964.4
603.034,960.8
603.566,960.05
604.098,963.45
604.629,962.15
605.161,962.15
605.692,960.6
606.224,958.45
606.755,955.75
607.286,954.3
607.817,959.45
608.348,959.55
608.879,957.8
609.41,957.35
609.941,959.0
610.472,959.1
611.002,958.3
611.533,956.35
612.063,957.4
612.594,961.5
613.124,955.55
613.655,962.95
614.185,962.05
614.715,955.75
615.245,963.1
615.775,957.55
616.305,958.3
616.835,959.85
617.365,962.25
617.895,960.1
618.425,959.9
618.954,960.05
619.484,959.85
620.013,954.75
620.543,957.3
621.072,954.7
621.602,955.8
622.131,960.2
622.66,966.05
623.189,973.05
623.718,965.75
624.247,961.9
624.776,961.2
625.305,958.3
625.834,957.25
626.363,957.15
626.891,956.4
627.42,958.95
627.949,969.6
628.477,1045.95
629.006,1023.8
629.534,1021.4
630.062,1029.2
630.591,1099.05
631.119,1507.05
631.647,1217.95
632.175,1094.35
632.703,1068.3
633.231,1167.4
633.759,1119.15
634.287,1020.55
634.815,975.25
635.343,959.0
635.871,954.3
636.398,949.25
636.926,944.2
637.454,944.8
637.981,948.45
638.509,943.45
639.036,944.4
639.564,945.75
640.091,941.55
640.618,941.55
641.146,940.95
641.673,941.05
642.2,942.55
642.727,943.15
643.254,939.05
643.781,937.4
644.308,933.55
644.835,934.1
645.362,932.6
645.889,932.65
646.416,930.55
646.942,930.2
647.469,932.4
647.996,929.9
648.522,931.0
649.049,927.55
649.576,927.6
650.102,925.7
650.629,925.05
651.155,924.5
651.682,923.75
652.208,924.1
652.734,925.05
653.261,924.8
653.787,924.6
654.313,925.3
654.839,920.9
655.365,923.25
655.892,923.75
656.418,923.0
656.944,921.65
657.47,925.0
657.996,923.75
658.522,923.1
659.048,921.0
659.574,920.8
660.099,921.35
660.625,920.05
661.151,918.15
661.677,918.05
662.203,916.05
662.728,916.1
663.123,915.95