Folder: MPX_specDB/spectra (part 68)

File: VLFR_06-PET_bio_Raman_0a65e96b.csv
nm,Intensity
528.626,1868.4
529.132,1866.2
529.637,1866.8
530.143,1869.0
530.648,1867.5
531.153,1871.0
531.658,1907.8
532.164,4953.8
532.669,1873.3
533.174,1879.9
533.679,3042.9
534.184,6606.6
534.689,5270.6
535.194,4284.6
535.699,3375.8
536.203,2864.9
536.708,2657.0
537.213,2567.5
537.717,2544.4
538.222,2557.2
538.726,2560.8
539.231,2585.4
539.735,2678.8
540.239,2635.5
540.744,2493.5
541.248,2422.2
541.752,2420.9
542.256,2405.1
542.76,2432.4
543.264,2399.2
543.768,2438.0
544.272,2433.9
544.776,2455.0
545.28,2443.6
545.784,2478.4
546.287,2474.9
546.791,2507.7
547.294,2499.6
547.798,2515.7
548.301,2523.4
548.805,2574.2
549.308,2537.7
549.811,2560.5
550.315,2658.5
550.818,3173.9
551.321,2631.1
551.824,2639.3
552.327,2679.5
552.83,3038.5
553.333,2714.1
553.835,2708.0
554.338,2697.8
554.841,2734.3
555.343,2855.3
555.846,3110.6
556.349,3122.4
556.851,3199.7
557.353,3805.9
557.856,3528.3
558.358,3341.5
558.86,3164.9
559.362,2936.8
559.864,2905.2
560.366,2916.7
560.868,2966.3
561.37,3036.1
561.872,3068.9
562.374,3163.3
562.876,3189.1
563.377,3210.3
563.879,3074.0
564.38,3138.9
564.882,3355.3
565.383,3702.5
565.885,3992.9
566.386,3477.5
566.887,3242.7
567.388,3392.2
567.889,3607.7
568.391,3311.7
568.892,3286.1
569.392,3324.4
569.893,3486.4
570.394,3881.5
570.895,4597.9
571.395,5336.3
571.896,4403.1
572.397,3788.1
572.897,3562.4
573.397,3510.8
573.898,3606.6
574.398,3611.8
574.898,3592.9
575.398,3890.3
575.898,3660.2
576.398,3870.9
576.898,3871.1
577.398,3672.3
577.898,3651.2
578.398,3604.6
578.897,3669.2
579.397,3688.1
579.896,3774.9
580.396,3772.3
580.895,3853.3
581.395,4113.2
581.894,7136.9
582.393,7334.8
582.892,3950.3
583.391,3888.7
583.89,3840.1
584.389,3938.7
584.888,3973.2
585.387,4903.1
585.886,7620.6
586.384,6359.2
586.883,4342.1
587.381,4033.4
587.88,3967.4
588.378,3921.0
588.876,3946.5
589.375,3912.7
589.873,3887.5
590.371,3952.7
590.869,3917.7
591.367,3937.4
591.865,3973.6
592.363,4011.0
592.86,3945.8
593.358,3987.7
593.856,3942.0
594.353,3994.0
594.851,4009.0
595.348,4004.6
595.845,3987.9
596.342,3978.4
596.84,4083.5
597.337,4032.5
597.834,4025.4
598.331,4043.1
598.828,4060.4
599.324,4056.2
599.821,4086.7
600.318,4072.9
600.814,4126.0
601.311,4091.2
601.807,4079.4
602.304,4065.1
602.8,4124.1
603.296,4100.8
603.792,4124.0
604.288,4104.4
604.784,4171.4
605.28,4115.1
605.776,4114.6
606.272,4200.3
606.767,4161.4
607.263,4123.2
607.759,4184.9
608.254,4125.5
608.749,4235.9
609.245,4175.2
609.74,4239.3
610.235,4232.0
610.73,4176.2
611.225,4276.9
611.72,4195.6
612.215,4208.8
612.71,4178.8
613.204,4245.1
613.699,4342.1
614.194,4364.9
614.688,4354.7
615.182,4312.0
615.677,4327.8
616.171,4334.5
616.665,4409.3
617.159,4415.9
617.653,4468.2
618.147,4380.4
618.641,4460.9
619.135,4427.9
619.628,4380.8
620.122,4376.7
620.615,4470.3
621.109,4437.4
621.602,4442.0
622.095,4411.4
622.589,4432.1
623.082,4570.9
623.575,4526.2
624.068,4543.2
624.561,4605.9
625.053,4614.2
625.546,4600.7
626.039,4654.6
626.531,4578.7
627.024,4563.5
627.516,4712.0
628.008,4697.9
628.501,4901.2
628.993,4965.3
629.485,4905.5
629.977,4853.7
630.469,4973.6
630.96,5200.9
631.452,5998.7
631.944,6076.9
632.435,5667.1
632.927,5364.4
633.418,5376.9
633.91,5312.9
634.401,5145.8
634.892,5047.8
635.383,5235.1
635.874,5567.7
636.365,6436.4
636.856,6119.9
637.346,5396.7
637.837,5155.4
638.327,5094.1
638.818,5063.9
639.308,5166.2
639.799,5013.7
640.289,5057.3
640.779,5037.9
641.269,4996.3
641.759,5034.8
642.249,5071.8
642.738,5084.8
643.228,5043.0
643.718,5109.3
644.207,5071.8
644.697,5041.2
645.186,5047.4
645.675,5059.8
646.164,5046.8
646.653,5087.1
647.142,5155.5
647.631,4908.5
648.12,4999.1
648.609,5111.3
649.098,4933.1
649.586,4993.0
650.075,5112.4
650.563,4948.8
651.051,4917.5
651.539,4869.3
652.027,4868.2
652.515,4822.5
653.003,4898.2
653.491,4824.2
653.979,4817.8
654.467,4774.4
654.954,4786.1
655.442,4685.3
655.929,4823.9
656.416,4779.3
656.904,4605.2
657.391,4614.2
657.878,4549.1
658.365,4407.1
658.851,4582.5
659.338,4603.6
659.825,4350.9
660.311,4387.0
660.798,4419.2
661.041,4442.0

File: VLFR_06-PET_bio_Raman_0bdee353.csv
nm,Intensity
526.508,829.3
527.055,829.1
527.602,829.0
528.149,829.0
528.695,827.6
529.241,828.9
529.787,827.3
530.334,829.7
530.879,827.8
531.425,828.1
531.971,837.1
532.516,829.7
533.062,829.2
533.607,827.8
534.152,875.1
534.697,869.0
535.242,859.3
535.786,855.7
536.331,852.5
536.876,849.4
537.42,849.5
537.964,851.7
538.508,852.5
539.052,854.9
539.596,854.3
540.14,852.5
540.683,852.9
541.227,852.2
541.77,854.4
542.313,854.7
542.856,854.8
543.399,854.6
543.942,855.2
544.485,855.2
545.027,857.4
545.57,857.3
546.112,858.1
546.654,858.2
547.196,859.6
547.738,858.7
548.28,858.1
548.822,858.7
549.363,863.4
549.905,859.7
550.446,862.9
550.988,860.6
551.529,861.0
552.07,861.6
552.611,862.6
553.152,860.3
553.692,865.1
554.233,865.4
554.773,865.0
555.314,865.9
555.854,867.6
556.394,869.5
556.934,867.7
557.474,868.8
558.014,868.6
558.553,865.4
559.093,869.6
559.632,868.4
560.172,871.9
560.711,869.6
561.25,871.2
561.789,874.2
562.328,872.7
562.867,873.3
563.406,874.6
563.944,875.2
564.483,877.5
565.021,879.5
565.559,882.5
566.098,880.9
566.636,879.6
567.174,880.8
567.711,881.8
568.249,880.1
568.787,880.3
569.324,884.5
569.862,884.3
570.399,885.5
570.936,890.0
571.474,891.7
572.011,887.0
572.548,883.4
573.084,888.6
573.621,886.1
574.158,888.8
574.694,888.8
575.231,890.7
575.767,891.0
576.303,889.5
576.84,889.6
577.376,891.9
577.912,888.6
578.447,890.6
578.983,891.1
579.519,891.0
580.054,895.0
580.59,893.2
581.125,895.0
581.661,897.4
582.196,926.1
582.731,895.1
583.266,895.5
583.801,896.5
584.336,897.9
584.87,900.9
585.405,901.9
585.94,914.1
586.474,910.8
587.008,904.2
587.543,899.1
588.077,897.7
588.611,904.0
589.145,902.3
589.679,898.6
590.213,897.5
590.747,900.2
591.28,903.3
591.814,897.5
592.347,898.7
592.881,899.4
593.414,903.1
593.947,902.5
594.48,899.0
595.014,903.9
595.547,901.9
596.079,903.1
596.612,905.6
597.145,904.4
597.678,903.7
598.21,901.8
598.743,901.7
599.275,903.4
599.807,902.1
600.34,904.1
600.872,902.9
601.404,903.0
601.936,902.8
602.468,901.1
603.0,903.3
603.532,904.9
604.063,901.8
604.595,901.9
605.126,903.4
605.658,900.8
606.189,901.2
606.721,903.4
607.252,898.3
607.783,898.9
608.314,901.1
608.845,898.2
609.376,900.2
609.907,901.6
610.438,906.1
610.968,899.8
611.499,900.7
612.03,897.5
612.56,902.3
613.091,903.2
613.621,903.0
614.151,901.1
614.681,903.9
615.212,900.9
615.742,902.7
616.272,902.8
616.802,900.2
617.332,903.3
617.861,904.7
618.391,902.9
618.921,901.7
619.45,905.5
619.98,905.8
620.509,905.7
621.039,902.5
621.568,901.4
622.097,901.2
622.627,904.0
623.156,902.8
623.685,903.6
624.214,905.5
624.743,907.7
625.272,903.6
625.801,908.6
626.33,904.6
626.858,909.6
627.387,906.8
627.916,904.1
628.444,909.0
628.973,908.9
629.501,907.3
630.029,910.1
630.558,911.8
631.086,910.4
631.614,911.3
632.142,915.3
632.67,910.3
633.198,913.7
633.726,912.3
634.254,915.7
634.782,912.6
635.31,915.0
635.838,916.7
636.365,913.1
636.893,918.3
637.421,914.6
637.948,912.0
638.476,913.1
639.003,914.0
639.531,915.2
640.058,916.8
640.585,913.7
641.113,914.8
641.64,919.6
642.167,919.0
642.694,920.9
643.221,916.6
643.748,912.5
644.275,916.0
644.802,917.2
645.329,915.8
645.856,915.7
646.382,917.7
646.909,915.8
647.436,915.5
647.962,916.2
648.489,915.8
649.016,914.7
649.542,918.4
650.069,916.2
650.595,918.5
651.121,918.6
651.648,915.3
652.174,915.4
652.7,920.4
653.227,914.5
653.753,915.9
654.279,917.0
654.805,914.3
655.331,911.6
655.857,915.1
656.383,916.5
656.909,913.0
657.435,912.8
657.961,913.2
658.487,915.1
659.013,913.2
659.538,916.1
660.064,911.5
660.59,912.2
661.116,911.3
661.641,913.1
662.167,908.4
662.692,906.8
663.087,908.1

File: VLFR_06-PET_bio_Raman_1c48e8c0.csv
nm,Intensity
528.626,1862.9
529.132,1863.5
529.637,1864.25
530.143,1865.9
530.648,1864.45
531.153,1867.05
531.658,1908.65
532.164,4277.55
532.669,1869.0
533.174,1869.1
533.679,2533.85
534.184,4363.6
534.689,3778.7
535.194,3356.15
535.699,2980.05
536.203,2747.6
536.708,2668.65
537.213,2654.55
537.717,2642.85
538.222,2664.95
538.726,2671.9
539.231,2689.25
539.735,2770.3
540.239,2740.1
540.744,2681.2
541.248,2672.9
541.752,2665.55
542.256,2686.95
542.76,2712.6
543.264,2731.7
543.768,2717.9
544.272,2725.8
544.776,2744.3
545.28,2764.0
545.784,2775.95
546.287,2774.2
546.791,2774.35
547.294,2805.15
547.798,2811.45
548.301,2824.7
548.805,2861.45
549.308,2858.35
549.811,2861.7
550.315,2912.8
550.818,3126.3
551.321,2910.75
551.824,2952.8
552.327,2976.7
552.83,3106.35
553.333,2995.45
553.835,2976.2
554.338,3012.2
554.841,3023.45
555.343,3112.2
555.846,3207.9
556.349,3215.95
556.851,3258.35
557.353,3608.25
557.856,3439.5
558.358,3349.75
558.86,3269.2
559.362,3201.5
559.864,3175.8
560.366,3209.55
560.868,3208.2
561.37,3262.5
561.872,3277.2
562.374,3360.05
562.876,3368.75
563.377,3352.4
563.879,3314.8
564.38,3377.55
564.882,3523.55
565.383,3671.45
565.885,3767.95
566.386,3523.45
566.887,3449.75
567.388,3537.35
567.889,3639.6
568.391,3558.8
568.892,3548.75
569.392,3591.35
569.893,3667.9
570.394,3834.8
570.895,4205.0
571.395,4441.4
571.896,4062.85
572.397,3869.3
572.897,3799.1
573.397,3781.95
573.898,3807.15
574.398,3807.6
574.898,3830.65
575.398,3942.9
575.898,3914.15
576.398,3961.05
576.898,3976.45
577.398,3929.2
577.898,3901.5
578.398,3894.7
578.897,3889.15
579.397,3981.1
579.896,3973.05
580.396,4015.65
580.895,4142.9
581.395,4234.7
581.894,5630.0
582.393,5351.05
582.892,4079.9
583.391,4081.7
583.89,4038.45
584.389,4133.8
584.888,4167.35
585.387,4517.2
585.886,5619.35
586.384,5080.55
586.883,4263.25
587.381,4149.5
587.88,4133.0
588.378,4170.6
588.876,4104.0
589.375,4085.3
589.873,4104.55
590.371,4104.85
590.869,4146.85
591.367,4178.05
591.865,4230.25
592.363,4227.55
592.86,4215.35
593.358,4195.1
593.856,4203.85
594.353,4192.9
594.851,4187.45
595.348,4236.25
595.845,4259.1
596.342,4284.95
596.84,4258.55
597.337,4222.35
597.834,4239.85
598.331,4239.9
598.828,4263.15
599.324,4324.35
599.821,4260.75
600.318,4273.25
600.814,4304.75
601.311,4315.2
601.807,4322.75
602.304,4334.0
602.8,4316.35
603.296,4314.65
603.792,4345.2
604.288,4377.9
604.784,4348.25
605.28,4319.15
605.776,4406.4
606.272,4380.5
606.767,4428.5
607.263,4382.6
607.759,4407.0
608.254,4418.95
608.749,4455.5
609.245,4405.65
609.74,4407.3
610.235,4506.25
610.73,4463.5
611.225,4478.0
611.72,4512.6
612.215,4474.3
612.71,4478.5
613.204,4466.75
613.699,4509.75
614.194,4552.6
614.688,4519.35
615.182,4571.85
615.677,4566.15
616.171,4556.05
616.665,4542.75
617.159,4556.9
617.653,4571.0
618.147,4648.3
618.641,4605.45
619.135,4685.55
619.628,4651.05
620.122,4614.7
620.615,4621.9
621.109,4528.8
621.602,4653.8
622.095,4624.25
622.589,4637.1
623.082,4670.2
623.575,4719.2
624.068,4643.25
624.561,4762.85
625.053,4699.45
625.546,4727.25
626.039,4702.25
626.531,4704.3
627.024,4687.3
627.516,4763.75
628.008,4773.3
628.501,4752.5
628.993,4814.95
629.485,4848.0
629.977,4832.6
630.469,4844.1
630.96,4920.2
631.452,5143.3
631.944,5210.85
632.435,5099.35
632.927,5053.8
633.418,4993.55
633.91,4964.45
634.401,4897.75
634.892,4919.6
635.383,4919.7
635.874,5059.3
636.365,5381.55
636.856,5216.5
637.346,5023.4
637.837,4862.2
638.327,4958.5
638.818,4906.15
639.308,4919.6
639.799,4844.8
640.289,4839.75
640.779,4779.45
641.269,4944.0
641.759,4782.3
642.249,4891.7
642.738,4892.0
643.228,4812.65
643.718,4865.0
644.207,4842.45
644.697,4742.8
645.186,4855.0
645.675,4887.25
646.164,4811.55
646.653,4820.55
647.142,4807.25
647.631,4771.5
648.12,4763.95
648.609,4674.4
649.098,4704.2
649.586,4595.6
650.075,4636.85
650.563,4685.4
651.051,4580.15
651.539,4594.75
652.027,4596.55
652.515,4608.1
653.003,4545.3
653.491,4560.9
653.979,4468.65
654.467,4378.35
654.954,4414.2
655.442,4466.7
655.929,4409.3
656.416,4386.9
656.904,4369.5
657.391,4270.55
657.878,4299.45
658.365,4209.15
658.851,4273.05
659.338,4127.75
659.825,4135.65
660.311,4160.35
660.798,4134.75
661.041,4069.9

File: VLFR_06-PET_bio_Raman_1d57b388.csv
nm,Intensity
528.65,1844.35
529.155,1846.85
529.66,1847.25
530.165,1845.25
530.67,1847.9
531.175,1849.2
531.68,1875.2
532.185,3721.95
532.69,1850.15
533.194,1858.5
533.699,3017.9
534.204,6234.15
534.708,5598.9
535.213,5018.3
535.717,4568.2
536.222,4289.35
536.726,4166.0
537.231,4198.3
537.735,4241.4
538.239,4264.6
538.743,4265.65
539.247,4326.15
539.751,4461.2
540.255,4422.95
540.759,4433.75
541.263,4394.6
541.767,4453.9
542.271,4543.85
542.775,4634.75
543.279,4656.75
543.782,4660.35
544.286,4715.75
544.789,4813.65
545.293,4781.0
545.796,4834.55
546.3,4807.9
546.803,4911.65
547.306,4856.5
547.81,4967.0
548.313,5106.25
548.816,5070.95
549.319,5062.15
549.822,5154.6
550.325,5253.5
550.828,5499.6
551.331,5391.0
551.834,5380.95
552.337,5406.5
552.839,5555.3
553.342,5512.2
553.844,5527.25
554.347,5564.9
554.849,5665.35
555.352,5740.15
555.854,5971.5
556.357,6022.2
556.859,6067.75
557.361,6468.0
557.863,6317.9
558.365,6266.05
558.867,6242.8
559.369,6084.65
559.871,6214.0
560.373,6168.95
560.875,6282.2
561.377,6354.55
561.878,6594.0
562.38,6535.65
562.881,6570.35
563.383,6624.05
563.884,6676.9
564.386,6755.0
564.887,6928.05
565.388,7167.0
565.89,7287.3
566.391,7071.15
566.892,7026.5
567.393,7058.85
567.894,7316.15
568.395,7226.45
568.896,7233.1
569.396,7465.45
569.897,7375.95
570.398,7773.8
570.898,8176.65
571.399,8396.4
571.9,8262.55
572.4,7962.9
572.9,7903.8
573.401,7874.15
573.901,7871.8
574.401,7780.6
574.901,7864.4
575.401,7926.4
575.901,7994.15
576.401,8094.15
576.901,8121.15
577.401,8032.0
577.901,7934.0
578.4,8005.4
578.9,8162.25
579.399,8192.45
579.899,8265.45
580.398,8497.4
580.898,8472.95
581.397,8841.85
581.896,10495.9
582.395,9628.35
582.895,8282.85
583.394,8224.0
583.893,8220.6
584.391,8245.95
584.89,8292.2
585.389,8747.3
585.888,10232.2
586.386,9648.95
586.885,8444.15
587.384,8416.55
587.882,8267.3
588.38,8429.25
588.879,8331.85
589.377,8270.35
589.875,8316.45
590.373,8332.75
590.871,8358.5
591.369,8441.55
591.867,8465.85
592.365,8676.55
592.863,8581.35
593.361,8479.9
593.858,8518.7
594.356,8459.6
594.853,8523.65
595.351,8653.3
595.848,8626.15
596.345,8695.4
596.843,8701.4
597.34,8731.65
597.837,8787.2
598.334,8584.9
598.831,8703.7
599.328,8763.95
599.824,8651.45
600.321,8799.9
600.818,8659.15
601.314,8847.25
601.811,8710.55
602.307,8771.8
602.804,8906.35
603.3,8754.65
603.796,8901.3
604.293,8742.55
604.789,8842.8
605.285,8676.15
605.781,8807.55
606.277,8855.05
606.772,8746.3
607.268,8888.1
607.764,9012.25
608.259,8843.55
608.755,8842.1
609.25,8759.15
609.746,8862.4
610.241,8811.85
610.736,8676.7
611.231,8723.9
611.727,8725.05
612.222,8717.45
612.716,8853.3
613.211,8804.25
613.706,8777.75
614.201,8716.2
614.695,8765.2
615.19,8711.55
615.684,8746.5
616.179,8773.9
616.673,8592.9
617.168,8769.9
617.662,8624.9
618.156,8706.4
618.65,8814.1
619.144,8763.45
619.638,8683.85
620.131,8864.3
620.625,8769.8
621.119,8777.4
621.612,8566.5
622.106,8777.9
622.599,8709.5
623.093,8849.35
623.586,8696.7
624.079,8826.55
624.572,8949.8
625.065,8837.95
625.558,8664.9
626.051,8760.65
626.544,8761.15
627.037,8784.4
627.529,8798.2
628.022,8847.2
628.514,8941.95
629.007,9045.5
629.499,9035.25
629.991,8843.7
630.483,8840.35
630.976,9257.5
631.468,9601.6
631.959,9515.65
632.451,9332.45
632.943,9269.85
633.435,9160.55
633.926,9101.0
634.418,8922.35
634.909,9018.0
635.401,8924.05
635.892,9252.85
636.383,9819.55
636.874,9322.0
637.365,9037.9
637.856,9060.1
638.347,8904.85
638.838,8872.8
639.329,8923.1
639.819,8794.6
640.31,8768.35
640.8,8779.8
641.291,8688.6
641.781,8838.0
642.271,8926.4
642.761,8719.8
643.251,8531.85
643.741,8887.25
644.231,8819.05
644.721,8532.85
645.211,8947.15
645.7,8696.7
646.19,8688.85
646.679,8756.1
647.169,8487.0
647.658,8511.3
648.147,8596.55
648.636,8476.7
649.125,8536.1
649.614,8414.15
650.103,8297.6
650.592,8325.15
651.08,8311.6
651.569,8129.95
652.058,8056.8
652.546,8069.45
653.034,8010.65
653.523,7945.3
654.011,8234.4
654.499,7954.3
654.987,7774.45
655.475,7908.05
655.963,7637.8
656.45,7756.7
656.938,7594.75
657.425,7690.35
657.913,7498.5
658.4,7304.6
658.888,7519.35
659.375,7382.2
659.862,7269.15
660.349,7310.3
660.836,7057.75
661.079,7158.05

File: VLFR_06-PET_bio_Raman_2c5c79ab.csv
nm,Intensity
526.508,829.5
527.055,829.8
527.602,828.8
528.149,829.9
528.695,832.1
529.241,828.5
529.787,828.7
530.334,830.1
530.879,830.4
531.425,830.1
531.971,834.6
532.516,831.1
533.062,830.3
533.607,839.0
534.152,2169.2
534.697,1791.4
535.242,1431.6
535.786,1196.9
536.331,1059.3
536.876,1003.9
537.42,982.0
537.964,977.8
538.508,984.9
539.052,978.5
539.596,996.8
540.14,1004.9
540.683,960.6
541.227,947.6
541.77,940.3
542.313,940.4
542.856,941.9
543.399,938.8
543.942,950.1
544.485,943.4
545.027,947.2
545.57,951.0
546.112,949.0
546.654,956.6
547.196,954.6
547.738,955.1
548.28,958.0
548.822,959.8
549.363,962.2
549.905,960.2
550.446,979.3
550.988,992.3
551.529,973.7
552.07,972.4
552.611,986.0
553.152,1002.6
553.692,983.9
554.233,981.5
554.773,988.5
555.314,1005.0
555.854,1060.4
556.394,1062.6
556.934,1076.8
557.474,1237.6
558.014,1112.5
558.553,1100.1
559.093,1049.4
559.632,1015.2
560.172,1019.5
560.711,1022.2
561.25,1024.3
561.789,1033.3
562.328,1050.6
562.867,1063.3
563.406,1063.8
563.944,1055.4
564.483,1062.9
565.021,1125.1
565.559,1194.4
566.098,1193.7
566.636,1088.9
567.174,1063.5
567.711,1167.4
568.249,1084.0
568.787,1081.8
569.324,1080.7
569.862,1113.1
570.399,1161.4
570.936,1320.6
571.474,1469.9
572.011,1280.0
572.548,1152.9
573.084,1118.4
573.621,1119.4
574.158,1154.3
574.694,1130.8
575.231,1165.7
575.767,1146.4
576.303,1179.6
576.84,1201.0
577.376,1157.3
577.912,1141.9
578.447,1143.4
578.983,1146.8
579.519,1152.3
580.054,1158.8
580.59,1172.6
581.125,1195.1
581.661,1279.0
582.196,2671.3
582.731,1247.4
583.266,1187.5
583.801,1187.9
584.336,1201.0
584.87,1224.3
585.405,1339.0
585.94,1954.1
586.474,1654.9
587.008,1271.5
587.543,1215.1
588.077,1213.7
588.611,1206.0
589.145,1204.5
589.679,1206.6
590.213,1207.5
590.747,1210.4
591.28,1210.7
591.814,1212.8
592.347,1213.2
592.881,1210.8
593.414,1212.5
593.947,1211.9
594.48,1219.5
595.014,1223.1
595.547,1235.4
596.079,1227.3
596.612,1233.6
597.145,1229.4
597.678,1240.8
598.21,1235.8
598.743,1236.2
599.275,1245.2
599.807,1247.5
600.34,1244.5
600.872,1239.9
601.404,1242.5
601.936,1251.9
602.468,1242.1
603.0,1249.7
603.532,1248.8
604.063,1253.7
604.595,1242.8
605.126,1240.5
605.658,1241.0
606.189,1234.1
606.721,1241.1
607.252,1251.4
607.783,1248.5
608.314,1254.6
608.845,1256.7
609.376,1258.4
609.907,1251.5
610.438,1255.8
610.968,1257.9
611.499,1257.4
612.03,1262.3
612.56,1272.8
613.091,1281.0
613.621,1271.0
614.151,1285.9
614.681,1285.0
615.212,1280.3
615.742,1288.7
616.272,1276.8
616.802,1294.9
617.332,1297.8
617.861,1310.4
618.391,1311.5
618.921,1304.9
619.45,1303.0
619.98,1303.0
620.509,1301.0
621.039,1297.9
621.568,1305.8
622.097,1307.4
622.627,1311.2
623.156,1316.8
623.685,1333.7
624.214,1336.1
624.743,1341.0
625.272,1349.0
625.801,1348.5
626.33,1343.5
626.858,1345.8
627.387,1347.4
627.916,1353.1
628.444,1376.5
628.973,1403.5
629.501,1413.0
630.029,1399.6
630.558,1411.8
631.086,1481.7
631.614,1622.5
632.142,1615.1
632.67,1526.6
633.198,1508.5
633.726,1482.2
634.254,1455.3
634.782,1445.3
635.31,1451.5
635.838,1527.4
636.365,1660.2
636.893,1683.0
637.421,1514.7
637.948,1475.3
638.476,1466.3
639.003,1474.1
639.531,1476.2
640.058,1484.8
640.585,1481.4
641.113,1488.1
641.64,1491.1
642.167,1499.3
642.694,1515.9
643.221,1500.4
643.748,1504.8
644.275,1496.7
644.802,1499.1
645.329,1504.5
645.856,1512.3
646.382,1511.2
646.909,1526.6
647.436,1526.8
647.962,1531.8
648.489,1533.9
649.016,1519.7
649.542,1531.2
650.069,1535.5
650.595,1549.7
651.121,1527.6
651.648,1544.2
652.174,1544.8
652.7,1541.9
653.227,1541.6
653.753,1552.9
654.279,1553.7
654.805,1561.8
655.331,1556.1
655.857,1557.9
656.383,1563.0
656.909,1563.6
657.435,1560.7
657.961,1558.0
658.487,1562.7
659.013,1573.1
659.538,1558.8
660.064,1556.6
660.59,1561.8
661.116,1551.3
661.641,1552.7
662.167,1557.1
662.692,1551.1
663.087,1557.1

File: VLFR_06-PET_bio_Raman_2e26d36c.csv
nm,Intensity
528.65,1845.0
529.155,1845.65
529.66,1847.0
530.165,1846.4
530.67,1847.65
531.175,1851.1
531.68,1900.7
532.185,4885.6
532.69,1853.4
533.194,1869.2
533.699,4478.6
534.204,10761.2
534.708,8354.35
535.213,6395.8
535.717,4797.3
536.222,3745.75
536.726,3422.1
537.231,3201.85
537.735,3142.35
538.239,3213.05
538.743,3187.85
539.247,3219.6
539.751,3429.45
540.255,3258.15
540.759,3062.8
541.263,2965.25
541.767,2978.9
542.271,3021.2
542.775,3012.8
543.279,3020.4
543.782,3094.0
544.286,3087.05
544.789,3113.4
545.293,3112.85
545.796,3128.8
546.3,3106.8
546.803,3176.15
547.306,3190.9
547.81,3202.1
548.313,3238.4
548.816,3251.45
549.319,3255.95
549.822,3269.05
550.325,3436.8
550.828,4107.2
551.331,3394.4
551.834,3378.0
552.337,3501.85
552.839,4033.4
553.342,3495.15
553.844,3535.9
554.347,3560.35
554.849,3652.65
555.352,3947.8
555.854,4270.2
556.357,4495.9
556.859,4512.95
557.361,5812.8
557.863,5259.45
558.365,4904.5
558.867,4429.9
559.369,4080.4
559.871,4050.3
560.373,4014.05
560.875,4123.45
561.377,4164.1
561.878,4323.65
562.38,4373.65
562.881,4560.85
563.383,4574.0
563.884,4406.3
564.386,4553.8
564.887,4975.75
565.388,5652.45
565.89,6094.5
566.391,5031.95
566.892,4711.85
567.393,4965.0
567.894,5271.8
568.395,4740.1
568.896,4674.75
569.396,4854.4
569.897,5146.95
570.398,5772.1
570.898,7221.4
571.399,8283.1
571.9,6587.7
572.4,5511.7
572.9,5166.65
573.401,5094.2
573.901,5328.45
574.401,5242.95
574.901,5343.6
575.401,5732.7
575.901,5383.5
576.401,5795.2
576.901,5785.05
577.401,5407.3
577.901,5342.75
578.4,5303.9
578.9,5378.2
579.399,5369.0
579.899,5487.5
580.398,5594.6
580.898,5881.7
581.397,6174.0
581.896,12146.3
582.395,11256.7
582.895,5928.05
583.394,5969.05
583.893,5820.5
584.391,5942.55
584.89,6227.35
585.389,8135.6
585.888,13582.1
586.386,10565.8
586.885,6861.85
587.384,6112.35
587.882,6040.8
588.38,6099.9
588.879,5962.95
589.377,6030.55
589.875,6126.7
590.373,5920.95
590.871,6088.4
591.369,6084.85
591.867,6095.25
592.365,6231.05
592.863,6104.4
593.361,6197.35
593.858,6197.1
594.356,6115.85
594.853,6232.0
595.351,6316.4
595.848,6308.3
596.345,6380.65
596.843,6385.75
597.34,6428.55
597.837,6334.65
598.334,6345.1
598.831,6502.45
599.328,6570.7
599.824,6495.7
600.321,6438.65
600.818,6462.9
601.314,6527.2
601.811,6379.6
602.307,6481.45
602.804,6558.25
603.3,6535.9
603.796,6450.65
604.293,6526.25
604.789,6453.15
605.285,6321.25
605.781,6543.35
606.277,6600.45
606.772,6614.4
607.268,6543.85
607.764,6614.75
608.259,6459.5
608.755,6416.6
609.25,6472.3
609.746,6507.0
610.241,6402.85
610.736,6474.85
611.231,6407.4
611.727,6470.5
612.222,6461.1
612.716,6387.1
613.211,6543.1
613.706,6698.5
614.201,6627.65
614.695,6534.4
615.19,6632.65
615.684,6676.55
616.179,6474.75
616.673,6535.0
617.168,6602.4
617.662,6628.1
618.156,6685.05
618.65,6786.3
619.144,6714.05
619.638,6647.5
620.131,6669.05
620.625,6621.2
621.119,6622.1
621.612,6550.2
622.106,6650.25
622.599,6622.25
623.093,6632.85
623.586,6724.55
624.079,6669.25
624.572,6878.5
625.065,6856.15
625.558,6783.8
626.051,6869.75
626.544,6679.25
627.037,6822.2
627.529,6948.0
628.022,6966.9
628.514,7246.6
629.007,7264.6
629.499,7493.65
629.991,7234.3
630.483,7228.45
630.976,8120.95
631.468,9559.2
631.959,9731.1
632.451,8844.35
632.943,8235.9
633.435,8291.45
633.926,7965.4
634.418,7706.4
634.909,7673.25
635.401,7702.95
635.892,8640.85
636.383,10556.6
636.874,9629.6
637.365,8219.35
637.856,7828.75
638.347,7750.05
638.838,7610.6
639.329,7733.45
639.819,7571.8
640.31,7848.5
640.8,7596.8
641.291,7584.75
641.781,7703.8
642.271,7984.9
642.761,7898.5
643.251,7719.8
643.741,8026.55
644.231,7774.8
644.721,7716.55
645.211,7863.4
645.7,7837.9
646.19,7959.5
646.679,7944.3
647.169,7789.85
647.658,7852.75
648.147,8025.1
648.636,7841.4
649.125,7617.8
649.614,7922.25
650.103,7800.4
650.592,7731.15
651.08,7869.3
651.569,7642.7
652.058,7651.1
652.546,7521.95
653.034,7534.4
653.523,7414.6
654.011,7627.65
654.499,7537.2
654.987,7419.5
655.475,7566.25
655.963,7329.0
656.45,7491.45
656.938,7215.9
657.425,7275.4
657.913,7187.85
658.4,7212.5
658.888,7006.95
659.375,7010.45
659.862,6965.0
660.349,6981.75
660.836,6894.25
661.079,6945.95