Folder: MPX_specDB/spectra (part 139)

File: VLFR_08-PLA_bio_Raman_c6f799d1.csv
nm,Intensity
528.626,1862.4
529.132,1864.2
529.637,1863.8
530.143,1864.4
530.648,1865.9
531.153,1868.4
531.658,1909.9
532.164,4639.2
532.669,1867.5
533.174,1866.5
533.679,2156.8
534.184,2986.8
534.689,3065.2
535.194,3112.8
535.699,3159.9
536.203,3144.3
536.708,3218.8
537.213,3287.8
537.717,3374.8
538.222,3309.2
538.726,3350.2
539.231,3377.3
539.735,3412.8
540.239,3435.2
540.744,3456.2
541.248,3517.4
541.752,3577.1
542.256,3605.8
542.76,3570.8
543.264,3632.4
543.768,3650.8
544.272,3716.0
544.776,3785.7
545.28,3784.9
545.784,3816.3
546.287,3809.0
546.791,3884.2
547.294,3940.6
547.798,3949.6
548.301,3990.6
548.805,4109.2
549.308,4078.1
549.811,4044.0
550.315,4250.9
550.818,4215.3
551.321,4234.6
551.824,4303.6
552.327,4302.7
552.83,4294.9
553.333,4296.3
553.835,4441.6
554.338,4456.1
554.841,4502.5
555.343,4508.2
555.846,4509.6
556.349,4528.4
556.851,4526.7
557.353,4577.9
557.856,4637.6
558.358,4575.9
558.86,4594.0
559.362,4664.2
559.864,4669.5
560.366,4752.8
560.868,4796.0
561.37,4841.4
561.872,4830.8
562.374,4854.3
562.876,4852.2
563.377,4896.0
563.879,4864.2
564.38,4901.1
564.882,4985.9
565.383,4976.8
565.885,5049.4
566.386,5118.2
566.887,5095.8
567.388,5138.3
567.889,5095.2
568.391,5250.2
568.892,5166.0
569.392,5203.4
569.893,5213.7
570.394,5243.8
570.895,5325.5
571.395,5387.7
571.896,5445.6
572.397,5416.8
572.897,5417.7
573.397,5381.2
573.898,5432.4
574.398,5458.9
574.898,5544.1
575.398,5548.0
575.898,5633.6
576.398,5617.5
576.898,5661.6
577.398,5505.8
577.898,5693.6
578.398,5602.9
578.897,5667.3
579.397,5710.7
579.896,5748.1
580.396,5627.2
580.895,5688.6
581.395,5696.4
581.894,5799.6
582.393,5605.7
582.892,5541.2
583.391,5684.5
583.89,5618.4
584.389,5694.3
584.888,5498.2
585.387,5525.8
585.886,5466.4
586.384,5548.0
586.883,5592.4
587.381,5561.8
587.88,5631.0
588.378,5601.2
588.876,5561.0
589.375,5422.0
589.873,5520.5
590.371,5451.8
590.869,5559.2
591.367,5479.1
591.865,5569.2
592.363,5567.4
592.86,5559.1
593.358,5475.0
593.856,5509.9
594.353,5575.0
594.851,5470.9
595.348,5520.2
595.845,5561.6
596.342,5549.3
596.84,5595.3
597.337,5555.1
597.834,5563.7
598.331,5547.7
598.828,5498.5
599.324,5594.0
599.821,5532.4
600.318,5586.3
600.814,5576.4
601.311,5538.9
601.807,5564.8
602.304,5513.0
602.8,5656.1
603.296,5567.5
603.792,5532.2
604.288,5659.3
604.784,5459.9
605.28,5509.9
605.776,5560.1
606.272,5565.4
606.767,5536.8
607.263,5535.1
607.759,5535.9
608.254,5521.3
608.749,5611.5
609.245,5598.9
609.74,5511.2
610.235,5471.0
610.73,5475.9
611.225,5550.7
611.72,5450.8
612.215,5406.4
612.71,5488.9
613.204,5520.1
613.699,5517.4
614.194,5524.9
614.688,5513.9
615.182,5509.2
615.677,5378.7
616.171,5606.8
616.665,5533.5
617.159,5404.9
617.653,5309.8
618.147,5555.7
618.641,5411.8
619.135,5519.2
619.628,5504.7
620.122,5420.7
620.615,5448.3
621.109,5443.7
621.602,5382.0
622.095,5345.5
622.589,5374.8
623.082,5248.4
623.575,5228.0
624.068,5259.1
624.561,5280.5
625.053,5104.6
625.546,5304.0
626.039,5164.4
626.531,5082.1
627.024,5130.3
627.516,5186.2
628.008,5191.1
628.501,5126.8
628.993,5146.5
629.485,5111.0
629.977,5131.6
630.469,5118.3
630.96,5143.1
631.452,5153.5
631.944,5043.7
632.435,5064.8
632.927,4978.8
633.418,4952.7
633.91,4963.0
634.401,4968.8
634.892,4918.4
635.383,4745.2
635.874,4717.2
636.365,4738.5
636.856,4771.6
637.346,4694.2
637.837,4649.5
638.327,4662.0
638.818,4679.3
639.308,4661.5
639.799,4558.0
640.289,4532.4
640.779,4565.0
641.269,4538.6
641.759,4501.3
642.249,4491.3
642.738,4412.0
643.228,4434.0
643.718,4456.2
644.207,4397.6
644.697,4301.0
645.186,4360.9
645.675,4410.0
646.164,4328.8
646.653,4376.0
647.142,4191.4
647.631,4220.5
648.12,4304.6
648.609,4221.7
649.098,4223.6
649.586,4200.0
650.075,4132.3
650.563,4156.9
651.051,4075.8
651.539,3992.9
652.027,3916.9
652.515,3915.0
653.003,3925.3
653.491,3875.8
653.979,3896.0
654.467,3822.7
654.954,3727.9
655.442,3752.5
655.929,3743.5
656.416,3630.1
656.904,3626.2
657.391,3651.8
657.878,3526.2
658.365,3558.9
658.851,3478.3
659.338,3540.3
659.825,3443.8
660.311,3436.6
660.798,3417.1
661.041,3367.5

File: VLFR_08-PLA_bio_Raman_c07f32cf.csv
nm,Intensity
528.626,1862.5
529.132,1861.8
529.637,1862.4
530.143,1860.9
530.648,1864.1
531.153,1865.4
531.658,1910.4
532.164,5149.5
532.669,1865.1
533.174,1866.0
533.679,2138.4
534.184,2926.5
534.689,2705.7
535.194,2613.2
535.699,2491.8
536.203,2472.1
536.708,2493.6
537.213,2435.2
537.717,2472.4
538.222,2376.6
538.726,2370.7
539.231,2368.6
539.735,2312.0
540.239,2362.0
540.744,2417.1
541.248,2427.3
541.752,2389.1
542.256,2355.7
542.76,2394.9
543.264,2516.7
543.768,2552.2
544.272,2435.5
544.776,2398.4
545.28,2362.3
545.784,2356.7
546.287,2337.1
546.791,2374.0
547.294,2379.8
547.798,2368.3
548.301,2365.8
548.805,2412.7
549.308,2391.7
549.811,2390.4
550.315,2394.9
550.818,2428.5
551.321,2445.4
551.824,2457.4
552.327,2473.7
552.83,2455.1
553.333,2465.1
553.835,2513.4
554.338,2487.2
554.841,2481.4
555.343,2439.3
555.846,2422.8
556.349,2418.4
556.851,2457.0
557.353,2569.3
557.856,3139.5
558.358,2930.0
558.86,2589.7
559.362,2565.6
559.864,2513.4
560.366,2513.6
560.868,2518.0
561.37,2508.4
561.872,2501.8
562.374,2505.5
562.876,2593.9
563.377,2792.7
563.879,2661.1
564.38,2589.5
564.882,2709.9
565.383,2714.8
565.885,2848.7
566.386,2819.1
566.887,2590.8
567.388,2587.4
567.889,2650.5
568.391,2605.3
568.892,2597.5
569.392,2589.9
569.893,2612.9
570.394,2606.5
570.895,2621.8
571.395,2732.9
571.896,2770.3
572.397,2723.5
572.897,2693.6
573.397,2760.5
573.898,2724.6
574.398,2743.8
574.898,2669.1
575.398,2637.0
575.898,2688.4
576.398,2909.7
576.898,3154.8
577.398,2727.4
577.898,2645.1
578.398,2616.8
578.897,2627.0
579.397,2626.7
579.896,2617.9
580.396,2634.1
580.895,2621.2
581.395,2626.4
581.894,2642.8
582.393,2623.6
582.892,2637.6
583.391,2640.0
583.89,2608.2
584.389,2626.9
584.888,2637.5
585.387,2636.2
585.886,2626.1
586.384,2726.3
586.883,2918.4
587.381,3054.7
587.88,2909.5
588.378,2664.3
588.876,2662.4
589.375,2625.0
589.873,2624.4
590.371,2633.6
590.869,2634.8
591.367,2638.8
591.865,2624.6
592.363,2640.7
592.86,2637.6
593.358,2631.2
593.856,2598.4
594.353,2627.3
594.851,2613.6
595.348,2633.2
595.845,2639.6
596.342,2639.8
596.84,2619.8
597.337,2622.5
597.834,2610.7
598.331,2626.8
598.828,2607.3
599.324,2615.8
599.821,2623.3
600.318,2628.1
600.814,2627.3
601.311,2617.4
601.807,2638.2
602.304,2591.0
602.8,2629.6
603.296,2605.4
603.792,2626.2
604.288,2620.8
604.784,2603.2
605.28,2575.7
605.776,2614.2
606.272,2603.0
606.767,2602.9
607.263,2605.5
607.759,2609.7
608.254,2609.5
608.749,2575.7
609.245,2578.4
609.74,2585.9
610.235,2583.2
610.73,2565.4
611.225,2598.6
611.72,2564.4
612.215,2561.0
612.71,2568.4
613.204,2580.6
613.699,2566.4
614.194,2585.1
614.688,2588.0
615.182,2568.6
615.677,2578.6
616.171,2576.3
616.665,2579.5
617.159,2618.6
617.653,2561.9
618.147,2569.4
618.641,2579.5
619.135,2568.1
619.628,2591.1
620.122,2567.6
620.615,2561.5
621.109,2543.5
621.602,2548.7
622.095,2590.3
622.589,2598.4
623.082,2664.0
623.575,2633.4
624.068,2590.2
624.561,2571.1
625.053,2547.1
625.546,2544.7
626.039,2552.9
626.531,2570.4
627.024,2532.9
627.516,2580.6
628.008,2709.7
628.501,3026.5
628.993,2901.2
629.485,2941.5
629.977,2952.8
630.469,3356.4
630.96,5255.7
631.452,4514.7
631.944,3385.8
632.435,3201.3
632.927,3661.8
633.418,3814.1
633.91,3313.0
634.401,2840.6
634.892,2647.3
635.383,2532.4
635.874,2491.5
636.365,2498.4
636.856,2490.5
637.346,2479.9
637.837,2457.6
638.327,2465.5
638.818,2466.3
639.308,2444.1
639.799,2436.3
640.289,2437.0
640.779,2418.1
641.269,2449.2
641.759,2409.3
642.249,2429.7
642.738,2440.8
643.228,2382.2
643.718,2410.8
644.207,2396.9
644.697,2396.7
645.186,2402.3
645.675,2369.7
646.164,2373.2
646.653,2381.0
647.142,2351.6
647.631,2343.2
648.12,2346.9
648.609,2333.2
649.098,2344.3
649.586,2328.8
650.075,2311.3
650.563,2326.8
651.051,2302.4
651.539,2304.5
652.027,2308.5
652.515,2296.1
653.003,2297.5
653.491,2280.8
653.979,2268.1
654.467,2297.9
654.954,2274.0
655.442,2271.0
655.929,2270.3
656.416,2254.5
656.904,2253.0
657.391,2265.1
657.878,2231.7
658.365,2237.7
658.851,2236.0
659.338,2217.3
659.825,2206.4
660.311,2220.8
660.798,2214.6
661.041,2193.7

File: VLFR_08-PLA_bio_Raman_c8e467a2.csv
nm,Intensity
528.626,1865.05
529.132,1865.15
529.637,1865.65
530.143,1865.6
530.648,1865.4
531.153,1866.45
531.658,1890.2
532.164,4579.0
532.669,1868.5
533.174,1867.7
533.679,2071.35
534.184,3054.55
534.689,3036.95
535.194,3032.7
535.699,3041.75
536.203,3002.65
536.708,2980.1
537.213,2987.7
537.717,3030.7
538.222,3034.55
538.726,3037.8
539.231,3067.15
539.735,3099.7
540.239,3106.7
540.744,3188.45
541.248,3189.9
541.752,3186.5
542.256,3238.75
542.76,3283.25
543.264,3312.65
543.768,3386.9
544.272,3388.0
544.776,3376.15
545.28,3380.35
545.784,3435.85
546.287,3459.95
546.791,3479.65
547.294,3498.95
547.798,3483.25
548.301,3529.55
548.805,3568.45
549.308,3563.2
549.811,3617.55
550.315,3563.75
550.818,3629.8
551.321,3624.65
551.824,3653.2
552.327,3657.8
552.83,3637.6
553.333,3638.4
553.835,3701.8
554.338,3695.15
554.841,3668.45
555.343,3674.9
555.846,3694.9
556.349,3688.6
556.851,3691.65
557.353,3699.65
557.856,3901.7
558.358,3870.65
558.86,3707.0
559.362,3707.85
559.864,3693.85
560.366,3717.05
560.868,3705.05
561.37,3704.0
561.872,3678.8
562.374,3691.95
562.876,3692.05
563.377,3768.0
563.879,3663.9
564.38,3650.65
564.882,3691.5
565.383,3671.25
565.885,3700.1
566.386,3717.15
566.887,3616.95
567.388,3563.8
567.889,3605.2
568.391,3578.45
568.892,3612.05
569.392,3588.05
569.893,3596.95
570.394,3579.2
570.895,3569.2
571.395,3662.35
571.896,3640.1
572.397,3580.1
572.897,3572.85
573.397,3532.05
573.898,3546.6
574.398,3531.4
574.898,3501.25
575.398,3470.6
575.898,3528.7
576.398,3594.55
576.898,3661.2
577.398,3504.95
577.898,3395.45
578.398,3394.4
578.897,3385.55
579.397,3414.45
579.896,3384.9
580.396,3396.2
580.895,3391.95
581.395,3400.45
581.894,3415.45
582.393,3375.8
582.892,3340.9
583.391,3376.0
583.89,3360.65
584.389,3346.5
584.888,3319.7
585.387,3315.0
585.886,3291.5
586.384,3277.45
586.883,3336.25
587.381,3436.4
587.88,3364.25
588.378,3283.4
588.876,3234.05
589.375,3226.9
589.873,3214.75
590.371,3208.3
590.869,3215.2
591.367,3202.25
591.865,3217.1
592.363,3179.7
592.86,3195.45
593.358,3166.75
593.856,3168.6
594.353,3159.55
594.851,3148.3
595.348,3177.3
595.845,3166.4
596.342,3146.5
596.84,3167.9
597.337,3183.15
597.834,3160.7
598.331,3129.4
598.828,3179.85
599.324,3152.25
599.821,3119.1
600.318,3157.25
600.814,3131.65
601.311,3123.9
601.807,3113.5
602.304,3115.2
602.8,3117.35
603.296,3125.8
603.792,3122.85
604.288,3120.55
604.784,3117.35
605.28,3110.6
605.776,3078.6
606.272,3095.85
606.767,3074.7
607.263,3085.5
607.759,3054.0
608.254,3071.7
608.749,3040.25
609.245,3073.0
609.74,3041.55
610.235,3059.7
610.73,3065.6
611.225,3037.1
611.72,3072.1
612.215,3045.6
612.71,3023.55
613.204,3036.5
613.699,3007.55
614.194,3034.7
614.688,2993.05
615.182,3013.25
615.677,3021.4
616.171,3021.0
616.665,2992.6
617.159,2979.95
617.653,3013.1
618.147,2974.1
618.641,2979.1
619.135,2964.85
619.628,2987.5
620.122,2965.65
620.615,2954.05
621.109,2931.95
621.602,2943.05
622.095,2950.95
622.589,2944.2
623.082,2978.55
623.575,2920.45
624.068,2932.8
624.561,2925.05
625.053,2898.7
625.546,2897.3
626.039,2886.6
626.531,2869.75
627.024,2943.0
627.516,2973.35
628.008,3037.95
628.501,3173.2
628.993,3135.0
629.485,3148.55
629.977,3126.6
630.469,3256.95
630.96,3874.7
631.452,3724.85
631.944,3247.75
632.435,3110.05
632.927,3206.35
633.418,3314.1
633.91,3112.5
634.401,2890.8
634.892,2848.75
635.383,2814.35
635.874,2776.5
636.365,2769.6
636.856,2755.6
637.346,2756.95
637.837,2743.9
638.327,2738.75
638.818,2707.7
639.308,2707.9
639.799,2693.05
640.289,2722.55
640.779,2701.0
641.269,2701.15
641.759,2698.8
642.249,2688.45
642.738,2660.7
643.228,2664.0
643.718,2643.75
644.207,2664.6
644.697,2654.75
645.186,2642.6
645.675,2653.75
646.164,2637.6
646.653,2620.25
647.142,2605.4
647.631,2599.25
648.12,2599.0
648.609,2570.05
649.098,2554.3
649.586,2576.6
650.075,2568.85
650.563,2549.8
651.051,2534.0
651.539,2524.4
652.027,2521.2
652.515,2537.95
653.003,2500.0
653.491,2485.65
653.979,2480.35
654.467,2490.45
654.954,2475.65
655.442,2455.2
655.929,2442.95
656.416,2441.2
656.904,2432.1
657.391,2437.4
657.878,2442.6
658.365,2413.1
658.851,2414.75
659.338,2395.55
659.825,2398.8
660.311,2384.75
660.798,2370.25
661.041,2371.65

File: VLFR_08-PLA_bio_Raman_c64d5ab4.csv
nm,Intensity
526.495,829.2
527.042,828.7
527.589,829.6
528.136,830.0
528.682,828.8
529.229,830.6
529.775,829.0
530.321,830.6
530.867,829.5
531.413,830.1
531.959,835.0
532.505,829.0
533.051,828.6
533.596,830.7
534.141,951.4
534.687,919.1
535.232,899.8
535.777,894.0
536.321,886.1
536.866,888.5
537.41,881.5
537.955,882.5
538.499,877.7
539.043,874.8
539.587,872.7
540.131,870.0
540.675,882.0
541.219,880.7
541.762,874.7
542.305,871.0
542.849,870.9
543.392,885.8
543.935,891.1
544.478,880.1
545.02,874.4
545.563,869.4
546.106,870.3
546.648,869.3
547.19,872.0
547.732,871.4
548.274,874.0
548.816,874.5
549.358,874.4
549.9,873.2
550.441,875.4
550.983,876.5
551.524,880.0
552.065,878.4
552.606,880.0
553.147,877.4
553.688,880.7
554.229,881.9
554.769,881.4
555.31,878.4
555.85,874.2
556.391,876.6
556.931,877.7
557.471,887.3
558.011,956.9
558.551,897.1
559.09,885.9
559.63,885.1
560.169,880.7
560.709,880.1
561.248,879.7
561.787,878.9
562.326,880.1
562.865,884.9
563.404,905.3
563.943,892.4
564.481,889.5
565.02,896.9
565.558,893.8
566.096,913.2
566.634,893.7
567.172,883.3
567.71,884.1
568.248,886.9
568.786,887.5
569.324,886.8
569.861,884.4
570.399,890.0
570.936,891.2
571.473,899.2
572.01,897.4
572.547,895.9
573.084,897.3
573.621,903.4
574.158,893.3
574.694,905.0
575.231,886.7
575.767,891.2
576.303,901.9
576.84,937.2
577.376,906.1
577.912,889.0
578.448,891.2
578.984,892.8
579.519,891.6
580.055,889.1
580.59,890.4
581.126,893.0
581.661,889.2
582.196,890.9
582.731,894.4
583.267,893.6
583.801,889.8
584.336,894.4
584.871,893.3
585.406,894.6
585.94,897.3
586.475,901.2
587.009,921.6
587.543,932.3
588.078,909.2
588.612,894.5
589.146,895.1
589.68,891.5
590.214,895.9
590.747,896.9
591.281,893.9
591.815,893.7
592.348,892.4
592.881,893.2
593.415,893.1
593.948,893.9
594.481,891.7
595.014,891.3
595.547,893.1
596.08,895.2
596.613,890.5
597.146,893.7
597.678,892.2
598.211,892.6
598.743,895.2
599.276,890.4
599.808,893.2
600.34,891.0
600.872,891.9
601.404,891.2
601.936,891.1
602.468,892.2
603.0,894.2
603.532,893.0
604.064,893.0
604.595,892.7
605.127,892.2
605.658,891.5
606.189,887.1
606.721,889.1
607.252,889.1
607.783,892.4
608.314,891.9
608.845,889.7
609.376,891.3
609.907,890.5
610.438,889.1
610.968,887.3
611.499,888.0
612.029,891.0
612.56,891.1
613.09,892.4
613.621,893.8
614.151,890.8
614.681,894.8
615.211,890.9
615.741,891.8
616.271,895.4
616.801,888.3
617.331,892.2
617.861,890.6
618.39,892.3
618.92,889.3
619.45,889.6
619.979,885.6
620.509,889.3
621.038,891.4
621.567,891.5
622.096,890.9
622.626,896.9
623.155,899.5
623.684,896.4
624.213,894.7
624.742,893.8
625.271,890.3
625.799,892.3
626.328,888.8
626.857,893.7
627.386,894.6
627.914,902.0
628.443,948.8
628.971,935.2
629.5,938.3
630.028,943.0
630.556,989.0
631.084,1240.4
631.613,1064.8
632.141,983.0
632.669,962.3
633.197,1032.9
633.725,1000.9
634.253,937.1
634.781,904.8
635.308,892.1
635.836,888.6
636.364,887.7
636.891,887.5
637.419,882.7
637.947,884.7
638.474,885.0
639.002,882.1
639.529,886.0
640.056,882.7
640.584,881.8
641.111,882.6
641.638,881.6
642.165,882.2
642.692,881.4
643.219,884.4
643.746,880.8
644.273,879.6
644.8,877.9
645.327,877.9
645.854,881.3
646.381,877.0
646.908,881.2
647.434,877.0
647.961,877.1
648.488,878.9
649.014,878.5
649.541,879.0
650.067,874.9
650.594,877.3
651.12,874.8
651.646,875.4
652.173,874.5
652.699,874.4
653.225,873.8
653.752,874.7
654.278,876.2
654.804,875.4
655.33,872.0
655.856,872.4
656.382,873.6
656.908,871.3
657.434,872.8
657.96,874.6
658.486,874.1
659.012,873.8
659.538,874.8
660.064,869.3
660.589,872.2
661.115,874.5
661.641,871.1
662.166,868.0
662.692,871.5
663.086,869.3

File: VLFR_08-PLA_bio_Raman_c72bba27.csv
nm,Intensity
526.495,827.7
527.042,827.7
527.589,828.5
528.136,828.7
528.682,828.1
529.229,829.7
529.775,829.0
530.321,829.5
530.867,829.4
531.413,830.0
531.959,829.8
532.505,829.5
533.051,828.7
533.596,829.1
534.141,980.2
534.687,951.2
535.232,925.4
535.777,915.4
536.321,908.7
536.866,905.5
537.41,905.1
537.955,903.0
538.499,895.8
539.043,892.1
539.587,896.4
540.131,889.4
540.675,899.4
541.219,900.6
541.762,895.8
542.305,895.7
542.849,896.7
543.392,909.9
543.935,915.6
544.478,902.4
545.02,896.5
545.563,893.8
546.106,895.0
546.648,893.9
547.19,894.6
547.732,896.3
548.274,896.0
548.816,895.4
549.358,900.0
549.9,898.7
550.441,899.3
550.983,901.7
551.524,905.9
552.065,903.0
552.606,907.5
553.147,907.8
553.688,905.0
554.229,914.6
554.769,909.5
555.31,905.2
555.85,903.8
556.391,900.5
556.931,903.3
557.471,917.1
558.011,996.2
558.551,928.4
559.09,917.9
559.63,915.0
560.169,914.0
560.709,911.6
561.248,905.2
561.787,906.3
562.326,909.1
562.865,918.7
563.404,943.2
563.943,926.9
564.481,917.8
565.02,934.3
565.558,931.4
566.096,954.6
566.634,931.2
567.172,916.6
567.71,924.1
568.248,919.0
568.786,921.5
569.324,921.9
569.861,919.1
570.399,923.2
570.936,921.3
571.473,935.5
572.01,941.9
572.547,934.6
573.084,938.0
573.621,937.7
574.158,932.1
574.694,940.0
575.231,929.7
575.767,926.1
576.303,939.4
576.84,982.2
577.376,946.0
577.912,931.0
578.448,929.6
578.984,932.7
579.519,929.8
580.055,928.3
580.59,925.5
581.126,927.1
581.661,925.3
582.196,928.5
582.731,931.6
583.267,933.1
583.801,932.1
584.336,929.6
584.871,935.1
585.406,933.4
585.94,931.5
586.475,944.5
587.009,966.1
587.543,980.2
588.078,953.8
588.612,933.5
589.146,934.4
589.68,932.4
590.214,933.6
590.747,934.0
591.281,933.1
591.815,938.9
592.348,935.3
592.881,937.2
593.415,932.3
593.948,934.2
594.481,940.5
595.014,934.6
595.547,937.8
596.08,935.0
596.613,937.5
597.146,934.5
597.678,934.9
598.211,940.4
598.743,938.4
599.276,940.0
599.808,939.6
600.34,940.9
600.872,937.5
601.404,938.7
601.936,943.2
602.468,937.5
603.0,941.7
603.532,944.2
604.064,943.3
604.595,945.3
605.127,945.9
605.658,939.6
606.189,937.0
606.721,938.7
607.252,940.0
607.783,942.3
608.314,939.0
608.845,941.1
609.376,940.7
609.907,943.5
610.438,942.5
610.968,943.3
611.499,941.9
612.029,942.2
612.56,944.6
613.09,948.6
613.621,951.7
614.151,948.0
614.681,949.0
615.211,948.6
615.741,949.5
616.271,954.4
616.801,950.1
617.331,951.0
617.861,950.6
618.39,950.9
618.92,955.3
619.45,955.5
619.979,953.3
620.509,950.4
621.038,949.6
621.567,952.6
622.096,949.3
622.626,956.1
623.155,965.5
623.684,962.8
624.213,957.1
624.742,952.7
625.271,951.7
625.799,951.4
626.328,949.4
626.857,952.3
627.386,953.5
627.914,957.7
628.443,1003.1
628.971,997.8
629.5,992.8
630.028,1002.8
630.556,1034.5
631.084,1300.1
631.613,1127.7
632.141,1035.7
632.669,1021.7
633.197,1084.2
633.725,1062.8
634.253,994.5
634.781,963.3
635.308,951.1
635.836,948.6
636.364,943.9
636.891,942.8
637.419,946.7
637.947,944.0
638.474,936.8
639.002,936.5
639.529,935.9
640.056,934.6
640.584,939.3
641.111,941.4
641.638,937.3
642.165,936.6
642.692,933.3
643.219,935.0
643.746,926.6
644.273,928.0
644.8,928.0
645.327,923.0
645.854,926.2
646.381,925.0
646.908,921.4
647.434,925.9
647.961,919.4
648.488,922.6
649.014,922.9
649.541,918.2
650.067,920.5
650.594,917.9
651.12,918.6
651.646,917.6
652.173,922.0
652.699,917.9
653.225,914.9
653.752,917.3
654.278,917.6
654.804,913.4
655.33,913.6
655.856,918.6
656.382,912.4
656.908,914.7
657.434,912.0
657.96,914.4
658.486,913.0
659.012,912.5
659.538,910.4
660.064,909.5
660.589,909.8
661.115,910.9
661.641,909.8
662.166,909.8
662.692,907.4
663.086,907.0

File: VLFR_08-PLA_bio_Raman_c94bc4d9.csv
nm,Intensity
526.547,830.45
527.095,830.0
527.642,830.45
528.189,830.4
528.736,831.55
529.283,830.35
529.829,831.7
530.376,831.35
530.922,830.95
531.468,831.05
532.014,844.45
532.56,831.6
533.106,830.55
533.651,831.15
534.196,912.8
534.742,895.5
535.287,882.35
535.832,876.7
536.376,872.3
536.921,873.75
537.465,871.0
538.01,869.65
538.554,865.45
539.098,867.45
539.642,864.8
540.186,861.25
540.729,867.45
541.273,870.3
541.816,865.15
542.36,864.0
542.903,866.45
543.446,872.3
543.988,876.3
544.531,868.15
545.074,862.15
545.616,862.75
546.158,862.75
546.701,864.4
547.243,863.95
547.785,864.05
548.326,864.25
548.868,866.85
549.41,867.15
549.951,866.75
550.492,866.25
551.034,868.3
551.575,870.15
552.116,868.75
552.656,869.6
553.197,870.35
553.738,869.6
554.278,872.15
554.819,869.05
555.359,869.35
555.899,866.3
556.439,866.55
556.979,866.8
557.519,874.85
558.058,918.8
558.598,877.5
559.137,874.15
559.677,871.7
560.216,872.0
560.755,872.1
561.294,871.55
561.833,868.95
562.371,870.0
562.91,874.75
563.449,884.0
563.987,877.9
564.525,875.55
565.064,883.5
565.602,881.7
566.14,892.55
566.678,877.9
567.216,874.05
567.753,875.3
568.291,876.45
568.828,875.6
569.366,877.85
569.903,878.6
570.44,877.8
570.977,876.3
571.514,883.95
572.051,884.05
572.588,880.5
573.125,883.65
573.661,883.7
574.198,882.9
574.734,886.4
575.271,879.35
575.807,878.6
576.343,885.5
576.879,906.5
577.415,886.4
577.951,882.0
578.486,880.1
579.022,881.05
579.557,878.2
580.093,877.5
580.628,880.75
581.164,882.15
581.699,880.05
582.234,881.6
582.769,881.3
583.304,881.8
583.838,880.6
584.373,879.75
584.908,878.75
585.442,883.0
585.977,882.0
586.511,887.75
587.045,899.85
587.58,909.4
588.114,888.9
588.648,882.15
589.182,883.7
589.715,880.5
590.249,880.8
590.783,881.75
591.316,882.05
591.85,882.5
592.383,881.85
592.917,880.95
593.45,882.1
593.983,881.85
594.516,880.75
595.049,882.1
595.582,880.7
596.115,881.6
596.648,883.9
597.18,881.7
597.713,883.65
598.245,883.05
598.778,881.95
599.31,881.55
599.842,883.45
600.375,881.1
600.907,883.25
601.439,881.25
601.971,881.3
602.503,881.85
603.034,882.8
603.566,882.4
604.098,882.85
604.629,880.05
605.161,880.4
605.692,881.0
606.224,881.1
606.755,881.1
607.286,881.05
607.817,881.8
608.348,879.8
608.879,882.65
609.41,879.75
609.941,881.65
610.472,880.1
611.002,881.0
611.533,881.0
612.063,879.85
612.594,880.65
613.124,880.6
613.655,883.25
614.185,882.7
614.715,884.2
615.245,882.7
615.775,883.05
616.305,881.5
616.835,883.25
617.365,883.35
617.895,882.2
618.425,884.1
618.954,883.25
619.484,881.5
620.013,882.1
620.543,882.1
621.072,884.15
621.602,883.15
622.131,883.55
622.66,886.1
623.189,887.6
623.718,888.15
624.247,885.45
624.776,885.8
625.305,881.0
625.834,884.5
626.363,883.6
626.891,882.95
627.42,886.5
627.949,888.5
628.477,914.7
629.006,909.6
629.534,907.1
630.062,910.6
630.591,935.6
631.119,1094.3
631.647,982.5
632.175,932.3
632.703,926.75
633.231,961.95
633.759,947.15
634.287,910.25
634.815,889.9
635.343,885.9
635.871,883.15
636.398,884.0
636.926,880.75
637.454,879.95
637.981,877.5
638.509,879.8
639.036,878.65
639.564,878.15
640.091,879.25
640.618,880.75
641.146,879.5
641.673,880.1
642.2,879.5
642.727,877.2
643.254,878.3
643.781,876.0
644.308,879.1
644.835,873.8
645.362,876.55
645.889,874.15
646.416,875.05
646.942,875.95
647.469,875.85
647.996,877.4
648.522,873.35
649.049,874.2
649.576,874.3
650.102,875.0
650.629,873.35
651.155,873.8
651.682,873.2
652.208,875.3
652.734,872.9
653.261,872.85
653.787,872.75
654.313,872.05
654.839,869.9
655.365,871.75
655.892,870.7
656.418,873.0
656.944,872.7
657.47,872.75
657.996,871.35
658.522,871.55
659.048,870.75
659.574,870.3
660.099,868.4
660.625,869.3
661.151,868.8
661.677,869.5
662.203,868.7
662.728,869.1
663.123,869.0