Folder: MPX_specDB/spectra (part 148)

File: VLFR_08-PLA_nobio_Raman_9e4f630f.csv
nm,Intensity
526.5,828.3
527.047,828.1
527.594,828.1
528.14,828.9
528.687,829.0
529.233,828.7
529.779,828.4
530.325,828.6
530.871,830.8
531.417,830.3
531.962,831.3
532.508,827.8
533.053,828.5
533.599,832.5
534.144,1093.3
534.689,1060.1
535.234,1021.2
535.778,1006.3
536.323,1000.3
536.867,1006.0
537.412,996.8
537.956,995.1
538.5,991.8
539.044,993.2
539.588,990.5
540.132,986.1
540.675,999.9
541.219,1011.5
541.762,1001.7
542.305,995.4
542.848,1000.4
543.391,1022.0
543.934,1031.3
544.477,1016.9
545.02,1007.2
545.562,1004.0
546.105,1003.9
546.647,1010.4
547.189,1014.1
547.731,1012.7
548.273,1010.9
548.815,1015.0
549.356,1025.4
549.898,1019.5
550.439,1024.7
550.981,1026.1
551.522,1033.2
552.063,1036.6
552.604,1033.3
553.145,1034.2
553.686,1035.8
554.226,1050.3
554.767,1037.2
555.307,1034.9
555.848,1035.4
556.388,1036.6
556.928,1052.3
557.468,1050.1
558.008,1170.0
558.547,1080.2
559.087,1056.6
559.626,1057.0
560.166,1053.7
560.705,1049.4
561.244,1053.4
561.783,1048.5
562.322,1057.8
562.861,1064.3
563.4,1099.8
563.939,1075.5
564.477,1073.3
565.015,1099.5
565.554,1088.1
566.092,1120.3
566.63,1084.4
567.168,1070.8
567.706,1076.4
568.244,1084.2
568.781,1085.1
569.319,1081.5
569.857,1080.6
570.394,1080.8
570.931,1083.9
571.468,1100.3
572.005,1103.1
572.542,1105.7
573.079,1106.3
573.616,1106.6
574.153,1108.3
574.689,1122.7
575.226,1097.1
575.762,1102.8
576.298,1119.6
576.834,1179.7
577.371,1124.8
577.907,1104.7
578.442,1107.5
578.978,1101.5
579.514,1105.9
580.049,1100.3
580.585,1101.4
581.12,1105.9
581.656,1103.2
582.191,1112.0
582.726,1109.1
583.261,1115.5
583.796,1113.8
584.331,1108.5
584.865,1113.8
585.4,1118.1
585.935,1113.2
586.469,1130.9
587.004,1169.9
587.538,1188.9
588.072,1136.2
588.606,1118.4
589.14,1112.3
589.674,1111.3
590.208,1114.9
590.742,1113.1
591.275,1117.1
591.809,1121.9
592.342,1122.5
592.876,1110.7
593.409,1111.0
593.942,1114.4
594.476,1116.9
595.009,1117.7
595.542,1122.9
596.075,1120.6
596.607,1113.2
597.14,1117.7
597.673,1114.7
598.205,1124.5
598.738,1127.5
599.27,1121.5
599.803,1119.8
600.335,1121.7
600.867,1118.3
601.399,1116.9
601.931,1119.3
602.463,1119.8
602.995,1118.6
603.527,1119.3
604.058,1119.0
604.59,1121.3
605.122,1109.3
605.653,1106.1
606.184,1104.5
606.716,1110.4
607.247,1108.4
607.778,1107.2
608.309,1114.4
608.84,1112.9
609.371,1110.4
609.902,1109.0
610.433,1110.0
610.964,1110.6
611.494,1107.7
612.025,1108.6
612.556,1112.0
613.086,1115.0
613.616,1119.5
614.147,1120.2
614.677,1113.7
615.207,1115.1
615.737,1117.2
616.267,1114.9
616.797,1113.6
617.327,1119.2
617.857,1116.2
618.387,1116.6
618.917,1117.4
619.446,1114.5
619.976,1110.2
620.505,1111.1
621.035,1110.5
621.564,1108.4
622.093,1101.8
622.623,1120.0
623.152,1124.3
623.681,1118.8
624.21,1118.9
624.739,1113.8
625.268,1111.0
625.797,1106.5
626.326,1112.3
626.855,1107.1
627.383,1109.7
627.912,1117.1
628.441,1189.7
628.969,1181.4
629.498,1172.0
630.026,1178.8
630.554,1241.1
631.083,1630.8
631.611,1358.4
632.139,1232.4
632.667,1221.9
633.195,1310.6
633.724,1276.5
634.252,1171.8
634.779,1122.9
635.307,1103.4
635.835,1101.2
636.363,1094.6
636.891,1093.0
637.418,1089.0
637.946,1085.4
638.474,1088.4
639.001,1090.6
639.529,1087.3
640.056,1084.6
640.583,1096.3
641.111,1083.0
641.638,1087.9
642.165,1082.1
642.692,1082.4
643.22,1071.2
643.747,1072.2
644.274,1066.8
644.801,1065.1
645.328,1062.3
645.854,1065.0
646.381,1058.6
646.908,1059.3
647.435,1066.8
647.962,1062.1
648.488,1054.3
649.015,1061.2
649.542,1055.5
650.068,1050.9
650.595,1056.3
651.121,1056.8
651.648,1054.1
652.174,1049.2
652.7,1050.2
653.227,1052.7
653.753,1048.2
654.279,1051.3
654.805,1046.7
655.331,1043.9
655.858,1044.0
656.384,1043.6
656.91,1047.7
657.436,1042.3
657.962,1049.0
658.488,1041.2
659.013,1037.2
659.539,1039.1
660.065,1036.8
660.591,1039.0
661.117,1032.4
661.642,1038.5
662.168,1027.6
662.694,1037.1
663.088,1032.5

File: VLFR_08-PLA_nobio_Raman_15b22a4c.csv
nm,Intensity
526.532,830.133
527.079,830.0
527.625,830.233
528.172,830.233
528.718,830.333
529.265,830.433
529.811,829.233
530.357,829.6
530.903,830.067
531.449,830.367
531.994,835.967
532.54,830.2
533.085,830.1
533.63,832.367
534.176,1012.97
534.721,970.3
535.266,940.933
535.81,927.967
536.355,918.333
536.9,919.367
537.444,905.233
537.988,910.467
538.533,898.233
539.077,896.333
539.621,891.533
540.165,889.567
540.708,906.3
541.252,907.433
541.795,894.1
542.339,891.433
542.882,895.033
543.425,916.033
543.968,929.367
544.511,900.467
545.054,891.7
545.597,890.0
546.139,888.333
546.682,887.033
547.224,890.8
547.766,890.4
548.308,890.233
548.85,890.867
549.392,892.7
549.934,892.367
550.475,894.7
551.017,894.667
551.558,900.633
552.1,900.833
552.641,902.7
553.182,902.867
553.723,903.633
554.264,905.467
554.804,898.533
555.345,895.567
555.885,891.767
556.426,892.867
556.966,896.867
557.506,911.467
558.046,1022.17
558.586,918.5
559.126,908.833
559.665,906.567
560.205,903.067
560.745,901.4
561.284,897.733
561.823,898.033
562.362,899.433
562.901,907.6
563.44,938.6
563.979,916.933
564.518,911.033
565.056,931.067
565.595,923.9
566.133,956.1
566.671,919.8
567.21,906.167
567.748,910.9
568.285,911.367
568.823,909.667
569.361,911.767
569.899,910.067
570.436,908.933
570.974,913.367
571.511,931.433
572.048,926.433
572.585,922.5
573.122,925.867
573.659,926.167
574.196,921.9
574.733,931.767
575.269,914.233
575.806,914.3
576.342,936.233
576.878,980.633
577.414,932.1
577.951,917.167
578.486,912.8
579.022,914.433
579.558,913.9
580.094,915.467
580.629,913.467
581.165,914.6
581.7,912.167
582.236,914.733
582.771,916.333
583.306,918.267
583.841,916.1
584.376,916.633
584.911,917.433
585.445,918.4
585.98,919.033
586.514,931.133
587.049,960.633
587.583,984.033
588.117,936.4
588.651,918.3
589.186,916.333
589.72,916.1
590.253,916.567
590.787,916.933
591.321,916.4
591.854,915.667
592.388,915.7
592.921,917.033
593.455,911.967
593.988,913.667
594.521,914.467
595.054,914.6
595.587,917.767
596.12,914.967
596.653,917.033
597.186,917.567
597.718,913.833
598.251,916.433
598.783,918.933
599.316,916.5
599.848,916.567
600.38,917.233
600.912,916.3
601.444,913.933
601.976,914.667
602.508,914.1
603.04,916.333
603.572,915.367
604.103,915.0
604.635,916.433
605.167,914.267
605.698,913.667
606.229,910.767
606.761,912.1
607.292,911.767
607.823,912.033
608.354,912.533
608.885,914.0
609.416,912.633
609.947,914.033
610.477,911.9
611.008,912.233
611.539,910.5
612.069,913.2
612.6,914.0
613.13,914.533
613.66,914.5
614.19,914.367
614.721,913.533
615.251,915.067
615.781,914.767
616.311,914.0
616.841,913.333
617.37,915.067
617.9,912.9
618.43,914.0
618.96,912.567
619.489,914.567
620.019,911.933
620.548,911.333
621.077,911.667
621.607,912.167
622.136,913.167
622.665,922.8
623.194,927.633
623.723,920.067
624.252,916.2
624.781,914.2
625.31,912.7
625.839,910.967
626.368,912.733
626.896,914.067
627.425,917.4
627.953,926.433
628.482,986.067
629.01,971.933
629.539,969.1
630.067,974.267
630.596,1038.3
631.124,1387.53
631.652,1136.27
632.18,1029.2
632.708,1009.73
633.236,1096.47
633.764,1057.1
634.292,970.3
634.82,926.667
635.348,916.667
635.876,913.1
636.403,907.3
636.931,905.067
637.459,902.867
637.986,904.3
638.514,905.233
639.041,903.767
639.568,903.167
640.096,903.367
640.623,902.033
641.15,903.867
641.678,902.733
642.205,902.867
642.732,903.8
643.259,898.467
643.786,899.467
644.313,897.8
644.84,895.033
645.367,895.967
645.894,895.967
646.421,893.833
646.948,893.567
647.474,895.9
648.001,895.3
648.528,894.2
649.054,894.6
649.581,894.267
650.108,892.067
650.634,889.0
651.161,891.867
651.687,891.533
652.214,891.267
652.74,888.167
653.266,889.1
653.793,889.533
654.319,889.5
654.845,889.867
655.371,888.433
655.897,888.633
656.424,889.3
656.95,888.833
657.476,890.6
658.002,889.967
658.528,887.533
659.054,886.767
659.58,888.767
660.106,886.733
660.631,887.367
661.157,885.7
661.683,885.333
662.209,883.633
662.735,884.667
663.129,883.867

File: VLFR_08-PLA_nobio_Raman_16a106e1.csv
nm,Intensity
526.5,829.6
527.047,830.3
527.594,828.7
528.14,829.1
528.687,829.8
529.233,830.2
529.779,828.4
530.325,829.3
530.871,829.7
531.417,830.0
531.962,836.5
532.508,830.2
533.053,828.4
533.599,830.0
534.144,866.8
534.689,861.1
535.234,857.4
535.778,857.2
536.323,854.4
536.867,857.1
537.412,854.8
537.956,854.9
538.5,856.1
539.044,855.7
539.588,853.4
540.132,853.1
540.675,856.3
541.219,856.7
541.762,854.5
542.305,856.9
542.848,855.8
543.391,860.2
543.934,862.8
544.477,858.0
545.02,858.0
545.562,858.6
546.105,858.7
546.647,858.4
547.189,858.1
547.731,859.2
548.273,858.7
548.815,859.6
549.356,861.0
549.898,859.5
550.439,859.7
550.981,861.4
551.522,862.0
552.063,861.4
552.604,864.6
553.145,863.2
553.686,861.3
554.226,865.0
554.767,860.3
555.307,861.5
555.848,863.3
556.388,862.5
556.928,860.7
557.468,861.9
558.008,879.9
558.547,866.1
559.087,863.0
559.626,864.5
560.166,867.9
560.705,863.3
561.244,863.9
561.783,864.6
562.322,866.5
562.861,865.3
563.4,873.1
563.939,866.8
564.477,867.4
565.015,871.2
565.554,872.7
566.092,875.7
566.63,870.4
567.168,868.1
567.706,867.1
568.244,870.0
568.781,869.3
569.319,870.9
569.857,871.0
570.394,869.7
570.931,869.3
571.468,871.3
572.005,871.3
572.542,872.6
573.079,872.6
573.616,875.2
574.153,875.1
574.689,873.9
575.226,875.3
575.762,871.3
576.298,876.1
576.834,881.7
577.371,874.8
577.907,869.8
578.442,873.0
578.978,873.0
579.514,873.9
580.049,871.8
580.585,872.3
581.12,873.6
581.656,874.1
582.191,875.9
582.726,874.2
583.261,871.0
583.796,874.9
584.331,876.7
584.865,873.7
585.4,876.0
585.935,874.4
586.469,875.1
587.004,883.5
587.538,886.8
588.072,878.6
588.606,873.5
589.14,870.0
589.674,875.4
590.208,877.6
590.742,874.7
591.275,875.1
591.809,877.6
592.342,876.3
592.876,874.8
593.409,877.1
593.942,874.4
594.476,875.2
595.009,874.0
595.542,876.7
596.075,875.0
596.607,874.9
597.14,875.4
597.673,879.1
598.205,877.4
598.738,874.3
599.27,879.2
599.803,874.0
600.335,878.2
600.867,878.7
601.399,875.8
601.931,876.6
602.463,873.4
602.995,875.3
603.527,874.9
604.058,875.1
604.59,873.1
605.122,875.1
605.653,875.2
606.184,875.9
606.716,872.1
607.247,875.4
607.778,875.8
608.309,874.3
608.84,872.8
609.371,875.7
609.902,875.0
610.433,873.8
610.964,871.5
611.494,873.2
612.025,872.5
612.556,871.1
613.086,872.5
613.616,872.6
614.147,871.6
614.677,875.5
615.207,875.4
615.737,874.2
616.267,871.5
616.797,872.1
617.327,867.2
617.857,873.2
618.387,872.7
618.917,872.9
619.446,870.5
619.976,870.9
620.505,869.3
621.035,873.2
621.564,871.0
622.093,871.3
622.623,873.2
623.152,873.5
623.681,872.8
624.21,872.3
624.739,870.7
625.268,872.1
625.797,869.5
626.326,868.8
626.855,872.4
627.383,872.5
627.912,876.1
628.441,885.7
628.969,882.6
629.498,884.3
630.026,883.4
630.554,890.7
631.083,938.3
631.611,905.8
632.139,889.7
632.667,886.4
633.195,896.4
633.724,892.6
634.252,879.0
634.779,872.0
635.307,869.6
635.835,869.1
636.363,868.3
636.891,869.5
637.418,869.7
637.946,867.0
638.474,868.5
639.001,867.5
639.529,869.2
640.056,864.2
640.583,867.0
641.111,867.9
641.638,867.5
642.165,869.5
642.692,866.8
643.22,866.7
643.747,864.2
644.274,866.0
644.801,863.9
645.328,863.8
645.854,865.9
646.381,865.2
646.908,865.9
647.435,866.3
647.962,866.6
648.488,863.5
649.015,866.0
649.542,863.8
650.068,864.3
650.595,862.8
651.121,864.3
651.648,862.6
652.174,864.3
652.7,864.2
653.227,859.6
653.753,863.8
654.279,860.0
654.805,859.6
655.331,858.9
655.858,861.1
656.384,860.6
656.91,861.7
657.436,858.8
657.962,859.2
658.488,860.4
659.013,861.1
659.539,861.5
660.065,862.0
660.591,859.6
661.117,858.1
661.642,859.8
662.168,860.8
662.694,857.4
663.088,860.3

File: VLFR_08-PLA_nobio_Raman_42d9cff3.csv
nm,Intensity
526.5,829.9
527.047,829.7
527.594,829.0
528.14,830.7
528.687,828.6
529.233,829.5
529.779,828.3
530.325,829.3
530.871,830.1
531.417,828.1
531.962,835.0
532.508,831.3
533.053,830.7
533.599,830.5
534.144,966.1
534.689,956.1
535.234,933.7
535.778,925.7
536.323,926.7
536.867,927.2
537.412,927.6
537.956,923.9
538.5,925.2
539.044,920.5
539.588,919.9
540.132,922.1
540.675,928.2
541.219,929.2
541.762,930.0
542.305,928.5
542.848,929.7
543.391,938.2
543.934,942.9
544.477,934.8
545.02,933.2
545.562,940.0
546.105,935.6
546.647,941.7
547.189,940.6
547.731,936.9
548.273,938.1
548.815,945.1
549.356,946.1
549.898,943.2
550.439,944.2
550.981,949.9
551.522,948.0
552.063,952.1
552.604,950.3
553.145,953.8
553.686,954.3
554.226,957.2
554.767,954.2
555.307,955.2
555.848,958.3
556.388,956.9
556.928,954.4
557.468,966.2
558.008,1012.9
558.547,970.9
559.087,961.4
559.626,964.6
560.166,962.9
560.705,961.0
561.244,961.0
561.783,964.8
562.322,962.3
562.861,971.5
563.4,984.9
563.939,988.0
564.477,977.6
565.015,989.2
565.554,985.7
566.092,993.7
566.63,983.6
567.168,973.1
567.706,975.8
568.244,979.8
568.781,978.7
569.319,979.5
569.857,978.5
570.394,984.5
570.931,984.3
571.468,993.8
572.005,992.4
572.542,995.3
573.079,998.0
573.616,996.5
574.153,995.2
574.689,1001.5
575.226,993.6
575.762,988.2
576.298,1001.8
576.834,1024.0
577.371,1001.5
577.907,995.2
578.442,991.6
578.978,995.2
579.514,991.9
580.049,992.3
580.585,991.2
581.12,999.2
581.656,994.4
582.191,1000.3
582.726,1001.7
583.261,1002.8
583.796,998.6
584.331,1002.8
584.865,1000.1
585.4,999.1
585.935,1005.9
586.469,1007.7
587.004,1025.4
587.538,1029.6
588.072,1013.9
588.606,1007.0
589.14,1009.9
589.674,1001.2
590.208,1005.6
590.742,1003.0
591.275,1001.5
591.809,1006.9
592.342,1002.1
592.876,998.3
593.409,1001.9
593.942,1005.8
594.476,1001.6
595.009,1007.2
595.542,1001.9
596.075,1005.1
596.607,1006.8
597.14,1005.3
597.673,1002.5
598.205,1010.3
598.738,1007.3
599.27,1008.3
599.803,1007.1
600.335,1004.4
600.867,1011.0
601.399,1007.8
601.931,1004.0
602.463,1010.6
602.995,1008.4
603.527,1005.8
604.058,1010.6
604.59,1006.7
605.122,1007.2
605.653,1007.2
606.184,1002.6
606.716,1002.4
607.247,1007.4
607.778,1002.4
608.309,1011.2
608.84,1014.6
609.371,1012.2
609.902,1011.0
610.433,1011.4
610.964,1011.4
611.494,1013.6
612.025,1012.0
612.556,1016.7
613.086,1017.8
613.616,1017.0
614.147,1022.1
614.677,1012.6
615.207,1014.4
615.737,1016.0
616.267,1015.9
616.797,1019.4
617.327,1019.3
617.857,1020.1
618.387,1016.6
618.917,1017.8
619.446,1020.7
619.976,1020.2
620.505,1021.6
621.035,1017.9
621.564,1022.2
622.093,1019.3
622.623,1025.3
623.152,1029.4
623.681,1024.6
624.21,1025.3
624.739,1017.6
625.268,1022.3
625.797,1020.6
626.326,1017.4
626.855,1025.5
627.383,1021.5
627.912,1027.3
628.441,1062.9
628.969,1054.2
629.498,1056.4
630.026,1058.3
630.554,1090.0
631.083,1270.7
631.611,1143.6
632.139,1080.5
632.667,1070.4
633.195,1111.4
633.724,1093.2
634.252,1048.6
634.779,1025.7
635.307,1020.3
635.835,1013.3
636.363,1014.7
636.891,1011.0
637.418,1007.9
637.946,1006.3
638.474,1007.4
639.001,1005.4
639.529,1009.4
640.056,1011.2
640.583,1003.3
641.111,1006.8
641.638,1009.2
642.165,1006.5
642.692,1006.6
643.22,1002.7
643.747,1003.1
644.274,992.4
644.801,997.0
645.328,996.7
645.854,994.9
646.381,990.0
646.908,989.7
647.435,998.5
647.962,996.4
648.488,991.3
649.015,992.5
649.542,990.3
650.068,987.4
650.595,989.9
651.121,985.1
651.648,981.8
652.174,985.2
652.7,986.1
653.227,977.6
653.753,985.9
654.279,980.2
654.805,977.7
655.331,985.6
655.858,978.1
656.384,981.1
656.91,983.5
657.436,975.8
657.962,979.4
658.488,981.3
659.013,980.8
659.539,980.2
660.065,981.2
660.591,976.9
661.117,972.4
661.642,973.4
662.168,976.3
662.694,969.4
663.088,971.9

File: VLFR_08-PLA_nobio_Raman_48b87dbb.csv
cm-1,Intensity
-123.878,1851.15
-105.821,1851.1
-87.8007,1853.15
-69.8161,1852.45
-51.8675,1853.75
-33.9547,1853.8
-16.0776,1883.55
1.76388,3006.45
19.5698,1853.85
37.3403,1855.35
55.0755,2031.45
72.7754,2495.85
90.4402,2434.4
108.07,2383.95
125.665,2360.2
143.225,2344.05
160.75,2375.15
178.241,2350.3
195.697,2358.35
213.119,2333.55
230.506,2328.7
247.859,2345.2
265.178,2339.55
282.463,2348.8
299.713,2383.7
316.93,2373.4
334.113,2364.25
351.263,2360.9
368.379,2378.85
385.461,2419.9
402.51,2482.6
419.526,2428.75
436.508,2411.4
453.458,2376.5
470.374,2414.35
487.257,2406.1
504.107,2423.1
520.925,2429.65
537.71,2440.0
554.462,2474.8
571.182,2484.6
587.87,2478.7
604.525,2463.5
621.148,2487.75
637.739,2516.55
654.297,2523.65
670.824,2574.55
687.319,2545.15
703.782,2540.7
720.213,2540.05
736.613,2581.65
752.981,2585.55
769.317,2561.9
785.623,2541.7
801.897,2548.2
818.139,2550.05
834.351,2570.3
850.532,2625.7
866.681,2950.25
882.8,2821.2
898.888,2648.35
914.945,2631.35
930.972,2614.9
946.968,2604.75
962.934,2617.9
978.869,2599.45
994.774,2618.85
1010.65,2622.25
1026.49,2686.9
1042.31,2786.75
1058.09,2691.65
1073.85,2658.85
1089.57,2775.45
1105.27,2769.2
1120.93,2867.3
1136.57,2826.15
1152.18,2722.8
1167.75,2699.3
1183.3,2745.75
1198.82,2749.6
1214.31,2755.35
1229.77,2722.65
1245.2,2757.65
1260.6,2750.8
1275.97,2770.45
1291.32,2847.1
1306.63,2864.5
1321.92,2821.65
1337.18,2852.95
1352.41,2824.8
1367.61,2833.95
1382.78,2877.1
1397.93,2807.3
1413.05,2797.6
1428.14,2840.0
1443.2,2978.7
1458.23,3046.3
1473.23,2872.15
1488.21,2828.15
1503.16,2788.35
1518.08,2786.15
1532.97,2802.4
1547.84,2796.65
1562.68,2813.85
1577.49,2812.0
1592.27,2825.6
1607.03,2794.0
1621.76,2779.2
1636.46,2781.35
1651.14,2791.95
1665.78,2817.2
1680.41,2784.65
1695.0,2791.65
1709.57,2798.1
1724.11,2809.25
1738.62,2822.35
1753.11,2968.6
1767.57,3050.2
1782.01,2939.85
1796.41,2823.55
1810.8,2792.85
1825.15,2782.75
1839.48,2784.8
1853.79,2757.25
1868.06,2785.45
1882.31,2763.95
1896.54,2776.45
1910.74,2791.05
1924.91,2763.1
1939.06,2750.45
1953.19,2769.65
1967.28,2767.1
1981.35,2762.1
1995.4,2754.8
2009.42,2782.05
2023.42,2795.1
2037.39,2772.0
2051.33,2770.05
2065.25,2749.35
2079.15,2779.8
2093.01,2752.65
2106.86,2784.6
2120.68,2778.2
2134.47,2763.3
2148.24,2779.1
2161.99,2757.2
2175.71,2796.7
2189.41,2754.1
2203.08,2785.05
2216.73,2759.0
2230.35,2748.0
2243.95,2762.2
2257.52,2783.25
2271.07,2769.7
2284.6,2759.75
2298.1,2753.0
2311.58,2759.85
2325.03,2733.05
2338.46,2776.9
2351.87,2741.1
2365.25,2772.75
2378.61,2732.3
2391.94,2742.7
2405.26,2779.4
2418.54,2771.65
2431.81,2752.7
2445.05,2758.15
2458.27,2764.4
2471.46,2763.75
2484.63,2777.55
2497.78,2727.45
2510.9,2758.2
2524.0,2769.7
2537.08,2726.9
2550.14,2733.6
2563.17,2753.55
2576.18,2732.6
2589.17,2724.15
2602.13,2745.5
2615.07,2744.8
2627.99,2728.95
2640.89,2757.35
2653.76,2746.6
2666.61,2706.0
2679.44,2723.8
2692.25,2760.75
2705.03,2737.7
2717.79,2717.15
2730.53,2750.45
2743.25,2796.55
2755.94,2769.45
2768.61,2723.2
2781.27,2706.6
2793.89,2702.65
2806.5,2694.8
2819.09,2716.3
2831.65,2709.35
2844.19,2697.3
2856.71,2724.85
2869.21,2820.35
2881.69,3074.55
2894.14,2972.2
2906.58,3018.3
2918.99,2991.55
2931.38,3387.2
2943.75,4988.45
2956.1,4189.0
2968.42,3320.8
2980.73,3181.1
2993.01,3400.65
3005.28,3569.05
3017.52,3189.3
3029.74,2818.05
3041.94,2708.05
3054.12,2635.8
3066.28,2601.8
3078.42,2605.1
3090.54,2579.05
3102.63,2574.5
3114.71,2529.3
3126.77,2564.25
3138.8,2539.65
3150.82,2560.0
3162.81,2541.1
3174.78,2534.7
3186.74,2497.1
3198.67,2522.9
3210.58,2519.3
3222.47,2527.65
3234.35,2489.55
3246.2,2481.0
3258.03,2479.1
3269.84,2454.0
3281.64,2456.35
3293.41,2470.9
3305.16,2436.05
3316.89,2433.55
3328.61,2432.35
3340.3,2422.4
3351.97,2428.45
3363.63,2423.55
3375.26,2386.55
3386.88,2415.9
3398.47,2384.7
3410.05,2390.3
3421.6,2377.65
3433.14,2377.65
3444.66,2369.6
3456.15,2392.35
3467.63,2352.4
3479.09,2368.5
3490.53,2349.75
3501.96,2348.65
3513.36,2327.8
3524.74,2325.25
3536.11,2303.8
3547.45,2317.05
3558.78,2295.45
3570.09,2304.6
3581.37,2314.85
3592.64,2292.2
3603.9,2268.4
3615.13,2282.4
3626.34,2253.1
3637.54,2249.4
3648.72,2262.15
3659.87,2260.4
3665.45,2263.35

File: VLFR_08-PLA_nobio_Raman_53e58490.csv
cm-1,Intensity
-123.878,1853.15
-105.821,1852.2
-87.8007,1852.65
-69.8161,1853.6
-51.8675,1853.3
-33.9547,1854.05
-16.0776,1887.4
1.76388,3428.65
19.5698,1854.05
37.3403,1854.25
55.0755,2024.15
72.7754,2494.2
90.4402,2483.65
108.07,2482.55
125.665,2459.5
143.225,2451.75
160.75,2479.75
178.241,2460.55
195.697,2486.3
213.119,2459.4
230.506,2466.25
247.859,2482.5
265.178,2485.85
282.463,2503.85
299.713,2528.2
316.93,2539.4
334.113,2533.9
351.263,2541.4
368.379,2562.3
385.461,2592.35
402.51,2634.9
419.526,2603.0
436.508,2613.75
453.458,2621.55
470.374,2634.5
487.257,2648.85
504.107,2656.45
520.925,2658.15
537.71,2687.0
554.462,2722.35
571.182,2748.65
587.87,2732.45
604.525,2754.65
621.148,2756.6
637.739,2799.0
654.297,2801.5
670.824,2812.35
687.319,2822.05
703.782,2819.4
720.213,2810.5
736.613,2859.7
752.981,2847.2
769.317,2878.05
785.623,2854.25
801.897,2858.5
818.139,2877.3
834.351,2885.45
850.532,2919.35
866.681,3098.65
882.8,3037.15
898.888,2959.95
914.945,2981.2
930.972,2952.55
946.968,2971.1
962.934,2978.75
978.869,2968.2
994.774,3000.4
1010.65,3013.8
1026.49,3059.1
1042.31,3105.7
1058.09,3069.1
1073.85,3056.4
1089.57,3136.5
1105.27,3124.15
1120.93,3192.55
1136.57,3172.05
1152.18,3114.3
1167.75,3117.6
1183.3,3134.85
1198.82,3174.8
1214.31,3182.1
1229.77,3142.35
1245.2,3181.3
1260.6,3194.05
1275.97,3197.7
1291.32,3269.8
1306.63,3302.7
1321.92,3243.0
1337.18,3264.25
1352.41,3285.5
1367.61,3260.85
1382.78,3292.1
1397.93,3262.15
1413.05,3274.85
1428.14,3286.75
1443.2,3388.55
1458.23,3410.2
1473.23,3319.75
1488.21,3278.35
1503.16,3246.55
1518.08,3280.9
1532.97,3283.6
1547.84,3278.35
1562.68,3312.35
1577.49,3288.85
1592.27,3295.85
1607.03,3278.6
1621.76,3294.7
1636.46,3291.5
1651.14,3277.1
1665.78,3345.55
1680.41,3286.35
1695.0,3308.8
1709.57,3257.1
1724.11,3271.4
1738.62,3283.7
1753.11,3381.6
1767.57,3436.6
1782.01,3395.35
1796.41,3286.1
1810.8,3289.85
1825.15,3261.2
1839.48,3286.5
1853.79,3268.05
1868.06,3272.95
1882.31,3287.6
1896.54,3302.0
1910.74,3314.6
1924.91,3271.2
1939.06,3248.9
1953.19,3269.85
1967.28,3273.5
1981.35,3255.3
1995.4,3257.5
2009.42,3297.2
2023.42,3325.3
2037.39,3298.35
2051.33,3284.15
2065.25,3278.25
2079.15,3297.25
2093.01,3276.25
2106.86,3305.05
2120.68,3293.95
2134.47,3327.8
2148.24,3312.15
2161.99,3294.75
2175.71,3294.0
2189.41,3300.1
2203.08,3308.8
2216.73,3300.85
2230.35,3282.45
2243.95,3326.35
2257.52,3313.0
2271.07,3289.2
2284.6,3295.05
2298.1,3282.8
2311.58,3299.3
2325.03,3263.5
2338.46,3329.1
2351.87,3279.05
2365.25,3296.3
2378.61,3280.7
2391.94,3297.05
2405.26,3320.3
2418.54,3332.85
2431.81,3316.35
2445.05,3268.0
2458.27,3324.7
2471.46,3294.4
2484.63,3297.05
2497.78,3288.45
2510.9,3301.5
2524.0,3307.0
2537.08,3268.2
2550.14,3304.0
2563.17,3290.75
2576.18,3275.3
2589.17,3267.5
2602.13,3278.3
2615.07,3287.0
2627.99,3251.75
2640.89,3289.4
2653.76,3289.5
2666.61,3244.05
2679.44,3292.5
2692.25,3296.35
2705.03,3272.75
2717.79,3256.95
2730.53,3266.0
2743.25,3320.55
2755.94,3288.05
2768.61,3252.3
2781.27,3226.5
2793.89,3240.0
2806.5,3238.2
2819.09,3246.1
2831.65,3237.35
2844.19,3277.65
2856.71,3322.3
2869.21,3357.9
2881.69,3506.85
2894.14,3424.1
2906.58,3448.4
2918.99,3483.9
2931.38,3710.6
2943.75,4530.65
2956.1,4114.35
2968.42,3607.3
2980.73,3493.55
2993.01,3619.7
3005.28,3687.1
3017.52,3459.45
3029.74,3253.35
3041.94,3167.4
3054.12,3131.05
3066.28,3085.55
3078.42,3108.95
3090.54,3087.45
3102.63,3046.9
3114.71,3022.55
3126.77,3049.85
3138.8,3013.15
3150.82,3036.65
3162.81,3016.3
3174.78,3022.15
3186.74,2980.15
3198.67,2982.2
3210.58,2991.75
3222.47,2980.2
3234.35,2948.0
3246.2,2929.8
3258.03,2927.45
3269.84,2892.35
3281.64,2930.1
3293.41,2922.1
3305.16,2868.6
3316.89,2855.5
3328.61,2841.5
3340.3,2843.55
3351.97,2856.05
3363.63,2836.7
3375.26,2790.65
3386.88,2814.6
3398.47,2793.0
3410.05,2797.25
3421.6,2767.5
3433.14,2786.95
3444.66,2773.15
3456.15,2776.05
3467.63,2701.95
3479.09,2749.4
3490.53,2668.75
3501.96,2687.8
3513.36,2673.45
3524.74,2670.35
3536.11,2648.4
3547.45,2648.95
3558.78,2621.8
3570.09,2624.75
3581.37,2643.3
3592.64,2598.7
3603.9,2564.55
3615.13,2555.8
3626.34,2537.35
3637.54,2562.0
3648.72,2549.75
3659.87,2538.95
3665.45,2526.05