Folder: MPX_specDB/spectra (part 145)

File: VLFR_08-PLA_nobio_Raman_0f49d139.csv
nm,Intensity
526.5,828.1
527.047,829.5
527.594,829.4
528.14,830.0
528.687,829.4
529.233,828.8
529.779,829.4
530.325,828.3
530.871,828.4
531.417,829.6
531.962,831.4
532.508,830.3
533.053,830.1
533.599,830.5
534.144,1030.7
534.689,990.8
535.234,956.1
535.778,936.7
536.323,925.8
536.867,925.7
537.412,917.4
537.956,914.5
538.5,907.4
539.044,901.5
539.588,898.0
540.132,892.0
540.675,911.9
541.219,910.8
541.762,903.0
542.305,897.0
542.848,899.3
543.391,920.9
543.934,931.5
544.477,909.1
545.02,900.1
545.562,896.2
546.105,894.9
546.647,895.6
547.189,896.8
547.731,896.1
548.273,897.2
548.815,897.7
549.356,899.0
549.898,904.0
550.439,906.3
550.981,905.9
551.522,903.9
552.063,906.5
552.604,912.1
553.145,910.6
553.686,908.3
554.226,915.6
554.767,907.4
555.307,903.5
555.848,899.9
556.388,904.1
556.928,903.2
557.468,920.0
558.008,1032.6
558.547,939.0
559.087,918.2
559.626,913.9
560.166,912.6
560.705,910.0
561.244,907.2
561.783,907.8
562.322,909.9
562.861,919.8
563.4,950.5
563.939,930.2
564.477,919.1
565.015,937.5
565.554,937.1
566.092,960.2
566.63,935.8
567.168,913.1
567.706,921.6
568.244,920.4
568.781,922.4
569.319,922.9
569.857,916.2
570.394,921.9
570.931,923.7
571.468,935.4
572.005,940.0
572.542,934.3
573.079,937.0
573.616,938.4
574.153,930.9
574.689,943.7
575.226,923.3
575.762,928.1
576.298,942.3
576.834,997.4
577.371,944.9
577.907,925.0
578.442,930.3
578.978,923.9
579.514,924.9
580.049,925.0
580.585,923.7
581.12,925.2
581.656,924.8
582.191,925.6
582.726,926.5
583.261,929.1
583.796,931.1
584.331,930.8
584.865,926.6
585.4,928.9
585.935,928.3
586.469,941.6
587.004,971.3
587.538,992.3
588.072,950.3
588.606,930.1
589.14,929.7
589.674,925.4
590.208,927.4
590.742,929.8
591.275,928.9
591.809,928.8
592.342,926.2
592.876,922.4
593.409,922.9
593.942,926.5
594.476,921.0
595.009,925.8
595.542,927.8
596.075,927.9
596.607,926.9
597.14,928.0
597.673,929.7
598.205,923.9
598.738,925.6
599.27,930.6
599.803,927.3
600.335,923.8
600.867,927.7
601.399,927.8
601.931,926.5
602.463,928.3
602.995,924.7
603.527,925.7
604.058,924.6
604.59,926.6
605.122,927.1
605.653,922.3
606.184,924.2
606.716,922.2
607.247,924.5
607.778,924.2
608.309,925.9
608.84,923.2
609.371,925.0
609.902,922.6
610.433,923.8
610.964,922.1
611.494,921.9
612.025,924.3
612.556,924.5
613.086,924.7
613.616,922.2
614.147,927.5
614.677,921.9
615.207,928.2
615.737,926.2
616.267,925.0
616.797,923.3
617.327,930.7
617.857,926.6
618.387,925.0
618.917,922.5
619.446,929.3
619.976,924.7
620.505,921.5
621.035,920.0
621.564,923.7
622.093,925.9
622.623,930.3
623.152,935.3
623.681,930.4
624.21,928.3
624.739,927.4
625.268,922.8
625.797,923.1
626.326,923.7
626.855,923.0
627.383,922.8
627.912,929.8
628.441,985.3
628.969,975.1
629.498,970.7
630.026,977.0
630.554,1016.6
631.083,1306.9
631.611,1117.2
632.139,1018.8
632.667,1006.5
633.195,1070.3
633.724,1044.5
634.252,972.4
634.779,939.3
635.307,925.8
635.835,921.4
636.363,916.6
636.891,914.6
637.418,917.4
637.946,915.9
638.474,913.8
639.001,913.2
639.529,914.4
640.056,915.5
640.583,914.8
641.111,915.6
641.638,913.1
642.165,912.2
642.692,913.9
643.22,908.9
643.747,910.7
644.274,907.8
644.801,903.3
645.328,907.7
645.854,905.7
646.381,902.7
646.908,901.4
647.435,905.8
647.962,904.8
648.488,901.8
649.015,904.6
649.542,905.0
650.068,899.9
650.595,900.7
651.121,900.8
651.648,900.0
652.174,898.5
652.7,896.2
653.227,903.7
653.753,899.7
654.279,898.9
654.805,898.8
655.331,897.8
655.858,894.8
656.384,892.6
656.91,895.4
657.436,897.6
657.962,897.8
658.488,896.3
659.013,898.0
659.539,897.4
660.065,900.0
660.591,899.0
661.117,895.5
661.642,894.6
662.168,891.0
662.694,890.6
663.088,892.6

File: VLFR_08-PLA_nobio_Raman_1e32b803.csv
nm,Intensity
526.508,831.3
527.055,829.2
527.602,830.8
528.149,829.5
528.695,829.7
529.241,829.4
529.787,829.7
530.334,829.6
530.879,830.5
531.425,828.4
531.971,832.4
532.516,830.8
533.062,829.7
533.607,832.0
534.152,1095.7
534.697,1041.5
535.242,1005.2
535.786,984.6
536.331,975.3
536.876,978.7
537.42,967.2
537.964,965.4
538.508,950.4
539.052,947.8
539.596,948.5
540.14,940.1
540.683,961.8
541.227,964.7
541.77,953.8
542.313,949.2
542.856,950.1
543.399,979.1
543.942,989.4
544.485,963.3
545.027,956.2
545.57,953.1
546.112,952.2
546.654,951.0
547.196,958.7
547.738,954.9
548.28,955.7
548.822,959.1
549.363,960.5
549.905,961.3
550.446,964.3
550.988,968.1
551.529,968.0
552.07,972.3
552.611,977.4
553.152,975.4
553.692,974.2
554.233,984.9
554.773,972.8
555.314,971.6
555.854,961.8
556.394,965.7
556.934,972.1
557.474,990.2
558.014,1126.0
558.553,1014.3
559.093,989.9
559.632,985.8
560.172,980.0
560.711,979.8
561.25,973.4
561.789,976.3
562.328,976.9
562.867,990.8
563.406,1027.5
563.944,1006.6
564.483,995.3
565.021,1019.5
565.559,1007.6
566.098,1052.9
566.636,1012.5
567.174,989.5
567.711,997.8
568.249,997.5
568.787,999.8
569.324,998.9
569.862,997.1
570.399,997.3
570.936,1000.2
571.474,1016.5
572.011,1021.3
572.548,1018.4
573.084,1017.2
573.621,1027.0
574.158,1015.1
574.694,1030.4
575.231,1004.9
575.767,1006.2
576.303,1026.8
576.84,1094.0
577.376,1038.6
577.912,1012.2
578.447,1008.6
578.983,1009.7
579.519,1011.9
580.054,1013.4
580.59,1007.6
581.125,1006.4
581.661,1012.5
582.196,1014.0
582.731,1011.7
583.266,1013.4
583.801,1015.4
584.336,1016.7
584.87,1013.2
585.405,1016.1
585.94,1011.9
586.474,1032.3
587.008,1071.5
587.543,1100.7
588.077,1050.8
588.611,1019.6
589.145,1018.6
589.679,1013.7
590.213,1011.3
590.747,1012.2
591.28,1017.8
591.814,1016.9
592.347,1013.2
592.881,1016.0
593.414,1014.4
593.947,1014.9
594.48,1015.4
595.014,1012.9
595.547,1019.3
596.079,1013.0
596.612,1013.2
597.145,1010.8
597.678,1013.8
598.21,1012.1
598.743,1018.2
599.275,1016.3
599.807,1014.2
600.34,1019.5
600.872,1017.6
601.404,1015.7
601.936,1011.3
602.468,1016.3
603.0,1012.5
603.532,1016.6
604.063,1012.1
604.595,1010.7
605.126,1007.1
605.658,1005.6
606.189,1008.7
606.721,1004.8
607.252,1009.6
607.783,1005.0
608.314,1006.2
608.845,1005.9
609.376,1006.3
609.907,1009.7
610.438,1006.8
610.968,1009.7
611.499,1004.1
612.03,1005.6
612.56,1009.9
613.091,1007.7
613.621,1013.1
614.151,1010.0
614.681,1011.1
615.212,1007.7
615.742,1009.6
616.272,1010.1
616.802,1009.1
617.332,1008.0
617.861,1007.9
618.391,1005.5
618.921,1008.8
619.45,1003.1
619.98,1002.6
620.509,1001.2
621.039,1002.4
621.568,1006.0
622.097,1003.8
622.627,1021.6
623.156,1026.0
623.685,1016.8
624.214,1015.9
624.743,1007.3
625.272,1007.0
625.801,1001.2
626.33,1003.9
626.858,1004.7
627.387,1005.5
627.916,1012.4
628.444,1097.5
628.973,1077.0
629.501,1070.0
630.029,1083.7
630.558,1148.0
631.086,1605.1
631.614,1309.4
632.142,1152.8
632.67,1128.5
633.198,1231.1
633.726,1198.7
634.254,1084.9
634.782,1023.8
635.31,1007.5
635.838,1001.0
636.365,994.3
636.893,991.7
637.421,991.0
637.948,991.5
638.476,991.0
639.003,983.7
639.531,985.6
640.058,986.8
640.585,983.0
641.113,983.8
641.64,988.9
642.167,984.0
642.694,981.8
643.221,980.2
643.748,975.9
644.275,980.9
644.802,972.3
645.329,974.7
645.856,973.5
646.382,970.6
646.909,969.8
647.436,967.6
647.962,969.9
648.489,971.0
649.016,964.0
649.542,968.1
650.069,968.0
650.595,967.7
651.121,960.1
651.648,959.7
652.174,968.5
652.7,962.9
653.227,965.1
653.753,963.6
654.279,960.7
654.805,963.8
655.331,961.8
655.857,961.3
656.383,958.8
656.909,960.8
657.435,962.0
657.961,961.4
658.487,961.8
659.013,958.5
659.538,957.7
660.064,955.7
660.59,957.7
661.116,953.4
661.641,951.7
662.167,950.1
662.692,951.2
663.087,952.1

File: VLFR_08-PLA_nobio_Raman_1e3362dd.csv
nm,Intensity
526.508,829.9
527.055,829.5
527.602,829.5
528.149,829.3
528.695,830.6
529.241,829.9
529.787,829.5
530.334,829.3
530.879,830.1
531.425,829.6
531.971,833.0
532.516,829.8
533.062,828.8
533.607,831.3
534.152,1033.2
534.697,1008.1
535.242,972.3
535.786,970.1
536.331,956.5
536.876,961.1
537.42,959.5
537.964,950.6
538.508,947.8
539.052,945.3
539.596,943.0
540.14,935.1
540.683,950.7
541.227,955.9
541.77,953.1
542.313,948.6
542.856,953.7
543.399,971.1
543.942,978.4
544.485,958.0
545.027,956.6
545.57,954.8
546.112,946.8
546.654,954.1
547.196,955.9
547.738,953.5
548.28,960.8
548.822,957.8
549.363,963.2
549.905,957.4
550.446,963.4
550.988,959.8
551.529,969.8
552.07,972.7
552.611,980.7
553.152,975.1
553.692,977.2
554.233,981.7
554.773,976.8
555.314,970.8
555.854,974.8
556.394,972.2
556.934,970.9
557.474,986.2
558.014,1086.3
558.553,1003.6
559.093,992.2
559.632,978.8
560.172,985.2
560.711,982.5
561.25,980.4
561.789,981.2
562.328,984.7
562.867,998.4
563.406,1023.2
563.944,1008.9
564.483,995.8
565.021,1016.0
565.559,1008.3
566.098,1034.8
566.636,1004.6
567.174,995.1
567.711,999.5
568.249,998.5
568.787,1004.5
569.324,1007.3
569.862,1005.8
570.399,1000.1
570.936,1008.2
571.474,1020.3
572.011,1022.9
572.548,1013.0
573.084,1021.8
573.621,1023.6
574.158,1018.6
574.694,1031.6
575.231,1009.7
575.767,1011.0
576.303,1025.3
576.84,1074.2
577.376,1035.5
577.912,1020.8
578.447,1016.6
578.983,1016.7
579.519,1010.9
580.054,1015.9
580.59,1009.5
581.125,1021.6
581.661,1011.1
582.196,1017.2
582.731,1014.4
583.266,1019.4
583.801,1019.7
584.336,1025.5
584.87,1017.9
585.405,1023.9
585.94,1022.8
586.474,1036.5
587.008,1071.1
587.543,1090.2
588.077,1040.2
588.611,1022.9
589.145,1023.1
589.679,1020.1
590.213,1022.8
590.747,1024.0
591.28,1023.8
591.814,1020.1
592.347,1014.9
592.881,1020.9
593.414,1020.2
593.947,1018.4
594.48,1017.3
595.014,1019.9
595.547,1017.9
596.079,1018.0
596.612,1018.4
597.145,1017.5
597.678,1022.6
598.21,1023.5
598.743,1027.3
599.275,1019.5
599.807,1020.1
600.34,1023.2
600.872,1013.4
601.404,1021.4
601.936,1016.0
602.468,1019.6
603.0,1019.7
603.532,1019.3
604.063,1022.9
604.595,1019.5
605.126,1014.0
605.658,1010.7
606.189,1008.8
606.721,1012.5
607.252,1010.0
607.783,1010.5
608.314,1012.4
608.845,1011.0
609.376,1005.8
609.907,1011.7
610.438,1006.8
610.968,1012.1
611.499,1008.5
612.03,1007.6
612.56,1009.3
613.091,1008.0
613.621,1015.3
614.151,1012.6
614.681,1014.2
615.212,1012.5
615.742,1007.6
616.272,1015.3
616.802,1006.5
617.332,1013.3
617.861,1006.2
618.391,1013.2
618.921,1005.1
619.45,1009.0
619.98,1005.4
620.509,1012.1
621.039,1008.1
621.568,1004.8
622.097,1008.2
622.627,1008.6
623.156,1023.5
623.685,1022.3
624.214,1015.4
624.743,1012.8
625.272,1008.2
625.801,1010.7
626.33,1008.0
626.858,1011.3
627.387,1009.1
627.916,1011.4
628.444,1077.9
628.973,1063.7
629.501,1066.3
630.029,1071.6
630.558,1128.1
631.086,1486.8
631.614,1251.3
632.142,1125.2
632.67,1105.8
633.198,1196.5
633.726,1163.3
634.254,1073.0
634.782,1026.2
635.31,1003.7
635.838,1005.6
636.365,1000.9
636.893,997.4
637.421,998.0
637.948,992.8
638.476,996.3
639.003,992.6
639.531,996.2
640.058,994.5
640.585,989.6
641.113,991.7
641.64,986.3
642.167,987.9
642.694,990.1
643.221,978.8
643.748,982.0
644.275,985.0
644.802,975.8
645.329,977.2
645.856,974.9
646.382,981.4
646.909,975.0
647.436,976.6
647.962,977.3
648.489,975.6
649.016,974.1
649.542,971.9
650.069,966.7
650.595,971.1
651.121,970.5
651.648,968.7
652.174,971.7
652.7,963.8
653.227,965.1
653.753,970.3
654.279,961.3
654.805,967.4
655.331,962.4
655.857,966.2
656.383,965.6
656.909,962.4
657.435,962.1
657.961,965.5
658.487,962.9
659.013,960.4
659.538,965.7
660.064,960.1
660.59,959.6
661.116,958.4
661.641,956.7
662.167,959.8
662.692,953.8
663.087,956.5

File: VLFR_08-PLA_nobio_Raman_2c6321d3.csv
nm,Intensity
526.5,830.9
527.047,828.6
527.594,829.0
528.14,829.6
528.687,829.6
529.233,829.5
529.779,828.4
530.325,829.7
530.871,829.4
531.417,829.4
531.962,832.8
532.508,829.8
533.053,828.6
533.599,829.8
534.144,949.6
534.689,930.4
535.234,908.7
535.778,897.1
536.323,892.9
536.867,895.9
537.412,888.0
537.956,889.9
538.5,885.4
539.044,880.0
539.588,882.1
540.132,877.8
540.675,888.2
541.219,888.3
541.762,883.8
542.305,881.5
542.848,882.4
543.391,896.2
543.934,901.1
544.477,890.1
545.02,884.2
545.562,883.4
546.105,880.8
546.647,880.7
547.189,882.5
547.731,884.7
548.273,886.7
548.815,884.1
549.356,886.2
549.898,885.9
550.439,886.5
550.981,888.5
551.522,887.5
552.063,890.5
552.604,892.8
553.145,895.1
553.686,888.9
554.226,894.0
554.767,894.5
555.307,888.2
555.848,888.4
556.388,889.7
556.928,891.0
557.468,898.5
558.008,961.9
558.547,910.1
559.087,897.9
559.626,895.9
560.166,892.9
560.705,894.6
561.244,893.9
561.783,891.3
562.322,892.6
562.861,898.4
563.4,918.3
563.939,908.4
564.477,904.6
565.015,915.0
565.554,907.7
566.092,926.2
566.63,908.3
567.168,897.6
567.706,901.8
568.244,903.4
568.781,903.5
569.319,901.6
569.857,903.3
570.394,900.1
570.931,901.5
571.468,909.8
572.005,914.2
572.542,908.7
573.079,913.3
573.616,914.9
574.153,914.4
574.689,917.3
575.226,907.9
575.762,908.2
576.298,918.9
576.834,951.7
577.371,921.3
577.907,911.3
578.442,912.0
578.978,911.3
579.514,908.1
580.049,906.0
580.585,909.4
581.12,909.4
581.656,909.2
582.191,908.4
582.726,909.1
583.261,911.0
583.796,908.9
584.331,911.1
584.865,910.8
585.4,910.3
585.935,909.8
586.469,918.9
587.004,938.9
587.538,946.6
588.072,926.3
588.606,909.5
589.14,912.1
589.674,915.6
590.208,910.7
590.742,912.0
591.275,909.1
591.809,910.2
592.342,910.5
592.876,910.4
593.409,911.6
593.942,910.2
594.476,912.7
595.009,910.6
595.542,910.8
596.075,911.2
596.607,908.4
597.14,911.7
597.673,914.0
598.205,915.2
598.738,915.5
599.27,914.9
599.803,910.7
600.335,911.2
600.867,910.3
601.399,910.0
601.931,911.7
602.463,909.4
602.995,913.3
603.527,909.9
604.058,912.4
604.59,910.5
605.122,909.2
605.653,904.5
606.184,906.8
606.716,907.2
607.247,906.8
607.778,909.5
608.309,905.9
608.84,907.2
609.371,906.7
609.902,908.9
610.433,908.5
610.964,909.1
611.494,907.5
612.025,906.2
612.556,911.5
613.086,908.5
613.616,908.5
614.147,910.1
614.677,910.6
615.207,906.6
615.737,912.0
616.267,910.9
616.797,911.7
617.327,912.3
617.857,907.6
618.387,909.6
618.917,906.9
619.446,904.8
619.976,906.4
620.505,910.3
621.035,909.9
621.564,906.4
622.093,907.7
622.623,913.5
623.152,914.5
623.681,910.3
624.21,910.9
624.739,909.8
625.268,904.1
625.797,906.7
626.326,906.9
626.855,906.1
627.383,909.0
627.912,907.5
628.441,940.8
628.969,938.4
629.498,931.6
630.026,937.8
630.554,964.2
631.083,1146.9
631.611,1030.0
632.139,967.6
632.667,954.0
633.195,999.0
633.724,982.6
634.252,937.6
634.779,914.0
635.307,905.9
635.835,902.9
636.363,902.6
636.891,898.9
637.418,900.4
637.946,898.6
638.474,902.4
639.001,894.6
639.529,895.5
640.056,895.1
640.583,900.7
641.111,898.7
641.638,896.6
642.165,899.0
642.692,895.4
643.22,898.2
643.747,892.6
644.274,889.6
644.801,894.5
645.328,891.6
645.854,893.8
646.381,888.2
646.908,890.4
647.435,890.4
647.962,890.2
648.488,888.6
649.015,892.5
649.542,887.8
650.068,889.4
650.595,886.4
651.121,887.4
651.648,889.2
652.174,888.6
652.7,885.1
653.227,888.4
653.753,886.7
654.279,883.1
654.805,885.2
655.331,885.5
655.858,886.5
656.384,887.8
656.91,883.8
657.436,884.7
657.962,884.9
658.488,881.7
659.013,885.4
659.539,881.2
660.065,884.9
660.591,885.1
661.117,885.2
661.642,880.4
662.168,880.5
662.694,883.0
663.088,879.4

File: VLFR_08-PLA_nobio_Raman_2cad28d9.csv
nm,Intensity
526.508,830.8
527.055,829.6
527.602,830.4
528.149,830.2
528.695,830.2
529.241,830.55
529.787,830.45
530.334,830.1
530.879,830.1
531.425,830.35
531.971,832.7
532.516,830.1
533.062,830.25
533.607,831.1
534.152,1074.25
534.697,1031.15
535.242,994.35
535.786,972.5
536.331,964.65
536.876,970.6
537.42,960.3
537.964,956.75
538.508,947.65
539.052,945.35
539.596,939.3
540.14,937.05
540.683,951.4
541.227,956.45
541.77,946.45
542.313,938.9
542.856,942.05
543.399,964.9
543.942,976.05
544.485,956.2
545.027,946.7
545.57,943.2
546.112,942.2
546.654,942.5
547.196,942.55
547.738,943.65
548.28,945.1
548.822,947.95
549.363,947.2
549.905,951.25
550.446,950.5
550.988,953.6
551.529,955.65
552.07,960.05
552.611,960.3
553.152,960.95
553.692,957.6
554.233,968.65
554.773,960.8
555.314,955.4
555.854,951.7
556.394,953.45
556.934,953.95
557.474,972.45
558.014,1090.2
558.553,993.4
559.093,971.85
559.632,971.65
560.172,969.75
560.711,965.8
561.25,963.0
561.789,959.25
562.328,963.7
562.867,975.6
563.406,1007.2
563.944,988.55
564.483,985.25
565.021,1000.25
565.559,996.55
566.098,1026.7
566.636,999.45
567.174,977.75
567.711,979.7
568.249,986.95
568.787,986.4
569.324,988.85
569.862,984.0
570.399,984.45
570.936,984.9
571.474,1004.15
572.011,1006.55
572.548,1001.95
573.084,1003.45
573.621,1009.5
574.158,1004.65
574.694,1019.0
575.231,995.25
575.767,995.55
576.303,1013.55
576.84,1075.65
577.376,1023.65
577.912,1000.05
578.447,994.85
578.983,997.45
579.519,997.5
580.054,998.95
580.59,996.55
581.125,997.65
581.661,1000.1
582.196,997.85
582.731,1001.25
583.266,1007.25
583.801,1003.9
584.336,1004.05
584.87,1003.55
585.405,1001.05
585.94,1007.25
586.474,1018.3
587.008,1054.35
587.543,1077.95
588.077,1027.65
588.611,1008.25
589.145,1007.85
589.679,1003.7
590.213,1000.2
590.747,1003.2
591.28,1001.25
591.814,1007.2
592.347,1006.3
592.881,1002.1
593.414,1000.7
593.947,1003.25
594.48,1001.1
595.014,1002.6
595.547,1002.5
596.079,1005.55
596.612,1001.6
597.145,1004.45
597.678,1004.85
598.21,1004.45
598.743,1002.95
599.275,1006.8
599.807,1005.5
600.34,1004.4
600.872,1005.15
601.404,1004.5
601.936,1003.7
602.468,1006.35
603.0,1004.2
603.532,1001.85
604.063,1004.3
604.595,1003.55
605.126,1007.35
605.658,999.7
606.189,994.9
606.721,997.7
607.252,999.65
607.783,998.05
608.314,1000.05
608.845,1002.45
609.376,999.95
609.907,999.75
610.438,997.95
610.968,999.55
611.499,999.3
612.03,1000.4
612.56,1000.05
613.091,1003.2
613.621,1002.8
614.151,1006.7
614.681,1002.2
615.212,998.8
615.742,1002.55
616.272,1003.15
616.802,1003.5
617.332,1004.35
617.861,1002.7
618.391,997.95
618.921,1001.1
619.45,998.15
619.98,1002.4
620.509,997.8
621.039,997.95
621.568,997.6
622.097,1000.95
622.627,1008.6
623.156,1017.5
623.685,1008.15
624.214,1005.05
624.743,1001.15
625.272,1000.7
625.801,1000.1
626.33,998.35
626.858,1000.15
627.387,999.15
627.916,1011.15
628.444,1073.75
628.973,1066.0
629.501,1059.1
630.029,1065.7
630.558,1125.3
631.086,1502.3
631.614,1268.85
632.142,1131.0
632.67,1109.0
633.198,1201.7
633.726,1168.0
634.254,1065.0
634.782,1015.9
635.31,997.7
635.838,995.4
636.365,990.0
636.893,989.2
637.421,988.7
637.948,982.9
638.476,983.6
639.003,985.7
639.531,986.35
640.058,984.0
640.585,987.3
641.113,983.2
641.64,985.0
642.167,982.55
642.694,977.0
643.221,978.5
643.748,974.7
644.275,975.1
644.802,972.35
645.329,972.85
645.856,971.3
646.382,969.75
646.909,968.35
647.436,966.0
647.962,966.95
648.489,963.95
649.016,965.1
649.542,965.15
650.069,964.8
650.595,960.0
651.121,963.45
651.648,961.3
652.174,962.0
652.7,960.75
653.227,959.6
653.753,961.3
654.279,957.6
654.805,956.7
655.331,955.45
655.857,958.45
656.383,955.55
656.909,957.5
657.435,956.8
657.961,955.55
658.487,957.4
659.013,952.9
659.538,953.95
660.064,955.85
660.59,951.3
661.116,952.2
661.641,950.7
662.167,948.55
662.692,950.5
663.087,947.45

File: VLFR_08-PLA_nobio_Raman_5d370759.csv
cm-1,Intensity
-123.878,1855.7
-105.821,1854.95
-87.8007,1854.4
-69.8161,1854.75
-51.8675,1856.9
-33.9547,1855.8
-16.0776,1891.45
1.76388,3124.9
19.5698,1857.5
37.3403,1857.35
55.0755,2043.25
72.7754,2478.35
90.4402,2356.75
108.07,2314.6
125.665,2250.6
143.225,2246.0
160.75,2248.1
178.241,2214.4
195.697,2224.35
213.119,2189.95
230.506,2194.55
247.859,2220.4
265.178,2179.6
282.463,2208.05
299.713,2231.0
316.93,2247.95
334.113,2227.25
351.263,2220.05
368.379,2241.05
385.461,2285.45
402.51,2347.25
419.526,2273.15
436.508,2248.75
453.458,2226.85
470.374,2209.2
487.257,2223.7
504.107,2227.65
520.925,2231.3
537.71,2239.15
554.462,2249.8
571.182,2251.05
587.87,2267.65
604.525,2264.25
621.148,2274.05
637.739,2282.7
654.297,2290.45
670.824,2317.0
687.319,2314.6
703.782,2309.4
720.213,2310.85
736.613,2347.3
752.981,2335.05
769.317,2327.8
785.623,2312.0
801.897,2309.15
818.139,2310.55
834.351,2320.65
850.532,2396.7
866.681,2770.9
882.8,2620.55
898.888,2403.9
914.945,2385.95
930.972,2384.15
946.968,2358.45
962.934,2363.75
978.869,2354.75
994.774,2356.75
1010.65,2374.75
1026.49,2416.55
1042.31,2536.3
1058.09,2450.85
1073.85,2416.2
1089.57,2488.45
1105.27,2508.3
1120.93,2553.05
1136.57,2524.35
1152.18,2400.0
1167.75,2414.0
1183.3,2438.4
1198.82,2428.9
1214.31,2434.05
1229.77,2412.2
1245.2,2436.2
1260.6,2395.75
1275.97,2418.7
1291.32,2508.1
1306.63,2519.95
1321.92,2483.3
1337.18,2491.45
1352.41,2495.25
1367.61,2495.25
1382.78,2506.3
1397.93,2433.9
1413.05,2425.8
1428.14,2453.85
1443.2,2622.2
1458.23,2706.45
1473.23,2496.7
1488.21,2441.15
1503.16,2438.9
1518.08,2435.25
1532.97,2446.45
1547.84,2439.35
1562.68,2440.25
1577.49,2451.75
1592.27,2443.6
1607.03,2441.95
1621.76,2445.4
1636.46,2448.2
1651.14,2467.95
1665.78,2446.2
1680.41,2475.3
1695.0,2457.7
1709.57,2461.65
1724.11,2455.3
1738.62,2526.85
1753.11,2661.2
1767.57,2777.95
1782.01,2635.0
1796.41,2506.7
1810.8,2467.0
1825.15,2441.95
1839.48,2455.0
1853.79,2444.55
1868.06,2446.8
1882.31,2451.95
1896.54,2469.55
1910.74,2447.05
1924.91,2462.9
1939.06,2447.55
1953.19,2444.7
1967.28,2450.85
1981.35,2435.5
1995.4,2461.9
2009.42,2449.85
2023.42,2449.6
2037.39,2447.75
2051.33,2463.85
2065.25,2464.85
2079.15,2446.35
2093.01,2443.95
2106.86,2441.85
2120.68,2440.75
2134.47,2438.15
2148.24,2436.8
2161.99,2440.5
2175.71,2448.9
2189.41,2441.3
2203.08,2438.7
2216.73,2435.3
2230.35,2422.95
2243.95,2436.65
2257.52,2433.1
2271.07,2428.85
2284.6,2441.3
2298.1,2417.05
2311.58,2425.35
2325.03,2433.35
2338.46,2430.1
2351.87,2425.55
2365.25,2401.7
2378.61,2408.0
2391.94,2403.2
2405.26,2417.6
2418.54,2405.85
2431.81,2390.8
2445.05,2402.1
2458.27,2397.55
2471.46,2406.55
2484.63,2384.75
2497.78,2387.3
2510.9,2387.2
2524.0,2392.15
2537.08,2385.9
2550.14,2395.25
2563.17,2395.7
2576.18,2399.5
2589.17,2387.3
2602.13,2384.9
2615.07,2383.65
2627.99,2389.75
2640.89,2361.9
2653.76,2389.65
2666.61,2369.1
2679.44,2372.25
2692.25,2367.3
2705.03,2368.95
2717.79,2390.0
2730.53,2416.35
2743.25,2441.0
2755.94,2417.0
2768.61,2388.05
2781.27,2374.75
2793.89,2358.0
2806.5,2365.15
2819.09,2358.6
2831.65,2363.75
2844.19,2361.65
2856.71,2378.85
2869.21,2480.75
2881.69,2752.8
2894.14,2664.55
2906.58,2641.85
2918.99,2703.0
2931.38,2988.4
2943.75,4675.2
2956.1,3810.0
2968.42,3052.05
2980.73,2899.0
2993.01,3187.5
3005.28,3341.7
3017.52,2881.45
3029.74,2557.5
3041.94,2425.0
3054.12,2358.05
3066.28,2325.55
3078.42,2344.45
3090.54,2319.05
3102.63,2311.8
3114.71,2305.65
3126.77,2303.9
3138.8,2309.05
3150.82,2288.5
3162.81,2289.0
3174.78,2300.55
3186.74,2284.7
3198.67,2285.2
3210.58,2280.75
3222.47,2281.55
3234.35,2279.05
3246.2,2281.75
3258.03,2273.55
3269.84,2243.15
3281.64,2259.4
3293.41,2263.75
3305.16,2242.0
3316.89,2241.85
3328.61,2237.8
3340.3,2221.6
3351.97,2218.1
3363.63,2236.4
3375.26,2226.0
3386.88,2222.4
3398.47,2221.4
3410.05,2185.4
3421.6,2201.6
3433.14,2202.95
3444.66,2195.75
3456.15,2194.2
3467.63,2185.05
3479.09,2186.65
3490.53,2179.85
3501.96,2180.75
3513.36,2171.35
3524.74,2165.15
3536.11,2167.15
3547.45,2151.6
3558.78,2158.8
3570.09,2145.15
3581.37,2144.1
3592.64,2143.5
3603.9,2139.05
3615.13,2137.25
3626.34,2127.0
3637.54,2123.4
3648.72,2122.45
3659.87,2119.05
3665.45,2115.3