Folder: MPX_specDB/spectra (part 32)

File: VLFR_01-LDPE_nobio_Raman_f44fc2b9.csv
nm,Intensity
526.486,830.0
527.033,828.7
527.579,828.2
528.126,829.0
528.672,828.0
529.219,828.9
529.765,827.5
530.311,829.5
530.857,829.8
531.403,829.5
531.948,827.9
532.494,829.3
533.039,829.4
533.585,830.2
534.13,875.8
534.675,869.4
535.22,862.2
535.764,855.7
536.309,853.5
536.854,851.3
537.398,853.0
537.942,851.3
538.486,849.4
539.03,850.8
539.574,845.3
540.118,847.2
540.662,844.9
541.205,844.8
541.749,845.1
542.292,845.1
542.835,843.1
543.378,845.5
543.921,844.6
544.464,842.7
545.006,845.0
545.549,843.5
546.091,841.8
546.634,843.2
547.176,842.6
547.718,843.0
548.26,840.7
548.802,840.7
549.343,842.9
549.885,843.3
550.426,840.2
550.968,843.1
551.509,843.4
552.05,841.8
552.591,842.5
553.132,843.7
553.673,842.5
554.214,844.0
554.754,844.9
555.295,844.3
555.835,843.4
556.375,848.7
556.915,848.2
557.455,848.8
557.995,850.3
558.535,850.3
559.075,848.6
559.614,847.4
560.154,846.0
560.693,846.8
561.232,848.8
561.772,848.8
562.311,850.0
562.85,850.0
563.388,853.8
563.927,879.0
564.466,864.9
565.004,863.4
565.543,858.9
566.081,900.1
566.619,860.9
567.157,852.3
567.695,853.8
568.233,848.9
568.771,849.1
569.309,849.6
569.846,851.1
570.384,853.1
570.921,857.4
571.458,901.3
571.995,873.9
572.532,860.6
573.069,855.4
573.606,853.1
574.143,859.4
574.68,854.6
575.216,855.4
575.753,890.4
576.289,921.9
576.825,898.8
577.361,882.9
577.897,862.4
578.433,859.5
578.969,858.0
579.505,858.2
580.041,861.4
580.576,861.9
581.112,862.0
581.647,864.6
582.183,864.8
582.718,865.9
583.253,869.4
583.788,868.1
584.323,868.4
584.858,869.6
585.392,873.4
585.927,875.4
586.462,880.5
586.996,880.9
587.53,882.5
588.065,886.1
588.599,890.1
589.133,887.4
589.667,888.5
590.201,894.5
590.735,894.0
591.268,895.2
591.802,893.5
592.335,896.9
592.869,897.7
593.402,892.6
593.936,900.3
594.469,899.5
595.002,900.5
595.535,904.5
596.068,901.3
596.601,902.4
597.133,908.7
597.666,910.8
598.199,911.8
598.731,916.0
599.264,919.6
599.796,917.5
600.328,917.4
600.86,917.6
601.393,921.1
601.925,917.1
602.457,920.2
602.988,917.6
603.52,920.3
604.052,914.4
604.583,909.0
605.115,907.4
605.646,903.7
606.178,899.3
606.709,899.2
607.24,896.5
607.771,892.9
608.302,890.8
608.833,889.4
609.364,887.7
609.895,884.2
610.426,886.0
610.957,885.6
611.487,884.0
612.018,881.1
612.548,880.3
613.078,877.6
613.609,881.5
614.139,879.5
614.669,876.2
615.199,877.9
615.729,874.1
616.259,875.1
616.789,877.6
617.319,880.9
617.849,878.0
618.378,878.3
618.908,876.5
619.437,879.5
619.967,881.1
620.496,875.5
621.025,875.6
621.555,886.6
622.084,896.1
622.613,896.9
623.142,881.4
623.671,876.4
624.2,875.7
624.729,875.4
625.258,877.8
625.786,881.2
626.315,891.5
626.844,994.2
627.372,1285.8
627.901,1122.7
628.429,1200.6
628.957,1192.0
629.486,1120.5
630.014,1056.0
630.542,1043.9
631.07,958.2
631.598,908.2
632.126,891.8
632.654,880.1
633.182,877.6
633.71,873.2
634.237,869.5
634.765,871.1
635.293,871.1
635.82,870.1
636.348,865.6
636.875,869.6
637.403,866.0
637.93,867.7
638.458,867.1
638.985,868.1
639.512,867.5
640.039,867.8
640.566,868.0
641.093,868.8
641.62,869.1
642.147,870.5
642.674,870.7
643.201,870.2
643.728,872.5
644.255,870.9
644.781,869.6
645.308,872.8
645.835,871.7
646.361,869.8
646.888,873.0
647.414,872.1
647.941,874.3
648.467,871.8
648.993,871.0
649.52,873.6
650.046,871.3
650.572,871.4
651.098,869.3
651.625,871.9
652.151,875.1
652.677,875.2
653.203,872.4
653.729,870.5
654.255,873.7
654.78,874.3
655.306,874.2
655.832,875.4
656.358,873.3
656.884,875.1
657.409,873.8
657.935,870.8
658.461,871.6
658.986,868.2
659.512,868.4
660.037,869.8
660.563,867.5
661.088,865.1
661.614,864.4
662.139,863.1
662.664,863.0
663.058,859.3

File: VLFR_01-LDPE_nobio_Raman_fa1e6743.csv
nm,Intensity
526.532,832.3
527.079,833.05
527.625,833.35
528.172,833.35
528.718,832.65
529.265,833.7
529.811,832.9
530.357,833.4
530.903,834.45
531.449,833.8
531.994,839.6
532.54,833.0
533.085,833.3
533.63,835.25
534.176,915.9
534.721,905.4
535.266,888.1
535.81,872.45
536.355,868.0
536.9,865.3
537.444,864.0
537.988,862.6
538.533,860.75
539.077,857.35
539.621,854.25
540.165,854.3
540.708,851.7
541.252,850.9
541.795,850.85
542.339,850.7
542.882,850.5
543.425,849.25
543.968,850.15
544.511,848.3
545.054,847.95
545.597,848.35
546.139,847.65
546.682,848.0
547.224,848.4
547.766,848.4
548.308,846.55
548.85,847.05
549.392,846.3
549.934,846.95
550.475,845.5
551.017,846.4
551.558,847.35
552.1,845.95
552.641,846.75
553.182,850.5
553.723,849.75
554.264,850.55
554.804,851.45
555.345,851.05
555.885,853.55
556.426,856.1
556.966,857.65
557.506,859.15
558.046,861.6
558.586,861.3
559.126,859.95
559.665,858.25
560.205,855.2
560.745,857.25
561.284,855.55
561.823,858.7
562.362,862.8
562.901,866.05
563.44,869.15
563.979,942.0
564.518,889.3
565.056,879.35
565.595,875.2
566.133,936.8
566.671,878.35
567.21,870.85
567.748,873.45
568.285,868.5
568.823,868.1
569.361,871.55
569.899,870.4
570.436,876.15
570.974,884.8
571.511,1015.45
572.048,913.55
572.585,890.0
573.122,886.25
573.659,888.65
574.196,896.6
574.733,894.05
575.269,896.25
575.806,935.35
576.342,1061.8
576.878,1000.35
577.414,960.6
577.951,929.3
578.486,928.25
579.022,934.7
579.558,941.7
580.094,948.05
580.629,954.45
581.165,960.75
581.7,966.75
582.236,973.95
582.771,983.6
583.306,990.6
583.841,996.5
584.376,1003.7
584.911,1007.7
585.445,1023.05
585.98,1027.55
586.514,1041.7
587.049,1052.0
587.583,1062.7
588.117,1074.45
588.651,1090.65
589.186,1099.9
589.72,1113.0
590.253,1124.75
590.787,1143.35
591.321,1150.1
591.854,1163.25
592.388,1172.95
592.921,1181.65
593.455,1183.4
593.988,1197.85
594.521,1205.2
595.054,1222.45
595.587,1232.6
596.12,1244.05
596.653,1262.85
597.186,1283.55
597.718,1298.3
598.251,1321.55
598.783,1333.75
599.316,1353.8
599.848,1359.35
600.38,1365.05
600.912,1363.75
601.444,1367.15
601.976,1356.45
602.508,1350.4
603.04,1335.6
603.572,1319.35
604.103,1308.75
604.635,1284.4
605.167,1259.0
605.698,1236.0
606.229,1215.15
606.761,1195.0
607.292,1181.3
607.823,1166.15
608.354,1154.8
608.885,1143.1
609.416,1133.7
609.947,1124.2
610.477,1111.55
611.008,1110.6
611.539,1104.0
612.069,1092.65
612.6,1091.05
613.13,1090.25
613.66,1085.25
614.19,1075.15
614.721,1069.3
615.251,1065.45
615.781,1061.55
616.311,1058.5
616.841,1048.5
617.37,1057.6
617.9,1051.0
618.43,1048.2
618.96,1042.05
619.489,1045.85
620.019,1042.4
620.548,1035.8
621.077,1042.25
621.607,1055.15
622.136,1082.5
622.665,1076.55
623.194,1037.7
623.723,1029.6
624.252,1028.45
624.781,1026.9
625.31,1026.9
625.839,1040.25
626.368,1070.8
626.896,1418.45
627.425,1868.15
627.953,1541.15
628.482,1898.55
629.01,1595.45
629.539,1466.8
630.067,1343.35
630.596,1309.05
631.124,1149.2
631.652,1070.25
632.18,1040.5
632.708,1030.5
633.236,1023.4
633.764,1020.2
634.292,1014.7
634.82,1015.65
635.348,1016.25
635.876,1018.5
636.403,1013.7
636.931,1019.3
637.459,1016.25
637.986,1021.0
638.514,1022.35
639.041,1023.9
639.568,1023.5
640.096,1029.2
640.623,1032.2
641.15,1032.75
641.678,1039.25
642.205,1036.4
642.732,1044.0
643.259,1041.85
643.786,1044.6
644.313,1046.6
644.84,1047.75
645.367,1050.55
645.894,1053.25
646.421,1053.0
646.948,1056.25
647.474,1054.95
648.001,1057.35
648.528,1057.9
649.054,1060.25
649.581,1065.05
650.108,1065.75
650.634,1066.8
651.161,1063.9
651.687,1066.4
652.214,1073.15
652.74,1075.85
653.266,1076.35
653.793,1079.0
654.319,1079.1
654.845,1075.0
655.371,1074.2
655.897,1077.65
656.424,1067.25
656.95,1065.5
657.476,1064.25
658.002,1057.6
658.528,1051.85
659.054,1046.95
659.58,1042.6
660.106,1033.8
660.631,1021.55
661.157,1014.1
661.683,1007.25
662.209,1000.3
662.735,995.6
663.129,985.7

File: VLFR_01-LDPE_nobio_Raman_fd584731.csv
nm,Intensity
526.5,830.0
527.047,828.7
527.594,829.1
528.14,829.0
528.687,830.5
529.233,827.8
529.779,828.3
530.325,828.7
530.871,828.7
531.417,829.4
531.962,834.5
532.508,829.6
533.053,828.8
533.599,830.4
534.144,905.8
534.689,889.7
535.234,877.4
535.778,867.2
536.323,861.7
536.867,858.6
537.412,858.9
537.956,859.5
538.5,856.6
539.044,853.5
539.588,851.4
540.132,851.9
540.675,846.9
541.219,845.1
541.762,847.9
542.305,846.7
542.848,846.7
543.391,845.9
543.934,846.1
544.477,844.2
545.02,842.9
545.562,843.7
546.105,845.3
546.647,843.9
547.189,843.6
547.731,846.2
548.273,844.7
548.815,842.2
549.356,842.1
549.898,842.6
550.439,843.0
550.981,843.0
551.522,841.8
552.063,842.8
552.604,843.1
553.145,845.2
553.686,846.5
554.226,848.6
554.767,847.2
555.307,847.7
555.848,847.8
556.388,852.8
556.928,853.1
557.468,856.8
558.008,860.1
558.547,859.3
559.087,858.3
559.626,858.3
560.166,855.5
560.705,855.7
561.244,854.8
561.783,856.6
562.322,861.6
562.861,864.3
563.4,870.6
563.939,930.5
564.477,885.9
565.015,886.7
565.554,879.4
566.092,962.7
566.63,887.5
567.168,878.6
567.706,879.6
568.244,874.7
568.781,877.4
569.319,879.8
569.857,883.8
570.394,889.8
570.931,903.2
571.468,1006.5
572.005,939.9
572.542,915.7
573.079,912.9
573.616,920.9
574.153,932.3
574.689,935.3
575.226,947.4
575.762,1011.6
576.298,1099.2
576.834,1076.0
577.371,1046.6
577.907,1027.7
578.442,1047.5
578.978,1062.2
579.514,1087.7
580.049,1108.3
580.585,1124.7
581.12,1147.6
581.656,1169.8
582.191,1187.5
582.726,1215.6
583.261,1230.5
583.796,1241.6
584.331,1268.8
584.865,1287.8
585.4,1290.6
585.935,1308.3
586.469,1323.4
587.004,1352.5
587.538,1354.5
588.072,1370.0
588.606,1378.0
589.14,1394.9
589.674,1402.4
590.208,1429.6
590.742,1441.7
591.275,1443.7
591.809,1448.0
592.342,1452.9
592.876,1452.0
593.409,1460.3
593.942,1456.3
594.476,1465.6
595.009,1476.9
595.542,1484.4
596.075,1482.1
596.607,1486.0
597.14,1501.0
597.673,1513.9
598.205,1529.8
598.738,1543.3
599.27,1555.9
599.803,1545.7
600.335,1551.1
600.867,1536.6
601.399,1544.6
601.931,1534.9
602.463,1517.7
602.995,1507.8
603.527,1492.5
604.058,1474.8
604.59,1444.0
605.122,1416.0
605.653,1382.2
606.184,1360.5
606.716,1339.2
607.247,1322.9
607.778,1314.1
608.309,1292.3
608.84,1277.4
609.371,1264.3
609.902,1245.6
610.433,1232.5
610.964,1227.4
611.494,1220.5
612.025,1206.1
612.556,1193.0
613.086,1195.1
613.616,1196.1
614.147,1180.4
614.677,1168.2
615.207,1161.2
615.737,1161.3
616.267,1147.0
616.797,1138.3
617.327,1140.7
617.857,1132.4
618.387,1123.5
618.917,1127.1
619.446,1118.0
619.976,1118.9
620.505,1110.1
621.035,1118.6
621.564,1127.7
622.093,1142.6
622.623,1142.7
623.152,1126.4
623.681,1114.4
624.21,1114.3
624.739,1111.8
625.268,1120.1
625.797,1130.0
626.326,1148.4
626.855,1344.3
627.383,1803.3
627.912,1532.9
628.441,1737.4
628.969,1668.0
629.498,1547.5
630.026,1430.6
630.554,1420.5
631.083,1278.3
631.611,1205.1
632.139,1174.9
632.667,1166.3
633.195,1157.7
633.724,1165.9
634.252,1159.9
634.779,1162.2
635.307,1165.5
635.835,1161.7
636.363,1162.3
636.891,1168.7
637.418,1162.2
637.946,1160.4
638.474,1167.0
639.001,1165.4
639.529,1169.6
640.056,1168.8
640.583,1174.3
641.111,1175.0
641.638,1175.0
642.165,1183.3
642.692,1182.0
643.22,1174.4
643.747,1171.4
644.274,1175.1
644.801,1174.1
645.328,1175.3
645.854,1173.9
646.381,1171.4
646.908,1168.7
647.435,1170.8
647.962,1165.7
648.488,1162.1
649.015,1170.5
649.542,1162.6
650.068,1158.7
650.595,1162.8
651.121,1159.3
651.648,1166.7
652.174,1161.9
652.7,1167.1
653.227,1160.0
653.753,1162.0
654.279,1163.6
654.805,1154.5
655.331,1151.2
655.858,1150.3
656.384,1149.0
656.91,1146.2
657.436,1142.8
657.962,1124.8
658.488,1132.3
659.013,1120.2
659.539,1110.2
660.065,1101.2
660.591,1090.2
661.117,1080.0
661.642,1069.0
662.168,1061.0
662.694,1053.0
663.088,1039.8

File: VLFR_02-HDPE_bio_Raman_0a487a0d.csv
nm,Intensity
526.547,830.9
527.095,832.05
527.642,833.65
528.189,832.3
528.736,831.85
529.283,831.6
529.829,831.9
530.376,832.15
530.922,831.55
531.468,832.2
532.014,844.25
532.56,832.45
533.106,831.25
533.651,832.95
534.196,883.8
534.742,878.15
535.287,874.35
535.832,858.9
536.376,857.4
536.921,852.35
537.465,853.4
538.01,854.65
538.554,851.7
539.098,849.6
539.642,848.1
540.186,848.9
540.729,846.6
541.273,846.45
541.816,848.1
542.36,847.1
542.903,849.05
543.446,848.45
543.988,847.2
544.531,850.4
545.074,848.75
545.616,849.0
546.158,852.35
546.701,850.1
547.243,847.8
547.785,848.45
548.326,848.75
548.868,848.0
549.41,848.2
549.951,849.95
550.492,850.95
551.034,851.8
551.575,850.65
552.116,848.95
552.656,848.4
553.197,849.8
553.738,849.15
554.278,851.75
554.819,850.9
555.359,850.7
555.899,851.65
556.439,853.5
556.979,854.55
557.519,855.75
558.058,855.6
558.598,856.95
559.137,855.55
559.677,855.35
560.216,855.35
560.755,854.9
561.294,855.25
561.833,857.5
562.371,902.85
562.91,863.4
563.449,862.1
563.987,933.8
564.525,874.85
565.064,871.3
565.602,870.6
566.14,973.8
566.678,870.65
567.216,864.4
567.753,865.85
568.291,860.95
568.828,861.8
569.366,863.65
569.903,864.45
570.44,869.55
570.977,873.3
571.514,1004.2
572.051,888.65
572.588,874.25
573.125,873.25
573.661,876.25
574.198,878.25
574.734,878.25
575.271,887.1
575.807,922.35
576.343,989.0
576.879,950.5
577.415,931.15
577.951,910.0
578.486,909.2
579.022,921.1
579.557,928.85
580.093,938.05
580.628,944.35
581.164,951.7
581.699,955.65
582.234,964.15
582.769,971.7
583.304,974.55
583.838,976.35
584.373,978.2
584.908,975.7
585.442,976.1
585.977,977.25
586.511,976.25
587.045,972.55
587.58,968.35
588.114,966.95
588.648,965.35
589.182,963.35
589.715,961.25
590.249,963.85
590.783,965.2
591.316,961.45
591.85,959.6
592.383,961.2
592.917,961.45
593.45,959.05
593.983,956.95
594.516,958.35
595.049,958.5
595.582,961.6
596.115,961.05
596.648,960.95
597.18,964.25
597.713,962.15
598.245,968.55
598.778,967.7
599.31,972.45
599.842,971.5
600.375,967.6
600.907,970.5
601.439,969.05
601.971,969.9
602.503,970.9
603.034,968.75
603.566,963.55
604.098,960.5
604.629,958.35
605.161,947.95
605.692,945.4
606.224,941.15
606.755,939.85
607.286,934.9
607.817,934.85
608.348,931.75
608.879,929.55
609.41,924.4
609.941,922.95
610.472,919.3
611.002,919.9
611.533,918.8
612.063,917.75
612.594,916.6
613.124,916.25
613.655,911.9
614.185,912.1
614.715,908.15
615.245,910.5
615.775,907.3
616.305,908.75
616.835,910.6
617.365,913.7
617.895,913.5
618.425,911.95
618.954,912.8
619.484,914.55
620.013,918.85
620.543,915.1
621.072,917.05
621.602,930.6
622.131,949.3
622.66,942.95
623.189,923.05
623.718,920.45
624.247,919.95
624.776,924.8
625.305,926.85
625.834,936.85
626.363,964.1
626.891,1206.75
627.42,1552.6
627.949,1284.65
628.477,1555.25
629.006,1333.4
629.534,1235.75
630.062,1150.7
630.591,1123.9
631.119,1016.75
631.647,964.6
632.175,950.0
632.703,946.4
633.231,942.95
633.759,943.5
634.287,940.15
634.815,939.85
635.343,936.55
635.871,936.6
636.398,937.3
636.926,934.2
637.454,930.2
637.981,928.45
638.509,927.15
639.036,927.15
639.564,924.75
640.091,921.8
640.618,921.7
641.146,920.7
641.673,916.9
642.2,918.45
642.727,915.7
643.254,911.8
643.781,911.2
644.308,911.9
644.835,910.4
645.362,908.9
645.889,910.45
646.416,907.95
646.942,906.95
647.469,909.1
647.996,904.15
648.522,905.15
649.049,903.35
649.576,904.3
650.102,904.3
650.629,902.2
651.155,901.8
651.682,902.05
652.208,903.2
652.734,902.95
653.261,901.1
653.787,899.6
654.313,900.35
654.839,898.6
655.365,899.3
655.892,896.95
656.418,896.5
656.944,896.3
657.47,895.8
657.996,895.5
658.522,892.6
659.048,892.0
659.574,892.7
660.099,893.4
660.625,888.45
661.151,888.9
661.677,888.2
662.203,886.7
662.728,883.3
663.123,879.5

File: VLFR_02-HDPE_bio_Raman_0c09b5bf.csv
nm,Intensity
526.495,827.6
527.042,827.0
527.589,826.2
528.136,826.7
528.682,827.8
529.229,828.3
529.775,828.2
530.321,826.7
530.867,826.9
531.413,827.0
531.959,831.2
532.505,828.3
533.051,827.5
533.596,827.5
534.141,836.0
534.687,834.2
535.232,833.4
535.777,832.4
536.321,832.3
536.866,831.9
537.41,832.1
537.955,832.7
538.499,831.0
539.043,831.7
539.587,831.0
540.131,832.1
540.675,830.6
541.219,831.8
541.762,831.0
542.305,830.9
542.849,829.9
543.392,831.6
543.935,830.1
544.478,830.6
545.02,831.2
545.563,832.1
546.106,831.0
546.648,831.9
547.19,829.6
547.732,831.2
548.274,830.5
548.816,831.0
549.358,831.7
549.9,830.9
550.441,831.9
550.983,832.0
551.524,831.7
552.065,831.7
552.606,831.6
553.147,831.3
553.688,830.9
554.229,831.9
554.769,831.9
555.31,832.3
555.85,831.8
556.391,832.1
556.931,833.2
557.471,833.3
558.011,832.1
558.551,833.2
559.09,832.2
559.63,833.6
560.169,832.4
560.709,833.0
561.248,833.8
561.787,832.1
562.326,832.3
562.865,833.0
563.404,834.5
563.943,839.9
564.481,834.8
565.02,834.2
565.558,836.6
566.096,841.6
566.634,834.0
567.172,835.0
567.71,834.8
568.248,832.7
568.786,834.2
569.324,834.0
569.861,834.6
570.399,835.0
570.936,834.9
571.473,845.1
572.01,836.9
572.547,834.8
573.084,835.9
573.621,836.5
574.158,834.3
574.694,834.4
575.231,836.0
575.767,839.0
576.303,846.4
576.84,839.8
577.376,839.9
577.912,835.2
578.448,835.8
578.984,835.5
579.519,836.4
580.055,836.6
580.59,836.4
581.126,835.1
581.661,836.9
582.196,836.0
582.731,837.0
583.267,837.0
583.801,838.3
584.336,837.6
584.871,839.9
585.406,838.7
585.94,839.9
586.475,840.4
587.009,840.2
587.543,841.0
588.078,841.0
588.612,840.5
589.146,842.8
589.68,841.2
590.214,842.4
590.747,844.6
591.281,847.3
591.815,846.4
592.348,845.9
592.881,845.5
593.415,846.8
593.948,849.4
594.481,850.2
595.014,849.7
595.547,848.6
596.08,848.9
596.613,849.6
597.146,852.2
597.678,851.7
598.211,851.2
598.743,852.0
599.276,852.5
599.808,852.7
600.34,853.9
600.872,848.7
601.404,852.0
601.936,852.6
602.468,853.9
603.0,852.6
603.532,852.8
604.064,852.8
604.595,852.0
605.127,852.6
605.658,851.2
606.189,847.8
606.721,847.9
607.252,850.6
607.783,849.1
608.314,848.1
608.845,849.9
609.376,847.3
609.907,847.4
610.438,846.6
610.968,847.8
611.499,844.5
612.029,845.0
612.56,846.5
613.09,845.5
613.621,846.2
614.151,846.3
614.681,845.0
615.211,843.7
615.741,844.1
616.271,844.0
616.801,843.2
617.331,843.2
617.861,844.5
618.39,843.3
618.92,844.9
619.45,843.8
619.979,845.6
620.509,844.4
621.038,844.5
621.567,845.6
622.096,847.4
622.626,847.6
623.155,844.7
623.684,842.1
624.213,843.5
624.742,842.2
625.271,841.9
625.799,842.0
626.328,846.6
626.857,868.9
627.386,910.6
627.914,881.7
628.443,906.7
628.971,881.6
629.5,872.2
630.028,863.8
630.556,860.8
631.084,848.7
631.613,843.4
632.141,842.4
632.669,841.7
633.197,839.7
633.725,840.2
634.253,838.7
634.781,839.5
635.308,841.4
635.836,841.4
636.364,839.9
636.891,842.7
637.419,839.9
637.947,839.1
638.474,839.5
639.002,840.2
639.529,839.4
640.056,842.4
640.584,842.7
641.111,839.0
641.638,840.9
642.165,840.9
642.692,843.2
643.219,842.8
643.746,842.3
644.273,839.5
644.8,840.2
645.327,841.1
645.854,839.4
646.381,841.1
646.908,841.0
647.434,844.3
647.961,839.8
648.488,841.8
649.014,844.0
649.541,841.8
650.067,840.9
650.594,842.7
651.12,841.3
651.646,840.1
652.173,840.3
652.699,842.9
653.225,841.6
653.752,839.9
654.278,841.6
654.804,840.8
655.33,843.6
655.856,842.0
656.382,840.7
656.908,843.6
657.434,840.9
657.96,840.9
658.486,841.3
659.012,842.9
659.538,839.8
660.064,839.6
660.589,841.1
661.115,840.4
661.641,838.9
662.166,839.0
662.692,839.7
663.086,839.6

File: VLFR_02-HDPE_bio_Raman_1bf926f8.csv
nm,Intensity
526.547,831.85
527.095,832.45
527.642,832.55
528.189,831.3
528.736,833.0
529.283,832.1
529.829,832.95
530.376,830.55
530.922,831.65
531.468,832.35
532.014,838.2
532.56,832.25
533.106,831.8
533.651,833.45
534.196,900.7
534.742,896.5
535.287,892.85
535.832,875.9
536.376,873.2
536.921,870.55
537.465,869.9
538.01,868.75
538.554,869.15
539.098,867.35
539.642,865.5
540.186,866.1
540.729,866.6
541.273,868.15
541.816,868.85
542.36,869.25
542.903,868.4
543.446,869.65
543.988,870.55
544.531,871.55
545.074,869.6
545.616,873.0
546.158,874.25
546.701,871.5
547.243,874.0
547.785,873.2
548.326,873.7
548.868,873.9
549.41,875.85
549.951,876.2
550.492,874.2
551.034,873.7
551.575,874.5
552.116,874.45
552.656,873.95
553.197,876.45
553.738,876.85
554.278,875.85
554.819,878.25
555.359,879.0
555.899,877.5
556.439,878.35
556.979,877.1
557.519,879.2
558.058,880.65
558.598,880.5
559.137,877.75
559.677,881.15
560.216,879.05
560.755,878.95
561.294,880.55
561.833,882.65
562.371,883.35
562.91,884.8
563.449,888.6
563.987,964.4
564.525,903.65
565.064,896.85
565.602,894.9
566.14,985.6
566.678,897.05
567.216,891.5
567.753,893.15
568.291,890.4
568.828,890.5
569.366,892.55
569.903,895.2
570.44,898.75
570.977,901.25
571.514,1036.75
572.051,916.75
572.588,903.5
573.125,900.2
573.661,901.9
574.198,908.6
574.734,905.3
575.271,914.0
575.807,944.95
576.343,1044.15
576.879,981.65
577.415,956.9
577.951,932.3
578.486,932.1
579.022,938.7
579.557,942.8
580.093,948.6
580.628,953.85
581.164,956.9
581.699,967.05
582.234,969.9
582.769,978.45
583.304,985.6
583.838,990.4
584.373,995.7
584.908,1004.05
585.442,1015.65
585.977,1025.05
586.511,1036.75
587.045,1041.95
587.58,1059.15
588.114,1068.25
588.648,1076.1
589.182,1093.1
589.715,1100.3
590.249,1110.5
590.783,1120.7
591.316,1131.35
591.85,1141.2
592.383,1144.2
592.917,1148.6
593.45,1155.55
593.983,1163.95
594.516,1165.85
595.049,1176.2
595.582,1186.8
596.115,1203.25
596.648,1210.85
597.18,1217.1
597.713,1236.85
598.245,1246.7
598.778,1253.7
599.31,1265.65
599.842,1277.45
600.375,1281.05
600.907,1277.1
601.439,1277.55
601.971,1273.55
602.503,1274.85
603.034,1257.6
603.566,1255.7
604.098,1236.15
604.629,1219.15
605.161,1201.35
605.692,1179.2
606.224,1165.7
606.755,1151.8
607.286,1144.9
607.817,1129.35
608.348,1121.0
608.879,1111.8
609.41,1105.2
609.941,1094.3
610.472,1083.15
611.002,1078.1
611.533,1075.65
612.063,1071.05
612.594,1066.65
613.124,1065.2
613.655,1055.05
614.185,1050.0
614.715,1048.15
615.245,1043.45
615.775,1036.35
616.305,1033.45
616.835,1031.2
617.365,1029.1
617.895,1026.15
618.425,1021.7
618.954,1017.0
619.484,1018.2
620.013,1012.35
620.543,1007.7
621.072,1012.9
621.602,1020.25
622.131,1042.15
622.66,1036.3
623.189,1008.6
623.718,1002.2
624.247,999.55
624.776,996.8
625.305,995.1
625.834,1005.4
626.363,1025.8
626.891,1258.3
627.42,1540.3
627.949,1299.1
628.477,1585.4
629.006,1332.2
629.534,1239.75
630.062,1153.75
630.591,1132.25
631.119,1040.5
631.647,995.35
632.175,989.85
632.703,983.6
633.231,980.95
633.759,981.5
634.287,977.9
634.815,977.55
635.343,979.05
635.871,982.05
636.398,978.15
636.926,981.4
637.454,979.2
637.981,978.25
638.509,982.15
639.036,981.15
639.564,988.8
640.091,989.55
640.618,990.25
641.146,994.8
641.673,994.85
642.2,997.25
642.727,1000.2
643.254,997.85
643.781,1001.5
644.308,997.35
644.835,1001.65
645.362,1004.8
645.889,1000.05
646.416,1003.3
646.942,1004.35
647.469,1005.6
647.996,1008.55
648.522,1004.6
649.049,1008.05
649.576,1007.95
650.102,1009.35
650.629,1005.8
651.155,1010.35
651.682,1010.3
652.208,1008.85
652.734,1013.5
653.261,1012.25
653.787,1015.55
654.313,1014.8
654.839,1011.45
655.365,1010.25
655.892,1006.7
656.418,1006.6
656.944,1005.4
657.47,1004.0
657.996,1000.85
658.522,996.1
659.048,993.6
659.574,987.5
660.099,985.55
660.625,978.25
661.151,970.25
661.677,968.15
662.203,965.8
662.728,956.2
663.123,955.8