Folder: MPX_specDB/spectra (part 107)

File: VLFR_07-PET_bio_Raman_ed8fa3a6.csv
nm,Intensity
791.496,10943.4
792.594,10399.8
793.692,9924.7
794.79,9888.2
795.888,9638.0
796.986,9542.1
798.083,9581.4
799.181,9503.3
800.278,9492.2
801.375,9379.0
802.473,9377.3
803.57,9172.3
804.667,9229.6
805.764,9045.2
806.86,9064.0
807.957,9013.2
809.054,8918.5
810.15,8809.5
811.246,8931.7
812.343,8783.9
813.439,8722.3
814.535,8705.0
815.631,8623.8
816.727,8518.4
817.822,8447.3
818.918,8390.4
820.013,8334.5
821.109,8260.4
822.204,8071.6
823.299,8115.4
824.394,8044.9
825.489,8226.2
826.584,7976.8
827.679,7872.2
828.774,7821.7
829.868,7823.5
830.963,7757.3
832.057,7684.0
833.151,7600.1
834.245,7558.7
835.339,7468.7
836.433,7590.9
837.527,7479.6
838.621,7501.4
839.714,7417.7
840.808,7649.9
841.901,7485.0
842.994,7335.5
844.087,7226.9
845.18,7125.0
846.273,7099.6
847.366,6978.4
848.458,6987.0
849.551,6933.4
850.643,6905.3
851.735,6933.2
852.828,6891.9
853.92,6838.4
855.012,6706.0
856.103,6695.9
857.195,6727.1
858.287,6746.5
859.378,6830.8
860.469,6675.2
861.56,6438.6
862.651,6455.8
863.742,6520.6
864.833,6437.9
865.924,6352.1
867.014,6315.4
868.105,6281.7
869.195,6240.8
870.285,6316.3
871.376,6319.3
872.465,6497.0
873.555,6364.6
874.645,6232.1
875.735,6092.8
876.824,6022.6
877.913,6004.1
879.002,5978.2
880.092,5886.5
881.18,5885.4
882.269,5918.5
883.358,5831.7
884.446,5825.0
885.535,5810.2
886.623,5760.2
887.711,5725.4
888.799,5615.3
889.887,5574.7
890.975,5591.5
892.062,5633.2
893.15,5511.2
894.237,5462.0
895.325,5483.5
896.412,5464.1
897.499,5792.1
898.585,5797.0
899.672,5531.8
900.759,5298.7
901.845,5232.6
902.931,5215.1
904.017,5219.9
905.103,5217.6
906.189,5342.4
907.275,5524.9
908.361,5403.9
909.446,5184.4
910.531,5028.1
911.616,5027.4
912.701,4978.8
913.786,4924.9
914.871,4896.9
915.956,4850.7
917.04,4858.6
918.124,4839.8
919.209,4785.4
920.293,4766.1
921.376,4729.5
922.46,4695.3
923.544,4664.7
924.627,4647.0
925.711,4638.0
926.794,4610.6
927.877,4582.4
928.96,4495.9
930.042,4469.4
931.125,4489.1
932.207,4429.5
933.29,4428.0
934.372,4402.2
935.454,4381.0
936.536,4353.1
937.617,4316.4
938.699,4312.3
939.78,4280.0
940.861,4278.0
941.943,4238.0
943.023,4232.3
944.104,4200.1
945.185,4196.3
946.265,4182.3
947.346,4167.2
948.426,4153.2
949.506,4143.5
950.586,4113.6
951.665,4102.2
952.745,4093.0
953.824,4081.0
954.904,4062.0
955.983,4046.6
957.062,4034.6
958.141,4024.4
959.219,4012.2
960.298,3997.5
961.376,3990.3
962.454,3982.9
963.532,3974.0
964.61,3967.8
965.688,3959.8
966.765,3946.9
967.842,3930.7
968.92,3945.8
969.997,3927.4
971.074,3919.0
972.15,3906.8
973.227,3902.5
974.303,3896.9
975.379,3888.7
976.455,3882.7
977.531,3870.3
978.607,3871.3
979.683,3861.6
980.758,3863.0
981.833,3859.4
982.908,3848.5
983.983,3839.7
985.058,3836.6
986.133,3838.3
987.207,3828.4
988.281,3827.4
989.355,3813.6
990.429,3814.7
991.503,3809.3
992.577,3801.6
993.65,3801.1
994.723,3799.0
995.796,3790.8
996.869,3781.1
997.942,3781.9
999.014,3785.5
1000.09,3780.2
1001.16,3771.6
1002.23,3771.6
1003.3,3766.6
1004.37,3762.9
1005.45,3760.6
1006.52,3753.1
1007.59,3754.2
1008.66,3747.6
1009.73,3747.9
1010.8,3747.0
1011.87,3750.7
1012.94,3740.7
1014.01,3737.9
1015.08,3733.8
1016.15,3738.0
1017.22,3735.6
1018.29,3734.3
1019.36,3730.2
1020.43,3730.0
1021.5,3733.1
1022.57,3732.8
1023.64,3730.1
1024.7,3726.8
1025.77,3723.9
1026.84,3719.5
1027.91,3717.0
1028.97,3714.1
1030.04,3713.8
1031.11,3713.0
1032.18,3712.1
1033.24,3709.8
1034.31,3713.3
1035.38,3711.7
1036.44,3708.0
1037.51,3707.2
1038.58,3703.9
1039.64,3703.3
1040.71,3700.8
1041.77,3702.4
1042.84,3700.2
1043.9,3698.8
1044.97,3698.7
1046.03,3698.4
1047.1,3699.0
1048.16,3695.5
1049.22,3697.7
1050.29,3697.7
1051.35,3696.5
1052.42,3695.6
1053.48,3694.9
1054.54,3695.1
1055.61,3693.3
1056.67,3694.2
1057.73,3694.2
1058.79,3692.5
1059.86,3695.3
1060.92,3694.3
1061.98,3691.9
1063.04,3693.2
1064.1,3692.8
1065.16,3693.8
1066.22,3692.2
1067.29,3691.0
1068.08,3691.7

File: VLFR_07-PET_bio_Raman_ee239477.csv
nm,Intensity
791.496,10837.4
792.594,10136.2
793.692,9718.0
794.79,9609.8
795.888,9467.9
796.986,9496.5
798.083,9419.4
799.181,9394.3
800.278,9348.1
801.375,9370.4
802.473,9349.4
803.57,9077.8
804.667,9061.0
805.764,8991.7
806.86,8891.2
807.957,8786.2
809.054,8750.1
810.15,8624.9
811.246,8523.2
812.343,8544.6
813.439,8524.5
814.535,8376.0
815.631,8366.0
816.727,8234.3
817.822,8191.3
818.918,8066.5
820.013,7966.9
821.109,7940.5
822.204,7879.5
823.299,7806.7
824.394,7753.3
825.489,7905.6
826.584,7649.0
827.679,7585.9
828.774,7536.0
829.868,7549.4
830.963,7414.3
832.057,7286.4
833.151,7238.6
834.245,7206.6
835.339,7153.0
836.433,7205.7
837.527,7166.2
838.621,7151.2
839.714,7147.2
840.808,7366.5
841.901,7150.9
842.994,6994.2
844.087,6858.7
845.18,6759.7
846.273,6651.8
847.366,6661.8
848.458,6576.7
849.551,6569.2
850.643,6503.3
851.735,6560.7
852.828,6473.1
853.92,6366.3
855.012,6398.2
856.103,6352.5
857.195,6300.1
858.287,6395.3
859.378,6436.7
860.469,6414.1
861.56,6186.5
862.651,6124.9
863.742,6161.2
864.833,6168.3
865.924,6080.1
867.014,6016.6
868.105,5968.2
869.195,5983.0
870.285,6043.0
871.376,6073.4
872.465,6227.1
873.555,6091.3
874.645,5980.2
875.735,5868.5
876.824,5796.1
877.913,5770.3
879.002,5690.6
880.092,5701.4
881.18,5665.3
882.269,5721.4
883.358,5585.5
884.446,5581.1
885.535,5612.6
886.623,5547.3
887.711,5457.2
888.799,5423.1
889.887,5451.4
890.975,5397.1
892.062,5410.2
893.15,5345.1
894.237,5277.1
895.325,5298.8
896.412,5315.4
897.499,5628.3
898.585,5658.1
899.672,5317.5
900.759,5140.4
901.845,5082.4
902.931,5057.1
904.017,5066.3
905.103,5062.3
906.189,5199.3
907.275,5358.9
908.361,5215.8
909.446,5003.6
910.531,4878.6
911.616,4844.7
912.701,4828.7
913.786,4779.5
914.871,4746.6
915.956,4707.6
917.04,4693.8
918.124,4676.1
919.209,4632.0
920.293,4619.1
921.376,4578.2
922.46,4566.1
923.544,4533.5
924.627,4515.8
925.711,4475.5
926.794,4453.7
927.877,4446.7
928.96,4414.3
930.042,4392.6
931.125,4376.8
932.207,4371.9
933.29,4336.1
934.372,4320.4
935.454,4309.6
936.536,4293.5
937.617,4256.6
938.699,4261.0
939.78,4230.3
940.861,4216.3
941.943,4191.0
943.023,4182.8
944.104,4168.6
945.185,4145.9
946.265,4140.8
947.346,4122.4
948.426,4109.0
949.506,4086.4
950.586,4094.4
951.665,4070.9
952.745,4057.6
953.824,4039.9
954.904,4041.0
955.983,4023.0
957.062,4018.0
958.141,4006.6
959.219,3994.4
960.298,3984.0
961.376,3976.9
962.454,3957.6
963.532,3956.1
964.61,3943.4
965.688,3948.7
966.765,3939.5
967.842,3930.9
968.92,3922.6
969.997,3906.1
971.074,3907.0
972.15,3897.2
973.227,3892.4
974.303,3887.0
975.379,3885.5
976.455,3876.3
977.531,3862.0
978.607,3859.1
979.683,3856.2
980.758,3849.8
981.833,3845.6
982.908,3838.7
983.983,3833.4
985.058,3830.4
986.133,3829.2
987.207,3820.5
988.281,3821.2
989.355,3813.8
990.429,3811.8
991.503,3801.8
992.577,3797.0
993.65,3803.0
994.723,3792.4
995.796,3791.0
996.869,3787.7
997.942,3786.2
999.014,3779.1
1000.09,3779.5
1001.16,3776.7
1002.23,3773.1
1003.3,3768.6
1004.37,3770.2
1005.45,3768.6
1006.52,3761.9
1007.59,3760.1
1008.66,3755.4
1009.73,3754.1
1010.8,3753.1
1011.87,3753.4
1012.94,3751.4
1014.01,3749.0
1015.08,3748.1
1016.15,3746.9
1017.22,3745.8
1018.29,3744.3
1019.36,3743.1
1020.43,3744.1
1021.5,3744.5
1022.57,3744.4
1023.64,3744.3
1024.7,3740.8
1025.77,3733.7
1026.84,3736.1
1027.91,3734.7
1028.97,3727.1
1030.04,3726.6
1031.11,3728.9
1032.18,3726.8
1033.24,3729.6
1034.31,3728.0
1035.38,3728.2
1036.44,3728.1
1037.51,3722.3
1038.58,3719.5
1039.64,3721.2
1040.71,3718.9
1041.77,3717.6
1042.84,3718.3
1043.9,3716.5
1044.97,3715.9
1046.03,3716.6
1047.1,3715.7
1048.16,3714.7
1049.22,3712.4
1050.29,3715.6
1051.35,3713.2
1052.42,3714.6
1053.48,3714.2
1054.54,3711.1
1055.61,3713.2
1056.67,3711.8
1057.73,3710.4
1058.79,3713.7
1059.86,3710.5
1060.92,3711.4
1061.98,3711.7
1063.04,3713.5
1064.1,3712.1
1065.16,3711.4
1066.22,3710.1
1067.29,3711.9
1068.08,3710.6

File: VLFR_07-PET_bio_Raman_ef6b01fb.csv
nm,Intensity
791.496,11086.4
792.594,10385.6
793.692,9925.2
794.79,9765.8
795.888,9664.4
796.986,9727.0
798.083,9574.7
799.181,9657.4
800.278,9566.5
801.375,9663.1
802.473,9476.9
803.57,9366.0
804.667,9333.0
805.764,9296.6
806.86,9267.6
807.957,9115.7
809.054,9132.3
810.15,9003.8
811.246,8998.2
812.343,8933.5
813.439,8857.5
814.535,8785.2
815.631,8744.4
816.727,8669.1
817.822,8549.4
818.918,8518.3
820.013,8306.5
821.109,8293.4
822.204,8222.2
823.299,8126.0
824.394,8068.9
825.489,8303.8
826.584,7958.4
827.679,7865.2
828.774,7853.1
829.868,7749.1
830.963,7737.1
832.057,7537.0
833.151,7549.7
834.245,7471.3
835.339,7522.7
836.433,7489.9
837.527,7523.5
838.621,7414.2
839.714,7393.0
840.808,7579.5
841.901,7347.7
842.994,7244.2
844.087,7103.7
845.18,6960.6
846.273,6971.1
847.366,6934.2
848.458,6837.1
849.551,6829.3
850.643,6786.4
851.735,6795.3
852.828,6667.0
853.92,6686.5
855.012,6621.1
856.103,6613.9
857.195,6527.4
858.287,6587.2
859.378,6692.3
860.469,6562.1
861.56,6461.4
862.651,6343.7
863.742,6405.2
864.833,6365.7
865.924,6279.2
867.014,6215.6
868.105,6176.6
869.195,6141.7
870.285,6236.0
871.376,6327.6
872.465,6394.5
873.555,6330.9
874.645,6118.4
875.735,6062.3
876.824,5989.7
877.913,5898.6
879.002,5912.5
880.092,5826.6
881.18,5877.1
882.269,5837.7
883.358,5791.0
884.446,5758.1
885.535,5719.8
886.623,5638.0
887.711,5642.7
888.799,5572.0
889.887,5545.1
890.975,5586.2
892.062,5505.9
893.15,5485.3
894.237,5456.1
895.325,5391.9
896.412,5433.9
897.499,5756.6
898.585,5800.3
899.672,5459.4
900.759,5244.0
901.845,5233.2
902.931,5179.2
904.017,5174.7
905.103,5179.3
906.189,5320.8
907.275,5544.6
908.361,5351.1
909.446,5143.2
910.531,5020.3
911.616,4967.9
912.701,4916.2
913.786,4886.4
914.871,4849.5
915.956,4835.4
917.04,4772.1
918.124,4787.2
919.209,4770.2
920.293,4712.1
921.376,4676.4
922.46,4679.8
923.544,4629.1
924.627,4601.2
925.711,4570.0
926.794,4556.0
927.877,4546.2
928.96,4519.4
930.042,4468.3
931.125,4479.2
932.207,4441.5
933.29,4403.1
934.372,4410.5
935.454,4360.5
936.536,4343.7
937.617,4336.8
938.699,4317.0
939.78,4299.7
940.861,4269.1
941.943,4254.7
943.023,4233.2
944.104,4221.6
945.185,4190.9
946.265,4182.8
947.346,4169.2
948.426,4152.0
949.506,4129.9
950.586,4125.4
951.665,4109.0
952.745,4104.9
953.824,4074.6
954.904,4066.9
955.983,4060.6
957.062,4042.1
958.141,4029.1
959.219,4015.5
960.298,4013.0
961.376,4004.3
962.454,3989.2
963.532,3981.1
964.61,3978.9
965.688,3972.4
966.765,3947.0
967.842,3940.9
968.92,3936.4
969.997,3927.2
971.074,3916.9
972.15,3918.8
973.227,3908.2
974.303,3895.6
975.379,3899.3
976.455,3889.3
977.531,3880.9
978.607,3867.7
979.683,3869.3
980.758,3857.6
981.833,3849.0
982.908,3855.2
983.983,3844.2
985.058,3833.8
986.133,3838.8
987.207,3835.8
988.281,3829.5
989.355,3827.4
990.429,3816.8
991.503,3813.9
992.577,3810.5
993.65,3802.0
994.723,3799.9
995.796,3801.1
996.869,3787.1
997.942,3790.5
999.014,3788.2
1000.09,3787.9
1001.16,3779.0
1002.23,3779.8
1003.3,3775.2
1004.37,3772.8
1005.45,3771.7
1006.52,3768.1
1007.59,3764.4
1008.66,3760.9
1009.73,3759.1
1010.8,3756.2
1011.87,3756.9
1012.94,3751.5
1014.01,3752.1
1015.08,3751.9
1016.15,3747.3
1017.22,3745.8
1018.29,3747.5
1019.36,3745.4
1020.43,3746.3
1021.5,3750.6
1022.57,3747.6
1023.64,3745.4
1024.7,3740.1
1025.77,3736.4
1026.84,3734.7
1027.91,3733.3
1028.97,3730.4
1030.04,3730.3
1031.11,3726.7
1032.18,3727.8
1033.24,3728.6
1034.31,3731.9
1035.38,3730.5
1036.44,3727.4
1037.51,3723.5
1038.58,3722.8
1039.64,3719.5
1040.71,3720.7
1041.77,3717.6
1042.84,3715.5
1043.9,3718.2
1044.97,3717.5
1046.03,3714.5
1047.1,3717.7
1048.16,3717.3
1049.22,3714.0
1050.29,3712.7
1051.35,3715.0
1052.42,3714.7
1053.48,3712.5
1054.54,3714.1
1055.61,3713.5
1056.67,3714.0
1057.73,3713.2
1058.79,3711.8
1059.86,3713.3
1060.92,3711.7
1061.98,3712.6
1063.04,3713.1
1064.1,3713.0
1065.16,3713.6
1066.22,3712.0
1067.29,3711.9
1068.08,3708.6

File: VLFR_07-PET_bio_Raman_f9a0848e.csv
nm,Intensity
791.377,17314.5
792.477,15371.9
793.576,14248.9
794.676,13820.6
795.775,13345.8
796.874,13292.3
797.973,13052.9
799.072,13250.2
800.171,12802.1
801.27,12928.9
802.368,12686.3
803.467,12382.5
804.565,12242.9
805.664,11977.8
806.762,11797.1
807.86,11732.4
808.958,11608.5
810.056,11498.0
811.153,11360.2
812.251,11283.6
813.349,11284.1
814.446,10997.9
815.543,11052.8
816.64,10818.3
817.737,10892.6
818.834,10592.9
819.931,10633.5
821.028,10462.6
822.125,10330.9
823.221,10223.4
824.317,10196.0
825.414,10327.5
826.51,10152.3
827.606,9788.1
828.702,9746.78
829.797,9542.36
830.893,9847.56
831.988,9504.12
833.084,9437.24
834.179,9322.82
835.274,9146.22
836.369,9195.9
837.464,9232.66
838.559,9164.52
839.654,9166.48
840.748,9367.72
841.843,9338.66
842.937,9000.24
844.031,8910.3
845.125,8677.96
846.219,8369.3
847.313,8450.66
848.407,8274.22
849.5,8316.7
850.593,8175.64
851.687,8170.54
852.78,8109.18
853.873,8082.48
854.966,7987.1
856.059,7886.5
857.151,7871.54
858.244,8063.04
859.336,7957.72
860.428,8122.14
861.52,7807.88
862.612,7614.28
863.704,7489.8
864.796,7596.42
865.888,7557.08
866.979,7322.44
868.07,7354.36
869.162,7284.96
870.253,7402.68
871.344,7444.66
872.434,7813.56
873.525,7771.0
874.615,7306.44
875.706,7148.96
876.796,7018.38
877.886,6947.78
878.976,6808.76
880.066,6769.28
881.156,6807.08
882.245,6810.46
883.335,6651.32
884.424,6688.8
885.513,6670.12
886.602,6522.62
887.691,6500.94
888.78,6389.8
889.868,6341.7
890.957,6339.36
892.045,6288.66
893.133,6220.98
894.221,6148.88
895.309,6097.38
896.397,6136.54
897.484,6454.96
898.571,7161.78
899.659,6495.12
900.746,5966.28
901.833,5881.76
902.92,5822.98
904.006,5793.94
905.093,5735.04
906.179,5882.52
907.266,6308.76
908.352,6469.36
909.438,5974.14
910.523,5640.3
911.609,5507.66
912.695,5474.92
913.78,5347.92
914.865,5363.64
915.95,5280.9
917.035,5285.62
918.12,5245.04
919.204,5165.58
920.289,5178.84
921.373,5178.38
922.457,5097.32
923.541,5063.88
924.625,5041.74
925.709,4998.86
926.792,4952.08
927.876,4978.16
928.959,4892.28
930.042,4863.84
931.125,4854.54
932.208,4811.52
933.29,4784.0
934.373,4778.14
935.455,4754.32
936.537,4695.86
937.619,4667.7
938.701,4639.26
939.782,4627.84
940.864,4628.66
941.945,4573.68
943.026,4562.08
944.107,4530.86
945.188,4511.64
946.269,4486.16
947.349,4490.34
948.43,4447.46
949.51,4414.46
950.59,4417.96
951.67,4395.98
952.75,4381.76
953.829,4337.42
954.909,4347.62
955.988,4321.94
957.067,4290.22
958.146,4301.72
959.224,4274.74
960.303,4256.98
961.381,4234.6
962.459,4233.16
963.537,4223.76
964.615,4196.68
965.693,4196.06
966.771,4173.22
967.848,4172.34
968.925,4146.14
970.002,4141.96
971.079,4128.54
972.156,4130.22
973.232,4104.22
974.309,4099.78
975.385,4091.38
976.461,4082.12
977.537,4070.32
978.612,4059.4
979.688,4041.92
980.763,4044.22
981.838,4036.76
982.913,4031.6
983.988,4015.42
985.063,4010.44
986.137,4004.64
987.211,3997.3
988.285,3989.06
989.359,3977.08
990.433,3973.2
991.506,3963.88
992.58,3957.84
993.653,3948.44
994.726,3943.7
995.799,3936.84
996.872,3929.96
997.944,3930.3
999.016,3924.86
1000.09,3913.54
1001.16,3916.58
1002.23,3909.92
1003.3,3895.96
1004.38,3892.3
1005.45,3896.06
1006.52,3888.56
1007.59,3882.4
1008.66,3875.42
1009.73,3872.62
1010.8,3867.58
1011.87,3865.6
1012.94,3863.66
1014.01,3860.66
1015.08,3857.02
1016.15,3858.4
1017.22,3853.86
1018.29,3850.44
1019.36,3847.48
1020.42,3847.78
1021.49,3853.76
1022.56,3858.22
1023.63,3851.8
1024.7,3844.26
1025.76,3838.2
1026.83,3832.48
1027.9,3829.7
1028.97,3824.26
1030.03,3818.2
1031.1,3817.66
1032.17,3817.04
1033.23,3816.78
1034.3,3820.04
1035.36,3822.36
1036.43,3821.94
1037.5,3812.14
1038.56,3807.2
1039.63,3804.34
1040.69,3803.26
1041.76,3801.56
1042.82,3798.8
1043.89,3798.62
1044.95,3796.16
1046.01,3795.5
1047.08,3795.94
1048.14,3793.8
1049.2,3793.0
1050.27,3792.54
1051.33,3792.96
1052.39,3792.14
1053.46,3792.36
1054.52,3790.62
1055.58,3789.44
1056.64,3790.1
1057.7,3788.42
1058.77,3789.16
1059.83,3788.42
1060.89,3787.9
1061.95,3786.8
1063.01,3787.1
1064.07,3787.0
1065.13,3785.82
1066.19,3785.82
1067.25,3786.0
1068.05,3784.06

File: VLFR_07-PET_bio_Raman_f64d4272.csv
nm,Intensity
791.75,13113.0
792.846,12295.9
793.942,11801.8
795.037,11629.8
796.133,11560.5
797.228,11435.5
798.324,11652.2
799.419,11424.3
800.514,11436.6
801.61,11360.8
802.705,11135.3
803.8,10913.5
804.894,10809.8
805.989,10646.0
807.084,10655.0
808.178,10506.8
809.273,10407.3
810.367,10355.8
811.461,10246.7
812.556,10139.3
813.65,9998.6
814.744,9928.4
815.837,9851.5
816.931,9828.35
818.025,9635.75
819.118,9588.15
820.212,9516.75
821.305,9411.7
822.398,9304.4
823.491,9183.25
824.585,9149.85
825.677,9398.4
826.77,8833.7
827.863,8849.8
828.956,8760.75
830.048,8804.25
831.14,8621.4
832.233,8554.3
833.325,8372.2
834.417,8287.25
835.509,8255.25
836.601,8375.85
837.692,8337.25
838.784,8225.7
839.876,8136.4
840.967,8530.5
842.058,8156.6
843.149,8117.1
844.24,7805.25
845.331,7739.35
846.422,7657.9
847.513,7488.3
848.604,7580.4
849.694,7455.95
850.784,7415.25
851.875,7447.55
852.965,7481.95
854.055,7295.6
855.145,7351.6
856.235,7239.85
857.324,7270.15
858.414,7368.05
859.503,7360.0
860.593,7234.85
861.682,7085.1
862.771,7065.4
863.86,6960.75
864.949,7101.2
866.038,6879.15
867.126,6768.15
868.215,6855.85
869.303,6866.95
870.391,6971.4
871.479,7112.75
872.567,7359.1
873.655,7137.8
874.743,6881.55
875.831,6762.35
876.918,6567.0
878.006,6649.5
879.093,6550.25
880.18,6451.85
881.267,6467.6
882.354,6473.7
883.441,6374.6
884.527,6448.75
885.614,6436.9
886.7,6257.0
887.786,6216.85
888.872,6153.25
889.958,6094.3
891.044,6174.35
892.13,6081.5
893.216,5965.65
894.301,5938.1
895.386,5908.05
896.472,5921.7
897.557,6616.15
898.642,6543.0
899.726,5899.65
900.811,5681.0
901.896,5643.8
902.98,5638.9
904.064,5586.4
905.148,5557.15
906.232,5856.25
907.316,6125.0
908.4,5886.25
909.484,5528.65
910.567,5415.65
911.65,5274.3
912.734,5232.95
913.817,5169.4
914.9,5136.0
915.982,5127.15
917.065,5075.9
918.147,5044.9
919.23,5032.8
920.312,5008.9
921.394,4954.0
922.476,4908.6
923.558,4888.9
924.639,4857.1
925.721,4807.6
926.802,4809.25
927.884,4725.0
928.965,4728.0
930.046,4667.85
931.126,4644.4
932.207,4603.65
933.288,4600.8
934.368,4598.2
935.448,4536.85
936.528,4494.2
937.608,4502.95
938.688,4451.5
939.767,4442.25
940.847,4419.1
941.926,4419.25
943.005,4386.9
944.084,4392.05
945.163,4325.95
946.242,4324.35
947.321,4294.15
948.399,4276.5
949.477,4273.4
950.556,4242.75
951.634,4250.45
952.711,4233.2
953.789,4181.0
954.867,4196.05
955.944,4170.1
957.021,4148.4
958.098,4146.0
959.175,4129.0
960.252,4113.55
961.328,4098.9
962.405,4092.4
963.481,4081.0
964.557,4057.7
965.633,4054.0
966.709,4044.35
967.785,4034.55
968.86,4028.0
969.936,4017.65
971.011,3994.15
972.086,3998.4
973.161,3988.15
974.235,3982.65
975.31,3965.95
976.384,3948.4
977.459,3941.05
978.533,3946.6
979.607,3937.55
980.68,3933.1
981.754,3925.0
982.827,3903.4
983.901,3900.45
984.974,3903.5
986.047,3893.0
987.119,3882.45
988.192,3887.65
989.264,3880.55
990.337,3864.8
991.409,3865.4
992.481,3849.8
993.553,3850.6
994.624,3844.95
995.696,3842.1
996.767,3832.35
997.838,3826.3
998.909,3826.15
999.98,3817.9
1001.05,3814.2
1002.12,3810.3
1003.19,3804.6
1004.26,3802.9
1005.33,3796.45
1006.4,3795.2
1007.47,3786.55
1008.54,3784.65
1009.61,3781.6
1010.68,3780.15
1011.75,3772.25
1012.82,3774.2
1013.88,3774.55
1014.95,3773.1
1016.02,3767.05
1017.09,3763.1
1018.16,3758.85
1019.22,3760.5
1020.29,3762.15
1021.36,3765.7
1022.43,3766.65
1023.49,3763.0
1024.56,3758.95
1025.63,3752.2
1026.69,3744.35
1027.76,3745.25
1028.83,3738.75
1029.89,3736.65
1030.96,3733.55
1032.02,3732.7
1033.09,3735.7
1034.15,3738.5
1035.22,3738.4
1036.28,3733.65
1037.35,3727.9
1038.41,3724.0
1039.48,3722.75
1040.54,3721.3
1041.6,3720.85
1042.67,3719.55
1043.73,3717.25
1044.79,3716.15
1045.86,3713.8
1046.92,3715.45
1047.98,3715.15
1049.05,3713.55
1050.11,3714.55
1051.17,3715.4
1052.23,3713.3
1053.29,3713.7
1054.36,3711.45
1055.42,3710.2
1056.48,3711.25
1057.54,3711.05
1058.6,3710.85
1059.66,3709.7
1060.72,3710.5
1061.78,3709.1
1062.84,3708.95
1063.9,3710.4
1064.96,3709.4
1066.02,3709.2
1067.08,3708.65
1067.88,3707.85

File: VLFR_07-PET_bio_Raman_f568e5bd.csv
nm,Intensity
791.377,12446.4
792.477,11400.9
793.576,10907.7
794.676,10502.5
795.775,10512.8
796.874,10440.0
797.973,10491.1
799.072,10536.1
800.171,10433.7
801.27,10275.8
802.368,10328.0
803.467,10138.3
804.565,9921.86
805.664,9887.2
806.762,9816.92
807.86,9693.0
808.958,9557.72
810.056,9444.84
811.153,9528.42
812.251,9362.08
813.349,9325.22
814.446,9153.8
815.543,9156.6
816.64,9056.86
817.737,8916.14
818.834,8858.38
819.931,8977.22
821.028,8706.1
822.125,8694.42
823.221,8553.3
824.317,8546.56
825.414,8632.38
826.51,8465.64
827.606,8318.3
828.702,8176.6
829.797,8150.0
830.893,8262.5
831.988,8013.62
833.084,8074.38
834.179,7919.56
835.274,7805.14
836.369,7763.0
837.464,7874.2
838.559,7866.04
839.654,7775.52
840.748,7888.0
841.843,8098.92
842.937,7749.82
844.031,7527.24
845.125,7400.56
846.219,7273.2
847.313,7277.52
848.407,7220.06
849.5,7132.12
850.593,7099.22
851.687,7209.56
852.78,7163.74
853.873,7044.18
854.966,7041.92
856.059,6911.28
857.151,6970.46
858.244,7010.64
859.336,7094.34
860.428,7121.14
861.52,6982.48
862.612,6800.6
863.704,6741.14
864.796,6785.64
865.888,6678.98
866.979,6654.98
868.07,6609.06
869.162,6608.86
870.253,6647.7
871.344,6699.84
872.434,6972.68
873.525,7023.38
874.615,6728.34
875.706,6523.48
876.796,6485.58
877.886,6410.54
878.976,6290.94
880.066,6246.22
881.156,6249.42
882.245,6273.34
883.335,6264.8
884.424,6172.58
885.513,6240.06
886.602,6130.44
887.691,6095.42
888.78,6010.2
889.868,5934.26
890.957,5955.36
892.045,6006.2
893.133,5853.38
894.221,5857.66
895.309,5787.72
896.397,5738.16
897.484,5970.98
898.571,6591.12
899.659,6110.9
900.746,5661.24
901.833,5574.44
902.92,5538.22
904.006,5478.7
905.093,5482.02
906.179,5560.88
907.266,6025.9
908.352,5962.12
909.438,5678.16
910.523,5341.42
911.609,5285.66
912.695,5203.86
913.78,5236.18
914.865,5157.08
915.95,5099.74
917.035,5074.16
918.12,5073.6
919.204,5042.56
920.289,4994.88
921.373,4967.28
922.457,4964.58
923.541,4916.48
924.625,4844.36
925.709,4836.74
926.792,4832.76
927.876,4727.84
928.959,4766.76
930.042,4712.78
931.125,4670.3
932.208,4654.28
933.29,4619.64
934.373,4596.12
935.455,4568.94
936.537,4521.56
937.619,4537.22
938.701,4492.8
939.782,4497.4
940.864,4469.54
941.945,4464.44
943.026,4423.78
944.107,4415.1
945.188,4405.34
946.269,4372.26
947.349,4347.6
948.43,4355.78
949.51,4317.22
950.59,4305.74
951.67,4305.62
952.75,4265.46
953.829,4270.08
954.909,4242.6
955.988,4219.46
957.067,4227.58
958.146,4214.82
959.224,4192.92
960.303,4190.04
961.381,4167.38
962.459,4146.78
963.537,4157.86
964.615,4127.84
965.693,4124.32
966.771,4110.54
967.848,4104.8
968.925,4089.88
970.002,4092.78
971.079,4081.76
972.156,4076.32
973.232,4058.16
974.309,4043.56
975.385,4038.78
976.461,4030.2
977.537,4024.34
978.612,4014.78
979.688,4012.04
980.763,3998.06
981.838,3990.0
982.913,3989.98
983.988,3979.38
985.063,3976.4
986.137,3968.46
987.211,3958.72
988.285,3958.62
989.359,3951.46
990.433,3942.6
991.506,3932.52
992.58,3929.22
993.653,3927.26
994.726,3917.7
995.799,3908.26
996.872,3909.46
997.944,3910.22
999.016,3899.44
1000.09,3892.04
1001.16,3889.9
1002.23,3885.46
1003.3,3881.34
1004.38,3877.24
1005.45,3873.08
1006.52,3870.48
1007.59,3864.12
1008.66,3863.76
1009.73,3860.24
1010.8,3854.64
1011.87,3850.66
1012.94,3849.04
1014.01,3848.66
1015.08,3846.7
1016.15,3846.12
1017.22,3839.98
1018.29,3837.66
1019.36,3837.56
1020.42,3833.88
1021.49,3839.18
1022.56,3844.54
1023.63,3843.84
1024.7,3834.86
1025.76,3827.54
1026.83,3825.04
1027.9,3820.66
1028.97,3814.98
1030.03,3812.12
1031.1,3809.24
1032.17,3809.46
1033.23,3809.3
1034.3,3814.3
1035.36,3815.46
1036.43,3812.9
1037.5,3807.38
1038.56,3802.36
1039.63,3799.72
1040.69,3797.58
1041.76,3796.52
1042.82,3795.3
1043.89,3793.74
1044.95,3793.46
1046.01,3792.34
1047.08,3791.02
1048.14,3790.64
1049.2,3790.02
1050.27,3789.96
1051.33,3789.42
1052.39,3788.92
1053.46,3788.26
1054.52,3787.9
1055.58,3787.94
1056.64,3787.42
1057.7,3785.64
1058.77,3786.18
1059.83,3786.78
1060.89,3785.72
1061.95,3785.04
1063.01,3785.46
1064.07,3784.86
1065.13,3784.54
1066.19,3783.96
1067.25,3783.94
1068.05,3782.62