Folder: MPX_specDB/spectra (part 115)

File: VLFR_07-PET_nobio_Raman_239de90a.csv
nm,Intensity
782.722,3750.44
783.822,3758.72
784.922,5568.36
786.022,3958.78
787.122,3769.46
788.222,8022.78
789.321,17148.6
790.421,15126.3
791.52,13008.9
792.619,11432.1
793.718,10761.3
794.817,10308.2
795.916,10140.2
797.015,9950.92
798.114,9988.12
799.212,9911.06
800.311,9882.58
801.409,9888.64
802.507,9809.52
803.605,9378.56
804.703,9299.0
805.801,9073.26
806.899,9114.12
807.997,9046.28
809.094,8921.3
810.191,8843.32
811.289,8798.54
812.386,8637.94
813.483,8590.78
814.58,8557.36
815.677,8470.6
816.774,8437.96
817.87,8312.54
818.967,8365.58
820.063,8236.96
821.159,8232.94
822.255,8046.14
823.351,8038.46
824.447,7974.68
825.543,8191.4
826.639,8168.9
827.734,7726.6
828.83,7744.34
829.925,7748.78
831.02,7942.76
832.115,7591.9
833.21,7579.86
834.305,7445.18
835.4,7422.3
836.494,7412.32
837.589,7516.4
838.683,7477.92
839.777,7459.92
840.871,7656.16
841.965,7789.94
843.059,7366.4
844.152,7221.08
845.246,7061.5
846.339,6904.46
847.433,6833.82
848.526,6815.18
849.619,6783.38
850.712,6696.08
851.804,6849.98
852.897,6761.52
853.989,6678.84
855.082,6621.52
856.174,6604.58
857.266,6517.04
858.358,6703.2
859.45,6794.4
860.542,6837.68
861.633,6605.7
862.725,6487.06
863.816,6392.02
864.907,6428.4
865.998,6334.0
867.089,6203.56
868.18,6236.1
869.27,6249.88
870.361,6304.1
871.451,6395.18
872.541,6775.54
873.631,6707.2
874.721,6457.7
875.811,6145.52
876.901,6105.88
877.99,5978.4
879.08,5956.48
880.169,5919.78
881.258,5899.04
882.347,5904.44
883.436,5840.74
884.524,5848.0
885.613,5858.74
886.701,5795.76
887.79,5677.76
888.878,5665.74
889.966,5589.38
891.053,5583.52
892.141,5604.5
893.229,5552.62
894.316,5485.48
895.403,5433.1
896.49,5446.38
897.577,5719.28
898.664,6475.64
899.751,5886.32
900.837,5327.1
901.923,5208.56
903.01,5233.42
904.096,5199.6
905.181,5181.54
906.267,5337.78
907.353,5721.36
908.438,5817.86
909.523,5455.8
910.609,5088.66
911.694,5005.54
912.778,4937.6
913.863,4887.32
914.948,4856.3
916.032,4791.8
917.116,4818.46
918.2,4771.7
919.284,4762.82
920.368,4734.02
921.452,4712.72
922.535,4663.44
923.618,4672.66
924.701,4629.58
925.784,4602.12
926.867,4591.6
927.95,4541.12
929.032,4529.94
930.115,4495.04
931.197,4452.62
932.279,4457.24
933.361,4412.5
934.442,4421.5
935.524,4384.46
936.605,4351.04
937.687,4352.66
938.768,4331.02
939.849,4333.0
940.929,4302.76
942.01,4288.34
943.09,4261.2
944.171,4252.8
945.251,4234.82
946.331,4232.94
947.41,4191.36
948.49,4191.04
949.569,4195.44
950.649,4167.96
951.728,4165.52
952.807,4140.68
953.885,4143.46
954.964,4112.74
956.042,4106.98
957.121,4094.98
958.199,4096.26
959.277,4089.92
960.354,4074.38
961.432,4059.42
962.509,4045.78
963.587,4045.52
964.664,4028.5
965.741,4025.44
966.817,4009.18
967.894,4012.5
968.97,4005.56
970.047,3995.36
971.123,3990.76
972.198,3983.9
973.274,3972.68
974.35,3966.5
975.425,3953.68
976.5,3947.34
977.575,3952.32
978.65,3937.86
979.725,3937.0
980.799,3926.28
981.873,3921.26
982.947,3923.64
984.021,3914.92
985.095,3903.54
986.169,3899.74
987.242,3898.48
988.315,3898.28
989.388,3890.36
990.461,3878.18
991.534,3876.76
992.607,3872.66
993.679,3864.48
994.751,3860.34
995.823,3857.5
996.895,3852.66
997.966,3849.78
999.038,3845.74
1000.11,3837.96
1001.18,3839.52
1002.25,3839.42
1003.32,3834.22
1004.39,3825.76
1005.46,3828.38
1006.53,3822.18
1007.6,3819.58
1008.67,3814.68
1009.74,3813.66
1010.81,3811.56
1011.88,3806.5
1012.95,3805.48
1014.02,3806.48
1015.09,3804.68
1016.16,3803.46
1017.22,3799.78
1018.29,3798.2
1019.36,3795.26
1020.43,3798.92
1021.49,3803.06
1022.56,3807.14
1023.63,3807.08
1024.7,3799.0
1025.76,3793.54
1026.83,3790.16
1027.9,3783.4
1028.96,3780.62
1030.03,3777.22
1031.09,3776.16
1032.16,3776.02
1033.22,3778.74
1034.29,3780.4
1035.35,3784.96
1036.42,3779.34
1037.48,3774.58
1038.55,3769.08
1039.61,3766.96
1040.68,3765.62
1041.74,3763.18
1042.8,3763.84
1043.87,3762.24
1044.93,3760.68
1045.99,3759.96
1047.06,3760.44
1048.12,3758.78
1049.18,3758.38
1050.24,3758.68
1051.31,3758.36
1052.37,3758.08
1053.43,3757.62
1054.49,3756.4
1055.55,3756.34
1056.61,3756.38
1057.67,3755.44
1058.73,3754.48
1059.53,3754.88

File: VLFR_07-PET_nobio_Raman_258fb31a.csv
nm,Intensity
791.75,15181.6
792.846,14072.2
793.942,13471.8
795.037,13480.3
796.133,13061.5
797.228,12904.8
798.324,13079.2
799.419,13095.5
800.514,12928.8
801.61,12779.0
802.705,12575.7
803.8,12553.8
804.894,12318.1
805.989,12253.5
807.084,11938.9
808.178,11898.8
809.273,11783.2
810.367,11779.4
811.461,11740.8
812.556,11434.0
813.65,11433.0
814.744,11244.5
815.837,11174.3
816.931,11035.5
818.025,11038.6
819.118,10810.0
820.212,10813.2
821.305,10729.8
822.398,10503.1
823.491,10554.8
824.585,10355.7
825.677,10647.2
826.77,10060.8
827.863,10056.5
828.956,9970.2
830.048,9998.85
831.14,9766.6
832.233,9649.95
833.325,9461.45
834.417,9624.9
835.509,9465.0
836.601,9471.55
837.692,9393.5
838.784,9296.15
839.876,9240.05
840.967,9813.05
842.058,9160.4
843.149,9190.0
844.24,8850.8
845.331,8692.6
846.422,8638.65
847.513,8477.35
848.604,8544.05
849.694,8348.9
850.784,8390.7
851.875,8410.45
852.965,8439.8
854.055,8220.7
855.145,8161.85
856.235,8056.35
857.324,8093.65
858.414,8212.85
859.503,8342.8
860.593,8087.7
861.682,7940.05
862.771,7836.65
863.86,7881.65
864.949,7796.9
866.038,7657.2
867.126,7526.05
868.215,7655.2
869.303,7545.85
870.391,7689.5
871.479,7798.2
872.567,7940.15
873.655,7837.3
874.743,7564.9
875.831,7386.0
876.918,7194.0
878.006,7196.35
879.093,7161.85
880.18,7087.2
881.267,7174.7
882.354,7146.9
883.441,7009.5
884.527,6976.25
885.614,6983.6
886.7,6728.15
887.786,6795.85
888.872,6648.2
889.958,6673.75
891.044,6646.65
892.13,6545.7
893.216,6499.85
894.301,6435.05
895.386,6362.25
896.472,6487.85
897.557,7142.0
898.642,7105.45
899.726,6361.7
900.811,6151.55
901.896,6077.9
902.98,6103.75
904.064,5950.55
905.148,6043.55
906.232,6306.95
907.316,6550.95
908.4,6259.7
909.484,5913.4
910.567,5753.7
911.65,5676.7
912.734,5620.05
913.817,5522.8
914.9,5486.5
915.982,5499.35
917.065,5389.2
918.147,5335.75
919.23,5339.35
920.312,5339.05
921.394,5252.3
922.476,5213.95
923.558,5143.6
924.639,5114.35
925.721,5090.9
926.802,5021.35
927.884,5003.35
928.965,4965.95
930.046,4914.85
931.126,4875.55
932.207,4862.7
933.288,4826.55
934.368,4803.8
935.448,4736.1
936.528,4715.3
937.608,4713.25
938.688,4663.6
939.767,4635.55
940.847,4610.5
941.926,4580.75
943.005,4550.7
944.084,4502.1
945.163,4510.25
946.242,4472.1
947.321,4451.4
948.399,4426.95
949.477,4425.25
950.556,4375.85
951.634,4358.4
952.711,4357.3
953.789,4319.15
954.867,4307.35
955.944,4296.8
957.021,4276.25
958.098,4245.15
959.175,4239.9
960.252,4217.3
961.328,4206.5
962.405,4180.55
963.481,4183.3
964.557,4154.85
965.633,4137.75
966.709,4131.95
967.785,4123.1
968.86,4090.75
969.936,4094.3
971.011,4073.95
972.086,4075.85
973.161,4048.75
974.235,4032.5
975.31,4031.25
976.384,4013.35
977.459,4005.05
978.533,3996.4
979.607,3991.45
980.68,3974.1
981.754,3965.75
982.827,3959.4
983.901,3949.55
984.974,3949.35
986.047,3931.8
987.119,3927.35
988.192,3917.15
989.264,3905.75
990.337,3900.05
991.409,3895.0
992.481,3884.4
993.553,3876.7
994.624,3870.7
995.696,3869.1
996.767,3859.75
997.838,3855.85
998.909,3849.2
999.98,3839.5
1001.05,3842.75
1002.12,3829.25
1003.19,3823.6
1004.26,3823.05
1005.33,3816.05
1006.4,3813.75
1007.47,3807.35
1008.54,3799.6
1009.61,3795.7
1010.68,3797.95
1011.75,3790.45
1012.82,3789.0
1013.88,3788.15
1014.95,3783.75
1016.02,3781.55
1017.09,3775.35
1018.16,3774.1
1019.22,3772.9
1020.29,3776.65
1021.36,3776.45
1022.43,3781.05
1023.49,3774.1
1024.56,3767.05
1025.63,3759.35
1026.69,3756.7
1027.76,3752.05
1028.83,3746.15
1029.89,3743.0
1030.96,3743.45
1032.02,3742.05
1033.09,3743.65
1034.15,3749.45
1035.22,3744.3
1036.28,3739.85
1037.35,3734.8
1038.41,3730.2
1039.48,3727.65
1040.54,3726.2
1041.6,3726.0
1042.67,3724.7
1043.73,3723.1
1044.79,3721.9
1045.86,3722.35
1046.92,3719.9
1047.98,3718.45
1049.05,3719.05
1050.11,3718.35
1051.17,3718.9
1052.23,3718.85
1053.29,3715.85
1054.36,3715.3
1055.42,3715.55
1056.48,3715.2
1057.54,3715.4
1058.6,3715.5
1059.66,3713.75
1060.72,3713.55
1061.78,3713.85
1062.84,3713.35
1063.9,3712.5
1064.96,3713.2
1066.02,3712.45
1067.08,3712.15
1067.88,3711.7

File: VLFR_07-PET_nobio_Raman_288e0136.csv
nm,Intensity
791.75,7728.9
792.846,7434.9
793.942,7295.5
795.037,7367.9
796.133,7255.4
797.228,7193.7
798.324,7245.1
799.419,7241.1
800.514,7213.7
801.61,7218.1
802.705,7026.0
803.8,7086.0
804.894,6929.4
805.989,7001.2
807.084,6907.0
808.178,6897.7
809.273,6948.3
810.367,6761.9
811.461,6802.5
812.556,6689.0
813.65,6563.2
814.744,6501.2
815.837,6493.1
816.931,6462.0
818.025,6411.4
819.118,6396.2
820.212,6363.7
821.305,6276.3
822.398,6210.0
823.491,6237.0
824.585,6171.1
825.677,6156.5
826.77,6081.1
827.863,6005.0
828.956,6019.4
830.048,5965.5
831.14,6039.1
832.233,5832.7
833.325,5871.3
834.417,5840.9
835.509,5814.1
836.601,5851.6
837.692,5826.8
838.784,5741.7
839.876,5773.6
840.967,5796.4
842.058,5708.9
843.149,5694.5
844.24,5603.5
845.331,5527.5
846.422,5509.1
847.513,5506.2
848.604,5493.4
849.694,5422.8
850.784,5444.7
851.875,5411.1
852.965,5419.5
854.055,5364.8
855.145,5311.3
856.235,5283.9
857.324,5353.8
858.414,5305.6
859.503,5327.7
860.593,5249.2
861.682,5172.4
862.771,5194.7
863.86,5212.3
864.949,5207.9
866.038,5100.8
867.126,5121.7
868.215,5137.7
869.303,5112.4
870.391,5093.4
871.479,5121.3
872.567,5131.0
873.655,5145.1
874.743,5059.7
875.831,5029.0
876.918,4947.3
878.006,4992.3
879.093,4943.8
880.18,4942.0
881.267,4963.4
882.354,4935.1
883.441,4913.1
884.527,4900.2
885.614,4861.1
886.7,4826.9
887.786,4823.2
888.872,4759.3
889.958,4766.5
891.044,4787.6
892.13,4703.4
893.216,4664.9
894.301,4678.9
895.386,4648.5
896.472,4652.5
897.557,4721.3
898.642,4724.0
899.726,4626.1
900.811,4530.4
901.896,4530.0
902.98,4526.3
904.064,4496.0
905.148,4517.0
906.232,4531.4
907.316,4593.5
908.4,4497.7
909.484,4440.3
910.567,4391.7
911.65,4385.7
912.734,4345.0
913.817,4357.8
914.9,4317.4
915.982,4326.7
917.065,4279.3
918.147,4283.8
919.23,4285.0
920.312,4268.4
921.394,4229.2
922.476,4223.9
923.558,4214.4
924.639,4201.7
925.721,4166.3
926.802,4163.2
927.884,4138.6
928.965,4134.4
930.046,4099.5
931.126,4072.9
932.207,4067.2
933.288,4060.0
934.368,4045.5
935.448,4043.5
936.528,4011.5
937.608,4001.5
938.688,4027.7
939.767,3998.3
940.847,3991.6
941.926,3978.9
943.005,3963.6
944.084,3962.4
945.163,3948.1
946.242,3942.6
947.321,3944.0
948.399,3924.5
949.477,3920.6
950.556,3925.9
951.634,3907.7
952.711,3902.0
953.789,3900.9
954.867,3897.2
955.944,3883.1
957.021,3883.5
958.098,3879.9
959.175,3869.9
960.252,3858.9
961.328,3872.9
962.405,3870.1
963.481,3850.5
964.557,3850.5
965.633,3845.1
966.709,3841.4
967.785,3840.9
968.86,3835.5
969.936,3839.5
971.011,3830.0
972.086,3827.2
973.161,3822.0
974.235,3814.2
975.31,3811.6
976.384,3810.0
977.459,3802.2
978.533,3801.0
979.607,3802.6
980.68,3801.6
981.754,3801.1
982.827,3797.2
983.901,3792.4
984.974,3793.4
986.047,3793.5
987.119,3785.9
988.192,3788.4
989.264,3788.3
990.337,3774.5
991.409,3779.1
992.481,3776.9
993.553,3774.0
994.624,3771.7
995.696,3771.9
996.767,3764.9
997.838,3766.7
998.909,3761.9
999.98,3758.2
1001.05,3760.7
1002.12,3754.5
1003.19,3751.7
1004.26,3754.4
1005.33,3749.1
1006.4,3750.2
1007.47,3747.6
1008.54,3744.5
1009.61,3742.2
1010.68,3743.3
1011.75,3743.2
1012.82,3739.8
1013.88,3736.7
1014.95,3740.6
1016.02,3734.3
1017.09,3736.4
1018.16,3733.5
1019.22,3732.4
1020.29,3733.7
1021.36,3732.9
1022.43,3732.5
1023.49,3729.4
1024.56,3729.6
1025.63,3726.5
1026.69,3723.3
1027.76,3726.0
1028.83,3722.7
1029.89,3719.9
1030.96,3720.4
1032.02,3722.8
1033.09,3719.9
1034.15,3719.7
1035.22,3722.1
1036.28,3719.0
1037.35,3716.3
1038.41,3716.9
1039.48,3718.7
1040.54,3716.7
1041.6,3713.6
1042.67,3714.8
1043.73,3719.0
1044.79,3714.7
1045.86,3713.4
1046.92,3714.3
1047.98,3714.6
1049.05,3710.5
1050.11,3714.1
1051.17,3712.8
1052.23,3711.2
1053.29,3711.9
1054.36,3712.8
1055.42,3713.7
1056.48,3712.5
1057.54,3712.9
1058.6,3711.8
1059.66,3709.9
1060.72,3712.3
1061.78,3712.0
1062.84,3709.0
1063.9,3710.2
1064.96,3711.9
1066.02,3711.2
1067.08,3711.5
1067.88,3711.7

File: VLFR_07-PET_nobio_Raman_378a06b1.csv
nm,Intensity
791.377,11855.8
792.477,10755.2
793.576,10265.2
794.676,9862.5
795.775,9810.78
796.874,9763.84
797.973,9668.1
799.072,9711.78
800.171,9626.6
801.27,9581.34
802.368,9503.66
803.467,9389.28
804.565,9265.0
805.664,9071.36
806.762,9027.56
807.86,9062.84
808.958,9029.06
810.056,8799.98
811.153,8823.74
812.251,8809.36
813.349,8669.4
814.446,8549.14
815.543,8549.24
816.64,8359.82
817.737,8396.48
818.834,8255.76
819.931,8357.18
821.028,8112.64
822.125,8165.58
823.221,7973.04
824.317,7979.58
825.414,8128.68
826.51,7905.8
827.606,7839.5
828.702,7840.22
829.797,7738.8
830.893,7808.62
831.988,7646.66
833.084,7514.54
834.179,7448.56
835.274,7501.2
836.369,7397.38
837.464,7501.04
838.559,7418.94
839.654,7372.8
840.748,7574.12
841.843,7647.08
842.937,7323.22
844.031,7219.2
845.125,7040.0
846.219,6914.04
847.313,6905.04
848.407,6862.38
849.5,6786.62
850.593,6796.12
851.687,6786.1
852.78,6775.08
853.873,6711.62
854.966,6626.72
856.059,6522.04
857.151,6538.66
858.244,6621.28
859.336,6718.62
860.428,6746.88
861.52,6576.64
862.612,6402.22
863.704,6374.34
864.796,6531.98
865.888,6241.88
866.979,6231.98
868.07,6168.52
869.162,6230.64
870.253,6250.98
871.344,6342.54
872.434,6570.8
873.525,6563.7
874.615,6244.74
875.706,6062.76
876.796,6056.32
877.886,5952.1
878.976,5940.62
880.066,5930.6
881.156,5897.86
882.245,5881.94
883.335,5781.68
884.424,5843.82
885.513,5766.88
886.602,5736.92
887.691,5668.82
888.78,5563.0
889.868,5617.14
890.957,5519.98
892.045,5575.6
893.133,5493.46
894.221,5420.16
895.309,5406.16
896.397,5403.2
897.484,5692.38
898.571,6120.7
899.659,5720.38
900.746,5273.64
901.833,5239.36
902.92,5225.52
904.006,5145.14
905.093,5170.54
906.179,5264.88
907.266,5690.44
908.352,5515.76
909.438,5274.84
910.523,5091.86
911.609,4970.74
912.695,4892.26
913.78,4895.62
914.865,4848.06
915.95,4847.08
917.035,4811.18
918.12,4774.5
919.204,4768.34
920.289,4712.34
921.373,4686.56
922.457,4693.46
923.541,4658.54
924.625,4621.74
925.709,4596.14
926.792,4583.92
927.876,4537.16
928.959,4531.7
930.042,4506.54
931.125,4468.34
932.208,4442.64
933.29,4433.16
934.373,4408.92
935.455,4395.86
936.537,4344.56
937.619,4349.44
938.701,4323.88
939.782,4308.9
940.864,4302.38
941.945,4285.56
943.026,4267.7
944.107,4229.56
945.188,4236.3
946.269,4218.84
947.349,4191.32
948.43,4181.78
949.51,4195.48
950.59,4158.32
951.67,4147.2
952.75,4121.68
953.829,4123.0
954.909,4112.0
955.988,4098.06
957.067,4085.86
958.146,4067.12
959.224,4067.22
960.303,4055.22
961.381,4031.44
962.459,4031.02
963.537,4021.32
964.615,4011.88
965.693,4006.82
966.771,3995.18
967.848,3986.86
968.925,3989.04
970.002,3973.42
971.079,3960.7
972.156,3957.76
973.232,3951.94
974.309,3936.4
975.385,3934.96
976.461,3929.88
977.537,3923.26
978.612,3914.98
979.688,3905.06
980.763,3908.44
981.838,3895.56
982.913,3892.98
983.988,3891.44
985.063,3880.38
986.137,3877.56
987.211,3875.5
988.285,3871.48
989.359,3866.9
990.433,3856.38
991.506,3852.64
992.58,3849.14
993.653,3841.4
994.726,3836.16
995.799,3835.54
996.872,3832.3
997.944,3826.5
999.016,3823.52
1000.09,3818.9
1001.16,3817.26
1002.23,3815.2
1003.3,3808.34
1004.38,3805.28
1005.45,3804.86
1006.52,3801.1
1007.59,3799.22
1008.66,3793.32
1009.73,3791.48
1010.8,3791.18
1011.87,3787.44
1012.94,3783.08
1014.01,3787.0
1015.08,3783.78
1016.15,3782.2
1017.22,3778.66
1018.29,3775.72
1019.36,3776.78
1020.42,3774.8
1021.49,3777.58
1022.56,3783.76
1023.63,3782.26
1024.7,3776.38
1025.76,3769.74
1026.83,3764.42
1027.9,3762.14
1028.97,3759.3
1030.03,3755.66
1031.1,3754.08
1032.17,3754.94
1033.23,3756.06
1034.3,3759.0
1035.36,3760.1
1036.43,3757.68
1037.5,3751.64
1038.56,3747.5
1039.63,3747.32
1040.69,3745.36
1041.76,3744.24
1042.82,3743.86
1043.89,3742.08
1044.95,3741.42
1046.01,3740.3
1047.08,3740.38
1048.14,3738.3
1049.2,3739.1
1050.27,3739.86
1051.33,3737.74
1052.39,3738.54
1053.46,3737.22
1054.52,3737.66
1055.58,3737.88
1056.64,3736.76
1057.7,3736.1
1058.77,3736.8
1059.83,3736.02
1060.89,3735.74
1061.95,3736.6
1063.01,3736.04
1064.07,3735.88
1065.13,3735.06
1066.19,3735.58
1067.25,3734.02
1068.05,3733.54

File: VLFR_07-PET_nobio_Raman_508f48b3.csv
cm-1,Intensity
109.24,8004.4
126.699,7502.1
144.108,7304.0
161.468,7099.5
178.779,6947.4
196.04,7023.8
213.253,6915.45
230.417,6991.25
247.532,6884.2
264.599,6905.6
281.618,6841.55
298.59,6810.75
315.513,6725.35
332.389,6751.4
349.218,6613.2
365.999,6632.25
382.734,6585.05
399.422,6542.0
416.064,6577.0
432.659,6419.3
449.208,6407.05
465.711,6358.65
482.168,6350.55
498.579,6290.4
514.946,6262.35
531.267,6232.9
547.542,6216.4
563.773,6135.3
579.96,6060.7
596.102,6062.55
612.199,6045.05
628.252,6186.0
644.261,5950.3
660.227,5949.35
676.149,5865.25
692.027,5872.45
707.862,5916.25
723.654,5875.55
739.403,5804.3
755.109,5777.2
770.773,5718.5
786.394,5774.8
801.973,5819.75
817.509,5747.6
833.004,5734.05
848.457,5962.7
863.868,5792.9
879.238,5731.2
894.567,5590.0
909.854,5557.85
925.1,5515.2
940.306,5507.5
955.471,5461.15
970.595,5428.85
985.679,5445.85
1000.72,5452.75
1015.73,5396.3
1030.69,5386.4
1045.61,5348.55
1060.5,5277.35
1075.34,5301.05
1090.15,5402.85
1104.92,5407.1
1119.64,5356.15
1134.33,5236.3
1148.98,5210.65
1163.6,5237.45
1178.17,5247.25
1192.7,5121.2
1207.2,5118.6
1221.66,5106.0
1236.08,5107.5
1250.46,5144.85
1264.81,5188.7
1279.12,5337.55
1293.39,5246.05
1307.62,5110.25
1321.82,5058.8
1335.98,5021.7
1350.11,4995.35
1364.19,4936.25
1378.24,4917.85
1392.26,4915.35
1406.24,4903.6
1420.18,4898.45
1434.08,4882.45
1447.96,4888.05
1461.79,4844.25
1475.59,4792.1
1489.35,4785.1
1503.08,4774.4
1516.78,4765.9
1530.44,4735.55
1544.06,4716.25
1557.65,4717.45
1571.2,4654.65
1584.72,4657.4
1598.21,4920.25
1611.66,5067.8
1625.08,4768.0
1638.46,4576.9
1651.81,4578.05
1665.13,4554.15
1678.41,4532.35
1691.66,4573.35
1704.88,4666.3
1718.06,4807.45
1731.21,4795.25
1744.32,4566.05
1757.41,4482.0
1770.46,4440.35
1783.48,4381.05
1796.46,4375.35
1809.42,4371.1
1822.34,4368.4
1835.23,4359.7
1848.08,4323.75
1860.91,4330.25
1873.7,4306.5
1886.46,4289.7
1899.19,4288.75
1911.89,4257.95
1924.56,4245.9
1937.19,4247.9
1949.8,4218.05
1962.37,4189.55
1974.91,4175.0
1987.42,4162.1
1999.9,4162.75
2012.36,4137.1
2024.78,4119.95
2037.16,4098.55
2049.52,4101.45
2061.85,4086.35
2074.15,4073.0
2086.42,4068.45
2098.66,4061.2
2110.87,4052.9
2123.05,4033.65
2135.2,4021.75
2147.32,4020.15
2159.41,4000.85
2171.47,4002.0
2183.51,3984.15
2195.51,3979.25
2207.49,3982.5
2219.43,3966.9
2231.35,3964.65
2243.24,3953.05
2255.1,3949.35
2266.93,3938.9
2278.73,3931.8
2290.51,3921.75
2302.26,3923.2
2313.97,3914.05
2325.67,3915.05
2337.33,3905.3
2348.96,3900.65
2360.57,3885.55
2372.15,3891.5
2383.7,3883.2
2395.23,3882.3
2406.73,3874.65
2418.2,3873.55
2429.64,3865.7
2441.06,3859.2
2452.45,3863.25
2463.81,3856.8
2475.15,3851.05
2486.46,3851.0
2497.74,3840.4
2509.0,3840.8
2520.23,3838.15
2531.43,3835.35
2542.61,3829.65
2553.76,3825.7
2564.88,3825.7
2575.98,3823.2
2587.06,3818.8
2598.1,3815.45
2609.13,3812.85
2620.12,3812.6
2631.09,3809.6
2642.04,3805.5
2652.96,3800.3
2663.85,3800.2
2674.72,3797.75
2685.57,3798.15
2696.39,3792.05
2707.18,3789.65
2717.95,3787.8
2728.69,3786.0
2739.41,3784.25
2750.11,3782.9
2760.78,3778.05
2771.43,3780.75
2782.05,3778.3
2792.65,3773.55
2803.22,3776.7
2813.77,3771.1
2824.3,3768.2
2834.8,3769.45
2845.27,3767.25
2855.73,3766.95
2866.16,3762.0
2876.56,3763.8
2886.95,3764.85
2897.3,3761.55
2907.64,3763.85
2917.95,3761.45
2928.24,3760.8
2938.51,3760.95
2948.75,3763.25
2958.97,3765.5
2969.17,3760.45
2979.34,3759.5
2989.49,3756.4
2999.62,3754.7
3009.72,3752.3
3019.81,3749.7
3029.87,3749.65
3039.9,3747.85
3049.92,3748.7
3059.91,3749.2
3069.88,3749.55
3079.83,3750.45
3089.76,3750.15
3099.66,3746.8
3109.54,3744.25
3119.4,3742.25
3129.24,3741.65
3139.06,3741.65
3148.85,3740.9
3158.62,3740.55
3168.38,3738.85
3178.11,3737.95
3187.81,3739.85
3197.5,3738.8
3207.17,3738.45
3216.81,3739.65
3226.44,3738.95
3236.04,3738.25
3245.62,3737.4
3255.18,3737.5
3264.72,3738.65
3274.24,3738.45
3283.73,3736.75
3293.21,3736.85
3302.67,3738.5
3312.1,3736.85
3321.52,3736.75
3330.91,3737.0
3340.29,3735.6
3349.64,3736.45
3358.97,3735.95
3368.29,3733.65
3375.26,3735.25

File: VLFR_07-PET_nobio_Raman_541dce09.csv
nm,Intensity
791.75,14953.6
792.846,13675.9
793.942,12992.1
795.037,12981.3
796.133,12483.0
797.228,12627.6
798.324,12777.0
799.419,12679.6
800.514,12705.7
801.61,12834.3
802.705,12441.5
803.8,12258.8
804.894,12272.7
805.989,12005.2
807.084,11911.0
808.178,11905.4
809.273,11638.0
810.367,11549.7
811.461,11447.1
812.556,11372.8
813.65,11069.1
814.744,11008.3
815.837,11138.7
816.931,10807.1
818.025,10836.6
819.118,10671.3
820.212,10573.7
821.305,10458.8
822.398,10257.5
823.491,10250.7
824.585,10114.0
825.677,10313.6
826.77,9852.2
827.863,9883.4
828.956,9700.6
830.048,9736.1
831.14,9596.6
832.233,9459.3
833.325,9434.9
834.417,9204.6
835.509,9170.1
836.601,9375.6
837.692,9304.3
838.784,9285.7
839.876,9140.4
840.967,9566.9
842.058,9176.0
843.149,8997.0
844.24,8866.9
845.331,8538.8
846.422,8335.9
847.513,8457.3
848.604,8276.7
849.694,8204.2
850.784,8293.4
851.875,8226.6
852.965,8169.4
854.055,8062.1
855.145,8096.5
856.235,7970.3
857.324,7901.8
858.414,8208.3
859.503,8208.4
860.593,8017.5
861.682,7805.8
862.771,7590.3
863.86,7758.5
864.949,7726.4
866.038,7489.6
867.126,7503.8
868.215,7519.9
869.303,7486.1
870.391,7396.4
871.479,7739.5
872.567,7845.3
873.655,7793.8
874.743,7416.9
875.831,7256.0
876.918,7213.3
878.006,7094.4
879.093,7131.8
880.18,6996.5
881.267,7057.1
882.354,7024.4
883.441,7020.4
884.527,6977.3
885.614,6968.6
886.7,6856.9
887.786,6710.3
888.872,6603.0
889.958,6644.3
891.044,6679.7
892.13,6630.0
893.216,6378.7
894.301,6467.8
895.386,6428.1
896.472,6490.7
897.557,7068.1
898.642,7072.3
899.726,6427.6
900.811,6077.6
901.896,6183.6
902.98,5991.9
904.064,6060.0
905.148,5950.2
906.232,6347.9
907.316,6679.2
908.4,6327.4
909.484,5900.4
910.567,5741.6
911.65,5646.3
912.734,5581.3
913.817,5541.0
914.9,5480.6
915.982,5482.1
917.065,5399.9
918.147,5376.6
919.23,5386.4
920.312,5278.9
921.394,5244.7
922.476,5194.3
923.558,5153.6
924.639,5082.6
925.721,5071.1
926.802,5011.2
927.884,4979.1
928.965,4930.4
930.046,4918.1
931.126,4856.8
932.207,4817.6
933.288,4820.2
934.368,4775.3
935.448,4728.6
936.528,4682.6
937.608,4661.1
938.688,4654.9
939.767,4597.2
940.847,4601.6
941.926,4530.0
943.005,4516.7
944.084,4500.3
945.163,4460.7
946.242,4462.6
947.321,4413.5
948.399,4423.1
949.477,4391.4
950.556,4368.4
951.634,4348.1
952.711,4317.5
953.789,4297.3
954.867,4286.3
955.944,4260.1
957.021,4245.7
958.098,4235.5
959.175,4218.2
960.252,4202.4
961.328,4186.7
962.405,4176.7
963.481,4149.2
964.557,4137.2
965.633,4131.4
966.709,4106.8
967.785,4116.2
968.86,4075.6
969.936,4070.0
971.011,4059.1
972.086,4054.3
973.161,4046.7
974.235,4028.3
975.31,4009.6
976.384,3999.4
977.459,3999.3
978.533,3983.9
979.607,3971.2
980.68,3975.2
981.754,3960.1
982.827,3952.4
983.901,3945.7
984.974,3932.8
986.047,3932.9
987.119,3930.0
988.192,3911.5
989.264,3917.6
990.337,3894.9
991.409,3893.5
992.481,3882.3
993.553,3880.8
994.624,3876.4
995.696,3863.4
996.767,3859.7
997.838,3855.5
998.909,3852.5
999.98,3849.4
1001.05,3837.9
1002.12,3832.8
1003.19,3832.4
1004.26,3825.9
1005.33,3817.8
1006.4,3810.5
1007.47,3811.1
1008.54,3805.6
1009.61,3800.0
1010.68,3800.8
1011.75,3793.6
1012.82,3793.0
1013.88,3790.9
1014.95,3790.1
1016.02,3782.3
1017.09,3780.3
1018.16,3773.9
1019.22,3776.4
1020.29,3778.3
1021.36,3786.4
1022.43,3781.7
1023.49,3780.4
1024.56,3767.3
1025.63,3762.2
1026.69,3757.3
1027.76,3751.4
1028.83,3748.2
1029.89,3745.0
1030.96,3746.7
1032.02,3744.1
1033.09,3746.7
1034.15,3752.4
1035.22,3748.0
1036.28,3746.0
1037.35,3738.1
1038.41,3735.1
1039.48,3728.5
1040.54,3729.9
1041.6,3726.9
1042.67,3726.5
1043.73,3727.3
1044.79,3722.1
1045.86,3724.2
1046.92,3724.4
1047.98,3722.2
1049.05,3723.2
1050.11,3720.5
1051.17,3721.5
1052.23,3717.3
1053.29,3720.2
1054.36,3719.1
1055.42,3716.4
1056.48,3714.9
1057.54,3717.0
1058.6,3716.5
1059.66,3716.6
1060.72,3716.8
1061.78,3715.5
1062.84,3714.8
1063.9,3715.0
1064.96,3716.1
1066.02,3714.5
1067.08,3715.3
1067.88,3714.0