Folder: MPX_specDB/spectra (part 7)

File: VLFR_01-LDPE_bio_Raman_672cbd8f.csv
nm,Intensity
526.508,830.2
527.055,830.2
527.602,829.0
528.149,831.6
528.695,829.9
529.241,829.7
529.787,829.7
530.334,830.1
530.879,829.0
531.425,829.8
531.971,832.7
532.516,831.1
533.062,829.9
533.607,830.0
534.152,915.3
534.697,898.5
535.242,882.4
535.786,866.7
536.331,859.7
536.876,859.1
537.42,859.1
537.964,860.1
538.508,856.2
539.052,853.7
539.596,850.8
540.14,848.7
540.683,847.5
541.227,848.3
541.77,844.3
542.313,845.5
542.856,845.1
543.399,846.0
543.942,846.1
544.485,845.7
545.027,845.1
545.57,843.5
546.112,841.8
546.654,842.2
547.196,844.5
547.738,843.8
548.28,842.6
548.822,842.2
549.363,843.2
549.905,843.0
550.446,841.2
550.988,841.3
551.529,841.3
552.07,841.2
552.611,841.4
553.152,843.0
553.692,846.6
554.233,848.8
554.773,848.8
555.314,847.5
555.854,850.3
556.394,852.5
556.934,854.5
557.474,855.7
558.014,860.6
558.553,857.6
559.093,858.9
559.632,854.4
560.172,852.5
560.711,853.7
561.25,855.0
561.789,857.2
562.328,860.1
562.867,862.9
563.406,868.1
563.944,928.2
564.483,892.0
565.021,885.9
565.559,878.5
566.098,956.7
566.636,886.2
567.174,876.9
567.711,878.6
568.249,873.6
568.787,875.9
569.324,875.9
569.862,881.5
570.399,889.7
570.936,902.6
571.474,1008.0
572.011,945.2
572.548,918.8
573.084,916.9
573.621,923.4
574.158,937.9
574.694,937.4
575.231,949.3
575.767,1002.7
576.303,1118.8
576.84,1066.6
577.376,1040.4
577.912,1007.4
578.447,1015.2
578.983,1033.5
579.519,1049.6
580.054,1064.5
580.59,1084.1
581.125,1103.3
581.661,1118.5
582.196,1138.6
582.731,1153.0
583.266,1172.1
583.801,1202.5
584.336,1213.0
584.87,1222.0
585.405,1251.1
585.94,1261.2
586.474,1292.8
587.008,1316.2
587.543,1343.1
588.077,1360.6
588.611,1379.1
589.145,1400.2
589.679,1421.8
590.213,1442.8
590.747,1464.7
591.28,1483.0
591.814,1492.8
592.347,1506.0
592.881,1508.6
593.414,1507.9
593.947,1522.6
594.48,1523.9
595.014,1533.5
595.547,1540.6
596.079,1537.1
596.612,1553.2
597.145,1569.7
597.678,1576.7
598.21,1587.7
598.743,1596.2
599.275,1606.5
599.807,1615.2
600.34,1600.9
600.872,1604.4
601.404,1607.0
601.936,1584.3
602.468,1573.6
603.0,1558.7
603.532,1544.3
604.063,1521.5
604.595,1485.2
605.126,1454.1
605.658,1430.0
606.189,1398.5
606.721,1376.3
607.252,1355.8
607.783,1333.2
608.314,1324.8
608.845,1306.9
609.376,1289.7
609.907,1276.2
610.438,1259.7
610.968,1251.8
611.499,1239.5
612.03,1228.4
612.56,1221.5
613.091,1216.1
613.621,1213.5
614.151,1200.8
614.681,1202.0
615.212,1183.8
615.742,1178.8
616.272,1161.5
616.802,1163.1
617.332,1159.9
617.861,1160.8
618.391,1144.9
618.921,1149.4
619.45,1142.3
619.98,1144.3
620.509,1136.4
621.039,1143.2
621.568,1141.0
622.097,1170.3
622.627,1176.4
623.156,1142.1
623.685,1127.6
624.214,1129.6
624.743,1133.5
625.272,1135.0
625.801,1143.9
626.33,1168.3
626.858,1386.6
627.387,1920.0
627.916,1599.3
628.444,1822.6
628.973,1726.2
629.501,1593.3
630.029,1468.1
630.558,1448.2
631.086,1301.5
631.614,1209.1
632.142,1181.3
632.67,1161.4
633.198,1171.4
633.726,1161.8
634.254,1162.9
634.782,1168.0
635.31,1173.4
635.838,1171.8
636.365,1171.6
636.893,1176.8
637.421,1187.2
637.948,1184.3
638.476,1175.2
639.003,1196.6
639.531,1195.1
640.058,1196.6
640.585,1199.2
641.113,1213.9
641.64,1205.9
642.167,1216.4
642.694,1221.8
643.221,1217.0
643.748,1218.3
644.275,1224.1
644.802,1218.4
645.329,1222.4
645.856,1218.4
646.382,1216.9
646.909,1224.8
647.436,1220.3
647.962,1221.0
648.489,1215.5
649.016,1207.6
649.542,1204.6
650.069,1211.4
650.595,1199.9
651.121,1202.5
651.648,1204.8
652.174,1200.8
652.7,1202.8
653.227,1204.1
653.753,1200.4
654.279,1192.2
654.805,1189.8
655.331,1185.5
655.857,1181.9
656.383,1178.4
656.909,1173.5
657.435,1174.5
657.961,1165.4
658.487,1156.2
659.013,1145.1
659.538,1128.7
660.064,1126.2
660.59,1110.6
661.116,1103.8
661.641,1089.6
662.167,1080.0
662.692,1070.1
663.087,1061.3

File: VLFR_01-LDPE_bio_Raman_771e705e.csv
nm,Intensity
528.637,1834.2
529.143,1833.9
529.648,1834.5
530.153,1833.2
530.659,1834.7
531.164,1841.1
531.669,1921.7
532.174,5748.4
532.679,1836.6
533.184,1836.3
533.689,2222.6
534.194,2989.2
534.699,2834.4
535.203,2643.9
535.708,2432.8
536.213,2301.5
536.717,2270.2
537.222,2266.8
537.726,2252.6
538.231,2213.5
538.735,2147.0
539.24,2111.6
539.744,2080.4
540.248,2069.5
540.752,2054.0
541.256,2040.0
541.761,2041.3
542.265,2047.9
542.769,2028.7
543.272,2018.2
543.776,2029.3
544.28,2017.1
544.784,2001.7
545.288,2000.0
545.791,1996.7
546.295,1983.2
546.798,1989.1
547.302,1990.1
547.805,1985.1
548.308,1974.3
548.812,1959.2
549.315,1962.5
549.818,1961.3
550.321,1959.4
550.824,1959.6
551.327,1956.6
551.83,1967.5
552.333,1964.9
552.836,1980.3
553.339,2054.3
553.842,2048.7
554.344,2063.6
554.847,2084.1
555.349,2090.6
555.852,2125.0
556.354,2155.6
556.857,2203.4
557.359,2259.1
557.861,2316.4
558.363,2342.5
558.866,2309.4
559.368,2224.3
559.87,2194.4
560.372,2177.1
560.873,2173.7
561.375,2177.8
561.877,2202.9
562.379,2259.4
562.88,2332.7
563.382,2465.1
563.883,3886.7
564.385,2958.2
564.886,2770.3
565.388,2552.1
565.889,3389.6
566.39,3187.2
566.891,2438.4
567.392,2565.3
567.893,2318.3
568.394,2317.5
568.895,2309.4
569.396,2331.2
569.897,2367.2
570.398,2450.1
570.898,2659.4
571.399,4970.6
571.899,3454.6
572.4,2783.9
572.9,2526.1
573.4,2540.5
573.901,2754.0
574.401,2488.0
574.901,2497.5
575.401,3409.6
575.901,4022.7
576.401,5403.5
576.901,4685.0
577.401,3575.6
577.9,2948.1
578.4,2871.8
578.9,2925.9
579.399,2912.0
579.899,3041.3
580.398,3078.5
580.897,3151.3
581.397,3152.6
581.896,3205.0
582.395,3226.9
582.894,3293.0
583.393,3326.1
583.892,3332.7
584.391,3410.3
584.889,3475.0
585.388,3402.7
585.887,3478.8
586.385,3516.5
586.884,3532.6
587.382,3538.8
587.881,3671.3
588.379,3688.9
588.877,3719.0
589.375,3752.7
589.874,3757.1
590.372,3828.1
590.87,3873.1
591.367,3936.0
591.865,3882.0
592.363,3900.6
592.861,3921.0
593.358,3922.2
593.856,3925.8
594.353,3885.9
594.851,3933.9
595.348,3931.4
595.845,3968.2
596.342,3932.9
596.84,4027.2
597.337,4077.8
597.833,4078.7
598.33,4122.7
598.827,4182.0
599.324,4189.9
599.821,4243.6
600.317,4187.4
600.814,4284.4
601.31,4265.6
601.807,4224.2
602.303,4274.1
602.799,4113.4
603.295,4060.4
603.791,4073.0
604.287,3956.1
604.783,3863.4
605.279,3744.9
605.775,3793.7
606.271,3682.6
606.766,3681.4
607.262,3576.8
607.757,3505.8
608.253,3533.6
608.748,3408.4
609.243,3369.6
609.738,3330.9
610.233,3367.0
610.729,3328.9
611.223,3360.1
611.718,3287.6
612.213,3208.4
612.708,3185.3
613.202,3134.7
613.697,3163.4
614.192,3153.5
614.686,3132.2
615.18,3094.6
615.675,3099.9
616.169,3101.2
616.663,3119.8
617.157,3196.0
617.651,3200.0
618.145,3158.9
618.638,3153.6
619.132,3192.6
619.626,3286.4
620.119,3238.5
620.613,3289.4
621.106,3369.4
621.599,3698.8
622.093,4184.0
622.586,3925.4
623.079,3394.5
623.572,3226.9
624.065,3186.8
624.558,3209.9
625.05,3252.9
625.543,3411.2
626.036,3769.5
626.528,5894.0
627.02,17374.6
627.513,16280.8
628.005,13460.8
628.497,20971.8
628.989,14338.6
629.481,11507.6
629.973,9958.0
630.465,8947.5
630.957,6269.9
631.449,4383.2
631.94,3850.6
632.432,3430.8
632.923,3292.7
633.414,3211.5
633.906,3150.8
634.397,3122.8
634.888,3029.9
635.379,2996.6
635.87,3026.4
636.361,3004.2
636.852,2925.9
637.342,2915.9
637.833,2918.0
638.323,2874.9
638.814,2897.0
639.304,2895.7
639.794,2849.2
640.285,2853.8
640.775,2834.5
641.265,2861.9
641.755,2839.8
642.244,2861.6
642.734,2832.4
643.224,2799.1
643.713,2885.2
644.203,2833.5
644.692,2855.5
645.181,2850.3
645.671,2828.3
646.16,2826.8
646.649,2826.5
647.138,2801.6
647.627,2836.0
648.115,2773.5
648.604,2800.6
649.093,2754.2
649.581,2793.3
650.07,2739.7
650.558,2771.9
651.046,2722.0
651.534,2740.2
652.023,2725.8
652.511,2691.0
652.998,2691.1
653.486,2631.4
653.974,2696.6
654.462,2621.8
654.949,2661.6
655.437,2662.6
655.924,2614.2
656.411,2603.2
656.898,2578.5
657.385,2579.4
657.872,2533.8
658.359,2539.1
658.846,2511.6
659.333,2490.1
659.82,2469.7
660.306,2494.5
660.793,2409.3
661.036,2424.5

File: VLFR_01-LDPE_bio_Raman_0773a4ce.csv
nm,Intensity
526.508,829.6
527.055,830.2
527.602,829.5
528.149,830.8
528.695,830.8
529.241,828.7
529.787,829.1
530.334,829.4
530.879,828.2
531.425,829.3
531.971,834.9
532.516,831.5
533.062,829.5
533.607,829.6
534.152,891.0
534.697,885.9
535.242,872.0
535.786,861.9
536.331,856.5
536.876,854.4
537.42,855.9
537.964,852.8
538.508,849.7
539.052,851.0
539.596,846.6
540.14,848.8
540.683,844.6
541.227,846.0
541.77,845.3
542.313,842.5
542.856,841.5
543.399,845.9
543.942,842.5
544.485,841.7
545.027,842.8
545.57,842.7
546.112,842.9
546.654,843.1
547.196,842.7
547.738,843.1
548.28,843.0
548.822,840.7
549.363,842.0
549.905,842.4
550.446,841.7
550.988,842.7
551.529,843.5
552.07,841.5
552.611,841.9
553.152,844.9
553.692,846.1
554.233,846.2
554.773,848.1
555.314,846.5
555.854,849.5
556.394,848.8
556.934,850.5
557.474,855.5
558.014,854.2
558.553,851.0
559.093,851.4
559.632,853.1
560.172,851.1
560.711,853.6
561.25,853.9
561.789,857.2
562.328,858.1
562.867,857.9
563.406,863.3
563.944,899.8
564.483,878.1
565.021,875.6
565.559,870.2
566.098,909.7
566.636,874.4
567.174,871.7
567.711,873.2
568.249,868.5
568.787,874.1
569.324,872.7
569.862,878.3
570.399,879.1
570.936,889.5
571.474,956.7
572.011,911.0
572.548,903.5
573.084,898.5
573.621,903.1
574.158,912.1
574.694,913.6
575.231,919.2
575.767,953.1
576.303,1034.9
576.84,1010.5
577.376,993.4
577.912,986.8
578.447,989.9
578.983,1003.7
579.519,1019.7
580.054,1036.9
580.59,1045.0
581.125,1069.1
581.661,1078.8
582.196,1086.5
582.731,1104.9
583.266,1108.8
583.801,1119.2
584.336,1127.6
584.87,1135.8
585.405,1147.1
585.94,1150.2
586.474,1166.7
587.008,1175.1
587.543,1194.5
588.077,1214.2
588.611,1230.3
589.145,1232.9
589.679,1256.8
590.213,1278.0
590.747,1295.5
591.28,1323.9
591.814,1335.9
592.347,1338.9
592.881,1355.2
593.414,1356.7
593.947,1370.5
594.48,1377.1
595.014,1396.8
595.547,1402.7
596.079,1426.0
596.612,1439.6
597.145,1458.1
597.678,1466.0
598.21,1499.4
598.743,1504.4
599.275,1531.7
599.807,1531.6
600.34,1544.7
600.872,1528.4
601.404,1519.5
601.936,1519.1
602.468,1509.0
603.0,1491.4
603.532,1474.4
604.063,1449.7
604.595,1413.6
605.126,1398.6
605.658,1368.6
606.189,1343.3
606.721,1320.6
607.252,1295.4
607.783,1277.3
608.314,1262.7
608.845,1251.8
609.376,1242.8
609.907,1225.2
610.438,1211.6
610.968,1206.9
611.499,1192.3
612.03,1180.0
612.56,1177.7
613.091,1175.0
613.621,1163.8
614.151,1171.9
614.681,1152.0
615.212,1143.1
615.742,1134.5
616.272,1125.1
616.802,1123.5
617.332,1120.4
617.861,1118.2
618.391,1121.7
618.921,1113.5
619.45,1106.0
619.98,1103.5
620.509,1101.5
621.039,1097.9
621.568,1100.1
622.097,1130.7
622.627,1123.7
623.156,1090.9
623.685,1091.0
624.214,1083.9
624.743,1079.6
625.272,1089.6
625.801,1088.8
626.33,1111.4
626.858,1312.8
627.387,1705.4
627.916,1453.2
628.444,1637.5
628.973,1486.0
629.501,1398.8
630.029,1313.7
630.558,1288.9
631.086,1191.5
631.614,1125.5
632.142,1104.1
632.67,1095.7
633.198,1094.1
633.726,1092.9
634.254,1086.6
634.782,1090.4
635.31,1090.3
635.838,1098.6
636.365,1093.4
636.893,1099.3
637.421,1091.9
637.948,1099.7
638.476,1099.9
639.003,1099.0
639.531,1110.4
640.058,1115.5
640.585,1111.8
641.113,1120.6
641.64,1125.9
642.167,1132.7
642.694,1135.6
643.221,1142.0
643.748,1137.6
644.275,1141.5
644.802,1145.5
645.329,1150.1
645.856,1147.9
646.382,1153.8
646.909,1153.8
647.436,1150.2
647.962,1154.8
648.489,1156.4
649.016,1156.3
649.542,1154.9
650.069,1157.2
650.595,1152.2
651.121,1156.1
651.648,1161.0
652.174,1162.4
652.7,1157.8
653.227,1159.4
653.753,1164.9
654.279,1157.4
654.805,1157.2
655.331,1152.1
655.857,1146.5
656.383,1144.6
656.909,1138.8
657.435,1142.2
657.961,1131.2
658.487,1119.8
659.013,1113.8
659.538,1108.3
660.064,1102.4
660.59,1086.9
661.116,1079.3
661.641,1061.5
662.167,1057.3
662.692,1051.5
663.087,1045.1

File: VLFR_01-LDPE_bio_Raman_821a6d32.csv
nm,Intensity
526.547,832.55
527.095,831.95
527.642,831.85
528.189,832.05
528.736,833.55
529.283,831.8
529.829,831.9
530.376,831.25
530.922,831.75
531.468,833.1
532.014,839.7
532.56,833.15
533.106,832.7
533.651,833.4
534.196,942.35
534.742,923.5
535.287,906.5
535.832,883.6
536.376,878.05
536.921,874.7
537.465,871.75
538.01,872.15
538.554,866.25
539.098,862.85
539.642,859.5
540.186,858.9
540.729,857.95
541.273,854.65
541.816,854.9
542.36,854.25
542.903,854.85
543.446,853.4
543.988,853.9
544.531,852.45
545.074,852.65
545.616,851.5
546.158,851.7
546.701,851.7
547.243,851.85
547.785,851.3
548.326,851.25
548.868,850.6
549.41,851.2
549.951,849.65
550.492,850.3
551.034,850.85
551.575,851.05
552.116,853.05
552.656,852.6
553.197,854.6
553.738,856.3
554.278,856.9
554.819,858.6
555.359,860.8
555.899,861.95
556.439,863.85
556.979,865.05
557.519,869.6
558.058,874.35
558.598,874.4
559.137,872.9
559.677,871.0
560.216,871.25
560.755,869.65
561.294,872.0
561.833,874.2
562.371,876.85
562.91,885.05
563.449,889.0
563.987,984.45
564.525,916.55
565.064,908.35
565.602,901.05
566.14,991.95
566.678,911.1
567.216,901.35
567.753,904.7
568.291,900.25
568.828,905.95
569.366,910.1
569.903,914.15
570.44,924.75
570.977,935.8
571.514,1101.45
572.051,985.1
572.588,959.75
573.125,955.5
573.661,968.4
574.198,986.8
574.734,988.2
575.271,1006.0
575.807,1072.55
576.343,1240.5
576.879,1175.15
577.415,1140.05
577.951,1115.85
578.486,1137.3
579.022,1162.35
579.557,1198.8
580.093,1221.95
580.628,1251.2
581.164,1276.3
581.699,1300.35
582.234,1330.75
582.769,1354.95
583.304,1386.9
583.838,1396.5
584.373,1414.8
584.908,1427.8
585.442,1447.9
585.977,1459.2
586.511,1486.35
587.045,1503.9
587.58,1523.1
588.114,1540.75
588.648,1556.6
589.182,1574.05
589.715,1602.45
590.249,1621.35
590.783,1637.9
591.316,1661.85
591.85,1664.55
592.383,1670.3
592.917,1687.2
593.45,1684.2
593.983,1690.95
594.516,1697.85
595.049,1721.4
595.582,1728.05
596.115,1753.9
596.648,1754.6
597.18,1779.95
597.713,1793.35
598.245,1824.9
598.778,1845.8
599.31,1853.5
599.842,1867.65
600.375,1862.6
600.907,1866.5
601.439,1850.1
601.971,1842.8
602.503,1824.7
603.034,1802.95
603.566,1777.8
604.098,1739.0
604.629,1695.15
605.161,1660.2
605.692,1617.2
606.224,1577.35
606.755,1535.1
607.286,1514.45
607.817,1487.8
608.348,1471.4
608.879,1450.4
609.41,1425.2
609.941,1400.45
610.472,1384.75
611.002,1374.7
611.533,1360.7
612.063,1349.7
612.594,1336.75
613.124,1335.35
613.655,1322.3
614.185,1311.85
614.715,1300.45
615.245,1292.6
615.775,1277.0
616.305,1267.85
616.835,1254.25
617.365,1262.5
617.895,1252.25
618.425,1255.4
618.954,1239.85
619.484,1241.9
620.013,1236.4
620.543,1237.05
621.072,1239.45
621.602,1255.95
622.131,1281.9
622.66,1275.75
623.189,1237.7
623.718,1229.05
624.247,1231.4
624.776,1232.0
625.305,1240.7
625.834,1253.1
626.363,1287.55
626.891,1670.15
627.42,2208.55
627.949,1830.6
628.477,2218.3
629.006,1893.7
629.534,1755.0
630.062,1619.8
630.591,1590.75
631.119,1415.45
631.647,1326.5
632.175,1300.15
632.703,1286.1
633.231,1286.8
633.759,1284.85
634.287,1283.65
634.815,1286.25
635.343,1279.85
635.871,1285.15
636.398,1291.1
636.926,1284.9
637.454,1282.55
637.981,1289.2
638.509,1283.95
639.036,1283.0
639.564,1292.05
640.091,1293.75
640.618,1301.95
641.146,1293.85
641.673,1302.1
642.2,1309.0
642.727,1306.65
643.254,1295.6
643.781,1297.45
644.308,1298.7
644.835,1301.3
645.362,1297.85
645.889,1301.75
646.416,1297.75
646.942,1302.05
647.469,1308.15
647.996,1298.85
648.522,1300.25
649.049,1293.7
649.576,1292.4
650.102,1295.25
650.629,1291.2
651.155,1298.2
651.682,1301.1
652.208,1303.2
652.734,1306.9
653.261,1301.5
653.787,1309.1
654.313,1301.9
654.839,1302.35
655.365,1296.15
655.892,1289.55
656.418,1279.55
656.944,1276.75
657.47,1265.6
657.996,1259.65
658.522,1252.65
659.048,1235.65
659.574,1221.8
660.099,1210.6
660.625,1195.65
661.151,1180.45
661.677,1165.85
662.203,1150.2
662.728,1137.7
663.123,1132.6

File: VLFR_01-LDPE_bio_Raman_862ce177.csv
nm,Intensity
526.495,828.8
527.042,828.7
527.589,828.8
528.136,829.9
528.682,830.7
529.229,829.7
529.775,829.6
530.321,829.2
530.867,830.5
531.413,829.9
531.959,828.9
532.505,830.2
533.051,827.8
533.596,830.1
534.141,894.0
534.687,886.0
535.232,875.5
535.777,865.6
536.321,861.0
536.866,857.6
537.41,857.9
537.955,858.0
538.499,852.6
539.043,853.6
539.587,851.5
540.131,852.6
540.675,848.7
541.219,849.3
541.762,848.7
542.305,847.7
542.849,847.6
543.392,849.9
543.935,850.3
544.478,849.6
545.02,848.8
545.563,851.1
546.106,848.0
546.648,851.2
547.19,849.8
547.732,848.3
548.274,851.2
548.816,850.4
549.358,848.7
549.9,849.9
550.441,849.0
550.983,848.7
551.524,852.3
552.065,850.6
552.606,851.7
553.147,851.2
553.688,852.2
554.229,854.3
554.769,856.5
555.31,852.6
555.85,856.3
556.391,858.3
556.931,859.8
557.471,859.8
558.011,864.0
558.551,862.6
559.09,863.4
559.63,861.6
560.169,858.0
560.709,859.5
561.248,863.0
561.787,863.0
562.326,865.0
562.865,868.6
563.404,872.7
563.943,949.6
564.481,890.6
565.02,881.3
565.558,884.7
566.096,1005.6
566.634,885.9
567.172,876.4
567.71,876.1
568.248,873.8
568.786,876.4
569.324,876.3
569.861,880.8
570.399,883.6
570.936,894.3
571.473,1029.7
572.01,911.0
572.547,893.7
573.084,894.0
573.621,894.2
574.158,907.4
574.694,900.2
575.231,909.7
575.767,970.8
576.303,1024.9
576.84,985.0
577.376,962.1
577.912,937.4
578.448,940.6
578.984,946.9
579.519,953.5
580.055,958.0
580.59,965.6
581.126,974.6
581.661,978.9
582.196,986.7
582.731,996.5
583.267,999.6
583.801,1004.9
584.336,1011.1
584.871,1011.7
585.406,1016.3
585.94,1020.8
586.475,1022.7
587.009,1031.0
587.543,1033.7
588.078,1035.8
588.612,1035.1
589.146,1046.9
589.68,1046.0
590.214,1052.7
590.747,1052.6
591.281,1053.6
591.815,1072.0
592.348,1063.5
592.881,1071.2
593.415,1061.3
593.948,1061.4
594.481,1069.7
595.014,1072.0
595.547,1072.7
596.08,1069.5
596.613,1070.9
597.146,1076.9
597.678,1070.2
598.211,1076.7
598.743,1079.3
599.276,1077.1
599.808,1081.2
600.34,1077.4
600.872,1071.8
601.404,1072.8
601.936,1077.7
602.468,1076.3
603.0,1064.0
603.532,1065.5
604.064,1055.7
604.595,1054.0
605.127,1047.9
605.658,1039.4
606.189,1027.3
606.721,1026.2
607.252,1018.5
607.783,1020.6
608.314,1011.5
608.845,1013.5
609.376,1009.6
609.907,1007.5
610.438,1001.2
610.968,996.5
611.499,997.1
612.029,988.1
612.56,989.5
613.09,987.7
613.621,985.1
614.151,982.1
614.681,980.4
615.211,974.7
615.741,974.6
616.271,968.4
616.801,970.2
617.331,973.6
617.861,973.0
618.39,966.5
618.92,966.5
619.45,971.5
619.979,968.4
620.509,965.9
621.038,966.0
621.567,976.3
622.096,996.2
622.626,987.0
623.155,968.0
623.684,963.7
624.213,963.2
624.742,961.8
625.271,961.1
625.799,964.6
626.328,987.0
626.857,1177.0
627.386,1539.1
627.914,1279.3
628.443,1461.5
628.971,1378.9
629.5,1268.7
630.028,1170.0
630.556,1146.7
631.084,1040.7
631.613,982.9
632.141,964.2
632.669,964.5
633.197,959.3
633.725,954.8
634.253,952.2
634.781,947.1
635.308,953.5
635.836,950.3
636.364,948.5
636.891,951.4
637.419,943.9
637.947,944.6
638.474,949.8
639.002,943.8
639.529,944.6
640.056,942.5
640.584,945.1
641.111,940.7
641.638,941.2
642.165,942.7
642.692,944.5
643.219,941.0
643.746,940.7
644.273,936.7
644.8,941.1
645.327,937.0
645.854,937.4
646.381,942.5
646.908,941.1
647.434,939.6
647.961,935.9
648.488,937.9
649.014,937.5
649.541,935.3
650.067,934.2
650.594,934.4
651.12,934.6
651.646,933.4
652.173,929.5
652.699,929.0
653.225,928.1
653.752,931.2
654.278,930.3
654.804,928.9
655.33,928.5
655.856,922.4
656.382,923.5
656.908,922.4
657.434,921.0
657.96,924.1
658.486,918.5
659.012,919.7
659.538,914.5
660.064,919.6
660.589,911.6
661.115,914.1
661.641,909.2
662.166,908.0
662.692,905.5
663.086,904.1

File: VLFR_01-LDPE_bio_Raman_5457e528.csv
nm,Intensity
528.635,1834.3
529.14,1836.5
529.645,1832.6
530.151,1834.3
530.656,1836.1
531.161,1839.3
531.666,1871.2
532.171,4151.7
532.676,1837.4
533.181,1836.8
533.686,2061.8
534.191,2589.8
534.696,2520.6
535.201,2489.1
535.705,2363.9
536.21,2306.7
536.715,2309.4
537.219,2311.7
537.724,2302.7
538.228,2272.2
538.733,2270.9
539.237,2248.0
539.741,2229.3
540.246,2217.2
540.75,2222.8
541.254,2224.8
541.758,2211.4
542.262,2225.3
542.766,2237.7
543.27,2249.0
543.774,2239.4
544.278,2243.2
544.781,2265.9
545.285,2259.9
545.789,2250.6
546.292,2250.3
546.796,2249.9
547.299,2255.0
547.803,2238.4
548.306,2236.1
548.809,2256.4
549.313,2226.4
549.816,2228.4
550.319,2227.7
550.822,2244.9
551.325,2268.2
551.828,2259.6
552.331,2263.4
552.834,2274.6
553.337,2296.1
553.839,2299.7
554.342,2333.8
554.845,2329.2
555.347,2341.4
555.85,2337.9
556.352,2361.6
556.854,2381.1
557.357,2383.5
557.859,2432.2
558.361,2458.1
558.863,2429.4
559.365,2385.1
559.867,2400.9
560.369,2387.8
560.871,2390.0
561.373,2389.5
561.875,2405.3
562.377,2431.4
562.878,2473.2
563.38,2518.4
563.881,3118.0
564.383,2756.1
564.884,2643.4
565.386,2564.5
565.887,2913.4
566.388,2859.4
566.889,2522.5
567.391,2566.5
567.892,2469.9
568.393,2431.3
568.893,2454.9
569.394,2457.8
569.895,2456.3
570.396,2496.6
570.897,2601.5
571.397,3543.2
571.898,2966.2
572.398,2647.2
572.899,2541.5
573.399,2546.2
573.899,2611.9
574.399,2495.8
574.9,2519.3
575.4,2818.3
575.9,3182.6
576.4,3895.1
576.899,3529.9
577.399,2982.4
577.899,2682.6
578.399,2662.8
578.898,2658.4
579.398,2690.3
579.897,2690.2
580.397,2696.3
580.896,2751.0
581.396,2715.4
581.895,2748.3
582.394,2773.2
582.893,2795.7
583.392,2763.8
583.891,2831.2
584.39,2850.0
584.889,2850.4
585.387,2861.3
585.886,2947.3
586.385,2931.7
586.883,2952.8
587.382,2977.3
587.88,2995.0
588.379,3032.4
588.877,3024.4
589.375,3009.9
589.873,3050.1
590.371,3077.3
590.869,3074.7
591.367,3124.2
591.865,3120.1
592.363,3056.8
592.86,3079.3
593.358,3103.9
593.856,3107.5
594.353,3111.7
594.851,3102.8
595.348,3108.4
595.845,3109.0
596.342,3126.5
596.84,3140.2
597.337,3149.1
597.834,3177.6
598.331,3157.5
598.827,3203.5
599.324,3184.2
599.821,3191.4
600.318,3157.5
600.814,3168.2
601.311,3170.8
601.807,3173.7
602.303,3156.8
602.8,3115.0
603.296,3099.7
603.792,3070.8
604.288,3021.1
604.784,2958.8
605.28,2918.9
605.776,2915.7
606.272,2916.2
606.767,2865.3
607.263,2869.0
607.758,2805.9
608.254,2807.8
608.749,2735.0
609.244,2754.6
609.74,2735.1
610.235,2741.7
610.73,2728.3
611.225,2706.5
611.72,2689.7
612.215,2644.6
612.709,2619.9
613.204,2626.8
613.699,2614.0
614.193,2593.8
614.688,2604.4
615.182,2589.8
615.676,2590.8
616.171,2585.0
616.665,2605.3
617.159,2623.9
617.653,2631.1
618.147,2606.8
618.641,2609.2
619.134,2637.3
619.628,2656.1
620.122,2625.0
620.615,2655.6
621.109,2697.9
621.602,2812.6
622.095,3002.1
622.588,2901.4
623.082,2684.5
623.575,2617.9
624.068,2590.6
624.56,2630.0
625.053,2629.2
625.546,2664.2
626.039,2859.3
626.531,3711.0
627.024,8322.4
627.516,8092.6
628.008,6852.6
628.501,10299.1
628.993,7379.7
629.485,6293.7
629.977,5201.5
630.469,5054.6
630.961,3877.8
631.452,3067.3
631.944,2840.0
632.436,2702.2
632.927,2645.2
633.418,2590.3
633.91,2542.4
634.401,2502.7
634.892,2495.8
635.383,2469.9
635.874,2468.7
636.365,2462.2
636.856,2425.0
637.347,2421.3
637.837,2406.8
638.328,2409.0
638.818,2397.1
639.309,2379.7
639.799,2399.6
640.289,2374.1
640.78,2379.5
641.27,2381.1
641.76,2358.3
642.249,2356.5
642.739,2335.7
643.229,2346.6
643.719,2341.2
644.208,2382.2
644.698,2347.8
645.187,2340.6
645.676,2351.1
646.165,2324.3
646.655,2336.6
647.144,2314.8
647.633,2312.2
648.121,2306.4
648.61,2312.7
649.099,2310.3
649.587,2273.0
650.076,2277.8
650.564,2272.3
651.053,2261.1
651.541,2283.4
652.029,2249.3
652.517,2244.5
653.005,2242.0
653.493,2223.5
653.981,2220.6
654.468,2229.8
654.956,2223.8
655.444,2204.8
655.931,2197.2
656.418,2211.1
656.906,2200.0
657.393,2182.3
657.88,2150.7
658.367,2165.5
658.854,2162.2
659.341,2146.4
659.827,2137.3
660.314,2124.2
660.8,2138.3
661.044,2118.1