Folder: MPX_specDB/spectra (part 49)

File: VLFR_02-HDPE_bio_Raman_ce26a838.csv
nm,Intensity
526.494,834.4
527.041,834.6
527.588,834.4
528.135,833.1
528.682,834.0
529.229,835.9
529.775,834.0
530.321,835.4
530.868,835.2
531.414,833.3
531.96,845.2
532.506,836.5
533.051,834.6
533.597,835.8
534.142,912.3
534.687,915.6
535.232,912.0
535.777,880.7
536.322,872.0
536.867,867.3
537.411,865.1
537.956,866.0
538.5,864.3
539.044,862.5
539.588,858.3
540.132,857.7
540.676,859.5
541.22,855.1
541.763,858.9
542.306,856.3
542.85,858.2
543.393,858.0
543.936,856.8
544.479,855.6
545.021,856.6
545.564,855.4
546.106,857.6
546.649,855.9
547.191,857.6
547.733,856.5
548.275,855.1
548.817,856.3
549.359,855.7
549.9,857.3
550.442,855.2
550.983,856.2
551.524,857.4
552.066,857.0
552.607,857.5
553.148,859.0
553.688,860.6
554.229,859.5
554.77,860.7
555.31,860.5
555.85,863.0
556.39,861.7
556.931,862.8
557.471,866.1
558.01,863.8
558.55,865.9
559.09,864.9
559.629,865.5
560.169,865.1
560.708,864.5
561.247,865.2
561.786,866.8
562.325,865.4
562.864,869.7
563.403,871.2
563.941,960.2
564.48,885.5
565.018,881.5
565.557,875.9
566.095,924.9
566.633,878.3
567.171,875.3
567.709,882.3
568.247,869.9
568.784,869.5
569.322,868.8
569.859,872.3
570.397,874.0
570.934,881.6
571.471,1009.3
572.008,898.2
572.545,880.4
573.082,876.8
573.619,877.3
574.155,880.1
574.692,870.3
575.228,874.3
575.765,912.8
576.301,1032.3
576.837,961.3
577.373,935.1
577.909,887.1
578.445,880.6
578.981,882.1
579.516,883.9
580.052,878.1
580.587,884.9
581.123,882.8
581.658,884.1
582.193,883.4
582.728,887.1
583.263,891.2
583.798,891.9
584.333,896.3
584.868,898.8
585.402,900.0
585.937,903.9
586.471,913.2
587.005,912.1
587.54,921.1
588.074,923.7
588.608,927.4
589.142,935.4
589.676,939.6
590.21,944.9
590.743,951.3
591.277,954.7
591.81,958.3
592.344,963.4
592.877,962.3
593.411,969.5
593.944,967.2
594.477,966.5
595.01,971.7
595.543,970.3
596.076,969.7
596.608,968.3
597.141,971.4
597.674,962.4
598.206,961.8
598.739,962.0
599.271,957.9
599.803,958.9
600.335,952.5
600.868,955.1
601.4,949.8
601.931,953.1
602.463,951.2
602.995,943.5
603.527,946.6
604.058,947.8
604.59,939.6
605.121,943.1
605.653,937.2
606.184,938.1
606.715,933.2
607.246,937.8
607.778,935.7
608.309,936.1
608.839,935.6
609.37,936.0
609.901,936.0
610.432,935.1
610.962,940.9
611.493,938.9
612.023,940.7
612.554,940.4
613.084,940.6
613.614,940.0
614.145,939.5
614.675,939.2
615.205,940.9
615.735,942.2
616.265,946.4
616.795,944.6
617.324,953.6
617.854,957.2
618.384,956.3
618.913,948.7
619.443,954.4
619.972,956.3
620.502,954.8
621.031,960.2
621.56,980.9
622.089,1020.8
622.618,1013.1
623.147,964.9
623.676,952.5
624.205,949.8
624.734,948.1
625.263,949.6
625.792,957.1
626.32,1003.0
626.849,1402.7
627.377,2010.7
627.906,1570.7
628.434,1982.7
628.963,1481.8
629.491,1360.8
630.019,1216.5
630.547,1183.4
631.076,1053.3
631.604,963.6
632.132,942.2
632.66,939.5
633.188,937.3
633.715,926.2
634.243,924.5
634.771,927.5
635.299,922.7
635.826,919.3
636.354,924.5
636.881,919.4
637.409,918.0
637.936,916.3
638.464,917.3
638.991,916.9
639.518,919.9
640.045,914.5
640.573,919.1
641.1,919.2
641.627,918.0
642.154,921.4
642.681,922.1
643.208,920.9
643.735,919.5
644.261,922.2
644.788,918.4
645.315,916.5
645.842,919.1
646.368,921.4
646.895,917.1
647.421,921.4
647.948,923.2
648.474,919.9
649.001,918.6
649.527,920.8
650.054,917.0
650.58,917.1
651.106,917.6
651.633,917.1
652.159,911.5
652.685,912.8
653.211,908.8
653.737,905.7
654.263,904.5
654.789,908.1
655.315,902.6
655.841,904.1
656.367,898.7
656.893,901.9
657.419,900.4
657.945,902.9
658.47,901.6
658.996,897.9
659.522,900.0
660.047,903.0
660.573,900.9
661.099,895.6
661.624,900.8
662.15,897.3
662.675,896.5
663.07,891.0

File: VLFR_02-HDPE_bio_Raman_ce52ca75.csv
nm,Intensity
526.508,829.7
527.055,830.0
527.602,830.6
528.149,831.0
528.695,831.6
529.241,831.5
529.787,829.8
530.334,830.8
530.879,829.9
531.425,830.9
531.971,834.6
532.516,830.6
533.062,830.2
533.607,831.2
534.152,897.0
534.697,886.9
535.242,874.8
535.786,863.0
536.331,854.1
536.876,853.3
537.42,854.4
537.964,856.5
538.508,852.2
539.052,848.6
539.596,846.6
540.14,844.2
540.683,843.4
541.227,842.6
541.77,842.7
542.313,842.6
542.856,841.4
543.399,842.9
543.942,842.7
544.485,844.2
545.027,841.2
545.57,841.0
546.112,843.2
546.654,842.2
547.196,843.8
547.738,841.7
548.28,842.6
548.822,842.1
549.363,842.7
549.905,843.0
550.446,843.9
550.988,840.7
551.529,843.1
552.07,842.1
552.611,841.1
553.152,844.4
553.692,845.5
554.233,846.6
554.773,846.6
555.314,845.3
555.854,848.3
556.394,850.3
556.934,849.6
557.474,852.8
558.014,852.1
558.553,855.8
559.093,853.4
559.632,851.1
560.172,850.6
560.711,851.2
561.25,851.4
561.789,850.4
562.328,853.4
562.867,854.5
563.406,855.5
563.944,948.4
564.483,879.2
565.021,874.8
565.559,870.9
566.098,1016.6
566.636,872.0
567.174,861.1
567.711,862.5
568.249,855.8
568.787,856.4
569.324,858.0
569.862,860.8
570.399,864.5
570.936,868.6
571.474,1033.5
572.011,892.0
572.548,867.7
573.084,864.2
573.621,865.4
574.158,879.2
574.694,868.0
575.231,882.4
575.767,950.7
576.303,1014.5
576.84,952.5
577.376,928.3
577.912,896.6
578.447,894.2
578.983,895.8
579.519,897.7
580.054,899.4
580.59,906.1
581.125,912.9
581.661,916.3
582.196,924.8
582.731,927.9
583.266,933.4
583.801,934.8
584.336,941.2
584.87,949.6
585.405,953.1
585.94,960.1
586.474,959.6
587.008,969.5
587.543,972.2
588.077,977.4
588.611,981.3
589.145,987.9
589.679,993.5
590.213,999.6
590.747,1006.5
591.28,1011.4
591.814,1016.0
592.347,1018.2
592.881,1014.5
593.414,1012.7
593.947,1018.6
594.48,1017.7
595.014,1025.0
595.547,1021.7
596.079,1021.6
596.612,1020.3
597.145,1028.8
597.678,1023.8
598.21,1028.4
598.743,1030.9
599.275,1028.9
599.807,1035.1
600.34,1028.7
600.872,1031.6
601.404,1031.5
601.936,1032.4
602.468,1026.9
603.0,1020.9
603.532,1015.2
604.063,1015.1
604.595,1011.1
605.126,1000.7
605.658,996.5
606.189,987.9
606.721,982.5
607.252,973.3
607.783,971.9
608.314,968.5
608.845,970.0
609.376,968.3
609.907,959.1
610.438,959.5
610.968,955.7
611.499,955.8
612.03,954.3
612.56,948.7
613.091,946.3
613.621,946.3
614.151,939.0
614.681,940.3
615.212,934.6
615.742,936.6
616.272,937.2
616.802,931.6
617.332,940.0
617.861,933.7
618.391,933.1
618.921,933.4
619.45,932.4
619.98,936.5
620.509,934.9
621.039,937.3
621.568,948.9
622.097,964.3
622.627,958.3
623.156,935.8
623.685,931.6
624.214,921.8
624.743,928.8
625.272,934.2
625.801,937.1
626.33,962.1
626.858,1189.7
627.387,1622.7
627.916,1307.8
628.444,1522.5
628.973,1455.3
629.501,1316.2
630.029,1191.6
630.558,1163.0
631.086,1025.9
631.614,958.9
632.142,940.8
632.67,933.6
633.198,927.1
633.726,923.1
634.254,922.7
634.782,920.4
635.31,918.7
635.838,924.3
636.365,923.2
636.893,920.3
637.421,919.0
637.948,915.2
638.476,922.5
639.003,920.2
639.531,917.2
640.058,918.9
640.585,924.8
641.113,928.3
641.64,920.8
642.167,924.7
642.694,924.6
643.221,921.6
643.748,926.5
644.275,925.9
644.802,924.4
645.329,925.8
645.856,918.7
646.382,923.1
646.909,923.2
647.436,922.7
647.962,921.0
648.489,921.0
649.016,919.7
649.542,919.2
650.069,918.5
650.595,920.7
651.121,919.0
651.648,920.8
652.174,918.5
652.7,915.0
653.227,919.2
653.753,917.0
654.279,916.4
654.805,915.3
655.331,911.1
655.857,912.9
656.383,909.8
656.909,910.6
657.435,906.4
657.961,909.0
658.487,906.3
659.013,907.2
659.538,900.9
660.064,904.5
660.59,900.3
661.116,898.0
661.641,893.6
662.167,894.9
662.692,892.3
663.087,891.3

File: VLFR_02-HDPE_bio_Raman_d1d42456.csv
nm,Intensity
528.626,1861.9
529.132,1861.7
529.637,1861.7
530.143,1865.2
530.648,1864.4
531.153,1866.4
531.658,1887.4
532.164,3217.0
532.669,1864.5
533.174,1863.8
533.679,1972.8
534.184,2299.2
534.689,2256.7
535.194,2221.2
535.699,2127.3
536.203,2096.5
536.708,2086.3
537.213,2076.8
537.717,2078.0
538.222,2070.7
538.726,2047.5
539.231,2034.8
539.735,2034.2
540.239,2027.2
540.744,2030.5
541.248,2017.8
541.752,2030.2
542.256,2020.9
542.76,2021.4
543.264,2024.3
543.768,2029.6
544.272,2030.9
544.776,2026.1
545.28,2019.8
545.784,2026.4
546.287,2030.0
546.791,2039.7
547.294,2030.8
547.798,2023.0
548.301,2033.6
548.805,2036.7
549.308,2019.9
549.811,2031.8
550.315,2031.4
550.818,2029.9
551.321,2032.8
551.824,2040.0
552.327,2042.2
552.83,2040.8
553.333,2067.2
553.835,2069.8
554.338,2072.3
554.841,2077.9
555.343,2087.6
555.846,2088.9
556.349,2092.0
556.851,2100.5
557.353,2122.2
557.856,2135.6
558.358,2137.5
558.86,2136.6
559.362,2128.5
559.864,2130.7
560.366,2114.1
560.868,2129.5
561.37,2139.5
561.872,2144.9
562.374,2182.8
562.876,2182.2
563.377,2198.0
563.879,2797.5
564.38,2413.8
564.882,2334.5
565.383,2267.4
565.885,2593.9
566.386,2686.5
566.887,2244.0
567.388,2351.4
567.889,2225.5
568.391,2208.2
568.892,2212.2
569.392,2247.2
569.893,2261.0
570.394,2301.7
570.895,2348.0
571.395,3314.1
571.896,2628.6
572.397,2420.0
572.897,2342.2
573.397,2362.9
573.898,2458.6
574.398,2390.9
574.898,2403.0
575.398,2842.0
575.898,2929.1
576.398,3582.4
576.898,3241.8
577.398,2873.4
577.898,2687.2
578.398,2686.6
578.897,2708.8
579.397,2757.9
579.896,2827.3
580.396,2884.5
580.895,2926.9
581.395,2990.4
581.894,3057.6
582.393,3108.6
582.892,3172.7
583.391,3255.7
583.89,3300.9
584.389,3383.1
584.888,3481.0
585.387,3511.4
585.886,3645.5
586.384,3703.7
586.883,3825.3
587.381,3893.9
587.88,4054.4
588.378,4198.9
588.876,4208.9
589.375,4357.7
589.873,4426.1
590.371,4537.7
590.869,4627.1
591.367,4743.3
591.865,4727.8
592.363,4878.5
592.86,4830.5
593.358,4876.5
593.856,4903.5
594.353,4894.3
594.851,4963.9
595.348,5042.9
595.845,5138.9
596.342,5166.2
596.84,5103.1
597.337,5167.1
597.834,5057.2
598.331,5167.1
598.828,5283.5
599.324,5310.6
599.821,5328.4
600.318,5360.6
600.814,5408.0
601.311,5384.4
601.807,5292.1
602.304,5243.0
602.8,5171.5
603.296,5139.6
603.792,5046.4
604.288,4942.7
604.784,4851.2
605.28,4778.5
605.776,4597.5
606.272,4595.8
606.767,4515.5
607.263,4353.0
607.759,4285.1
608.254,4247.2
608.749,4159.8
609.245,4045.9
609.74,4008.5
610.235,3988.1
610.73,3990.7
611.225,3913.2
611.72,3780.0
612.215,3840.5
612.71,3751.6
613.204,3683.7
613.699,3706.1
614.194,3589.2
614.688,3549.2
615.182,3539.6
615.677,3507.5
616.171,3441.1
616.665,3467.8
617.159,3397.5
617.653,3459.8
618.147,3437.6
618.641,3371.7
619.135,3390.0
619.628,3344.7
620.122,3356.2
620.615,3312.5
621.109,3339.1
621.602,3450.0
622.095,3636.6
622.589,3582.7
623.082,3278.8
623.575,3191.7
624.068,3152.9
624.561,3176.1
625.053,3186.4
625.546,3203.1
626.039,3355.7
626.531,4111.2
627.024,7879.3
627.516,7781.3
628.008,6397.6
628.501,11191.9
628.993,7452.3
629.485,6115.4
629.977,5306.7
630.469,4879.9
630.96,4027.2
631.452,3358.6
631.944,3129.1
632.435,3148.2
632.927,3071.8
633.418,3071.7
633.91,3088.2
634.401,3013.2
634.892,3023.0
635.383,3000.4
635.874,2994.5
636.365,3032.0
636.856,3011.4
637.346,2990.6
637.837,2995.9
638.327,3062.7
638.818,3025.3
639.308,2988.8
639.799,3013.7
640.289,3049.9
640.779,3017.0
641.269,2971.1
641.759,2991.0
642.249,3037.8
642.738,3041.3
643.228,3030.2
643.718,3028.8
644.207,3035.5
644.697,3063.2
645.186,3043.2
645.675,2976.8
646.164,2996.0
646.653,2990.3
647.142,3015.1
647.631,3004.7
648.12,2967.3
648.609,2973.0
649.098,2925.0
649.586,2949.4
650.075,2895.9
650.563,2908.1
651.051,2979.4
651.539,2938.1
652.027,2830.8
652.515,2861.5
653.003,2839.5
653.491,2867.2
653.979,2824.2
654.467,2811.0
654.954,2812.5
655.442,2784.8
655.929,2792.8
656.416,2717.4
656.904,2700.6
657.391,2716.9
657.878,2643.3
658.365,2665.2
658.851,2619.9
659.338,2553.2
659.825,2560.8
660.311,2567.2
660.798,2530.8
661.041,2526.9

File: VLFR_02-HDPE_bio_Raman_d01e2104.csv
nm,Intensity
528.626,1867.0
529.132,1868.5
529.637,1868.4
530.143,1869.0
530.648,1868.0
531.153,1870.8
531.658,1901.5
532.164,5045.6
532.669,1870.6
533.174,1869.7
533.679,1947.2
534.184,2212.8
534.689,2215.1
535.194,2232.2
535.699,2150.5
536.203,2132.4
536.708,2075.9
537.213,2122.5
537.717,2075.6
538.222,2066.3
538.726,2058.4
539.231,2038.5
539.735,2039.0
540.239,2040.8
540.744,2043.4
541.248,2054.9
541.752,2041.8
542.256,2038.5
542.76,2056.5
543.264,2048.1
543.768,2070.3
544.272,2129.3
544.776,2061.0
545.28,2049.1
545.784,2084.6
546.287,2305.3
546.791,2186.0
547.294,2072.5
547.798,2060.4
548.301,2062.1
548.805,2071.2
549.308,2092.4
549.811,2085.4
550.315,2151.9
550.818,2065.5
551.321,2062.1
551.824,2069.8
552.327,2058.6
552.83,2062.3
553.333,2077.8
553.835,2076.0
554.338,2078.1
554.841,2077.9
555.343,2088.7
555.846,2077.9
556.349,2095.1
556.851,2111.8
557.353,2105.1
557.856,2124.6
558.358,2124.1
558.86,2122.1
559.362,2112.1
559.864,2119.8
560.366,2122.3
560.868,2123.7
561.37,2140.7
561.872,2286.6
562.374,3815.7
562.876,2181.8
563.377,2163.4
563.879,2558.9
564.38,2278.9
564.882,2230.1
565.383,2192.5
565.885,2386.4
566.386,2578.4
566.887,2208.4
567.388,2241.1
567.889,2170.9
568.391,2129.7
568.892,2142.3
569.392,2154.2
569.893,2144.4
570.394,2170.4
570.895,2200.7
571.395,2823.0
571.896,2350.9
572.397,2208.1
572.897,2168.2
573.397,2174.6
573.898,2226.6
574.398,2162.9
574.898,2176.8
575.398,2449.3
575.898,2478.2
576.398,2825.0
576.898,2611.6
577.398,2381.0
577.898,2245.4
578.398,2214.5
578.897,2230.8
579.397,2246.9
579.896,2241.5
580.396,2265.1
580.895,2275.2
581.395,2306.0
581.894,2324.8
582.393,2316.2
582.892,2340.8
583.391,2333.3
583.89,2343.7
584.389,2344.5
584.888,2353.1
585.387,2317.5
585.886,2338.8
586.384,2365.8
586.883,2338.1
587.381,2354.2
587.88,2337.1
588.378,2321.8
588.876,2317.6
589.375,2315.5
589.873,2304.6
590.371,2321.3
590.869,2303.5
591.367,2318.6
591.865,2295.8
592.363,2311.6
592.86,2310.4
593.358,2300.2
593.856,2308.2
594.353,2306.7
594.851,2303.9
595.348,2333.4
595.845,2308.4
596.342,2330.9
596.84,2326.6
597.337,2331.5
597.834,2343.0
598.331,2327.8
598.828,2331.6
599.324,2348.7
599.821,2354.8
600.318,2351.9
600.814,2349.6
601.311,2365.6
601.807,2348.3
602.304,2357.8
602.8,2341.9
603.296,2339.7
603.792,2340.3
604.288,2303.5
604.784,2316.8
605.28,2306.7
605.776,2299.1
606.272,2295.6
606.767,2307.5
607.263,2288.7
607.759,2285.8
608.254,2268.7
608.749,2266.6
609.245,2250.4
609.74,2272.0
610.235,2261.3
610.73,2252.9
611.225,2263.3
611.72,2244.6
612.215,2248.3
612.71,2240.7
613.204,2230.4
613.699,2226.5
614.194,2242.6
614.688,2233.5
615.182,2227.7
615.677,2216.2
616.171,2235.8
616.665,2242.5
617.159,2275.3
617.653,2277.1
618.147,2297.2
618.641,2279.0
619.135,2291.0
619.628,2313.8
620.122,2306.5
620.615,2325.0
621.109,2362.6
621.602,2422.0
622.095,2576.4
622.589,2523.8
623.082,2366.1
623.575,2319.9
624.068,2330.6
624.561,2309.4
625.053,2319.5
625.546,2364.7
626.039,2463.6
626.531,3004.9
627.024,6017.1
627.516,5789.3
628.008,4811.8
628.501,6665.8
628.993,4554.6
629.485,3995.3
629.977,3518.3
630.469,3385.9
630.96,2874.5
631.452,2482.6
631.944,2378.4
632.435,2366.2
632.927,2351.2
633.418,2326.6
633.91,2305.3
634.401,2287.2
634.892,2283.1
635.383,2269.5
635.874,2248.2
636.365,2251.9
636.856,2257.2
637.346,2218.1
637.837,2207.2
638.327,2219.0
638.818,2213.2
639.308,2200.4
639.799,2190.6
640.289,2200.5
640.779,2182.9
641.269,2180.1
641.759,2171.3
642.249,2191.8
642.738,2187.5
643.228,2173.4
643.718,2175.2
644.207,2164.7
644.697,2158.5
645.186,2158.8
645.675,2143.3
646.164,2129.2
646.653,2153.1
647.142,2149.9
647.631,2154.8
648.12,2147.6
648.609,2151.2
649.098,2161.2
649.586,2180.6
650.075,2204.8
650.563,2171.0
651.051,2129.3
651.539,2135.4
652.027,2114.6
652.515,2105.2
653.003,2110.2
653.491,2113.1
653.979,2108.1
654.467,2100.4
654.954,2089.4
655.442,2082.7
655.929,2077.3
656.416,2061.7
656.904,2084.5
657.391,2075.3
657.878,2061.5
658.365,2058.7
658.851,2047.8
659.338,2061.3
659.825,2051.4
660.311,2055.3
660.798,2053.1
661.041,2039.3

File: VLFR_02-HDPE_bio_Raman_d6f1a49e.csv
nm,Intensity
528.65,1856.0
529.155,1856.6
529.66,1856.1
530.165,1857.0
530.67,1856.5
531.175,1858.3
531.68,1883.2
532.185,2928.45
532.69,1858.0
533.194,1856.15
533.699,1925.6
534.204,2114.85
534.708,2110.4
535.213,2102.3
535.717,2077.2
536.222,2050.9
536.726,2035.8
537.231,2060.55
537.735,2041.35
538.239,2036.9
538.743,2023.1
539.247,2019.1
539.751,2003.9
540.255,2007.75
540.759,2008.1
541.263,2015.7
541.767,2016.85
542.271,2006.8
542.775,2018.05
543.279,2011.75
543.782,2030.05
544.286,2065.6
544.789,2021.85
545.293,2025.65
545.796,2037.05
546.3,2147.8
546.803,2079.95
547.306,2037.05
547.81,2026.55
548.313,2040.4
548.816,2040.5
549.319,2043.85
549.822,2052.7
550.325,2071.4
550.828,2047.45
551.331,2041.45
551.834,2053.6
552.337,2047.0
552.839,2050.1
553.342,2055.4
553.844,2061.95
554.347,2057.45
554.849,2068.8
555.352,2066.35
555.854,2068.95
556.357,2074.45
556.859,2075.05
557.361,2081.3
557.863,2089.95
558.365,2106.55
558.867,2089.35
559.369,2103.75
559.871,2101.0
560.373,2087.2
560.875,2101.95
561.377,2123.7
561.878,2197.55
562.38,3068.05
562.881,2149.4
563.383,2145.45
563.884,2474.0
564.386,2231.6
564.887,2198.3
565.388,2167.45
565.89,2393.7
566.391,2447.05
566.892,2170.75
567.393,2192.25
567.894,2144.85
568.395,2143.35
568.896,2145.65
569.396,2144.75
569.897,2157.8
570.398,2174.1
570.898,2196.7
571.399,2721.1
571.9,2341.65
572.4,2217.0
572.9,2178.7
573.401,2202.1
573.901,2226.95
574.401,2196.9
574.901,2206.7
575.401,2491.25
575.901,2478.5
576.401,2741.5
576.901,2581.35
577.401,2413.8
577.901,2303.0
578.4,2307.1
578.9,2341.2
579.399,2346.1
579.899,2354.35
580.398,2362.95
580.898,2388.5
581.397,2406.5
581.896,2407.2
582.395,2426.4
582.895,2453.25
583.394,2465.65
583.893,2472.7
584.391,2493.3
584.89,2497.15
585.389,2512.05
585.888,2517.5
586.386,2543.85
586.885,2553.5
587.384,2596.65
587.882,2624.9
588.38,2656.7
588.879,2673.4
589.377,2683.0
589.875,2713.2
590.373,2778.0
590.871,2823.7
591.369,2827.6
591.867,2859.1
592.365,2883.2
592.863,2913.75
593.361,2953.9
593.858,2950.65
594.356,2992.75
594.853,3002.75
595.351,3093.3
595.848,3103.9
596.345,3155.85
596.843,3170.65
597.34,3249.25
597.837,3247.7
598.334,3305.2
598.831,3364.8
599.328,3360.35
599.824,3414.95
600.321,3430.7
600.818,3461.95
601.314,3446.8
601.811,3453.95
602.307,3452.65
602.804,3425.9
603.3,3452.75
603.796,3439.05
604.293,3386.1
604.789,3341.2
605.285,3329.65
605.781,3300.4
606.277,3311.45
606.772,3277.35
607.268,3229.3
607.764,3219.85
608.259,3202.4
608.755,3189.0
609.25,3168.95
609.746,3156.4
610.241,3157.5
610.736,3116.05
611.231,3129.65
611.727,3127.1
612.222,3092.65
612.716,3076.75
613.211,3059.2
613.706,3021.3
614.201,3058.0
614.695,3043.0
615.19,2992.0
615.684,3031.5
616.179,2983.45
616.673,2973.2
617.168,2991.3
617.662,2944.5
618.156,2941.6
618.65,2958.15
619.144,2948.35
619.638,2949.35
620.131,2911.45
620.625,2914.75
621.119,2910.25
621.612,2950.6
622.106,3053.15
622.599,2998.1
623.093,2884.75
623.586,2825.85
624.079,2811.8
624.572,2835.25
625.065,2797.9
625.558,2819.55
626.051,2903.45
626.544,3351.55
627.037,5781.1
627.529,5462.2
628.022,4691.85
628.514,6530.25
629.007,4811.05
629.499,4241.1
629.991,3886.45
630.483,3690.5
630.976,3171.5
631.468,2840.15
631.959,2715.45
632.451,2701.55
632.943,2651.7
633.435,2633.55
633.926,2613.1
634.418,2578.55
634.909,2603.9
635.401,2588.45
635.892,2595.0
636.383,2565.6
636.874,2539.5
637.365,2551.0
637.856,2538.5
638.347,2538.4
638.838,2541.1
639.329,2541.0
639.819,2551.0
640.31,2560.6
640.8,2523.85
641.291,2540.65
641.781,2528.7
642.271,2554.45
642.761,2548.95
643.251,2525.05
643.741,2566.6
644.231,2570.1
644.721,2582.2
645.211,2534.95
645.7,2540.2
646.19,2531.6
646.679,2555.95
647.169,2558.0
647.658,2535.95
648.147,2539.5
648.636,2528.35
649.125,2548.85
649.614,2579.3
650.103,2599.15
650.592,2557.65
651.08,2555.25
651.569,2534.45
652.058,2533.45
652.546,2532.35
653.034,2532.65
653.523,2521.85
654.011,2486.65
654.499,2483.25
654.987,2461.15
655.475,2474.1
655.963,2457.2
656.45,2464.7
656.938,2455.7
657.425,2451.1
657.913,2420.3
658.4,2380.0
658.888,2399.2
659.375,2370.0
659.862,2387.55
660.349,2353.1
660.836,2354.55
661.079,2311.7

File: VLFR_02-HDPE_bio_Raman_d53ac120.csv
nm,Intensity
526.547,832.55
527.095,832.15
527.642,832.25
528.189,832.05
528.736,831.6
529.283,832.35
529.829,832.1
530.376,831.75
530.922,832.95
531.468,832.2
532.014,843.15
532.56,832.85
533.106,832.55
533.651,834.4
534.196,908.55
534.742,902.65
535.287,896.15
535.832,873.55
536.376,866.1
536.921,864.3
537.465,861.25
538.01,863.65
538.554,861.65
539.098,857.75
539.642,856.45
540.186,853.75
540.729,854.5
541.273,856.35
541.816,854.45
542.36,856.15
542.903,855.6
543.446,855.2
543.988,854.0
544.531,857.0
545.074,856.6
545.616,856.85
546.158,856.9
546.701,858.25
547.243,857.2
547.785,857.75
548.326,857.35
548.868,857.7
549.41,858.85
549.951,857.8
550.492,858.25
551.034,858.25
551.575,858.8
552.116,858.35
552.656,859.25
553.197,860.5
553.738,861.6
554.278,863.25
554.819,861.65
555.359,862.45
555.899,863.55
556.439,863.4
556.979,867.0
557.519,866.0
558.058,867.45
558.598,869.0
559.137,866.7
559.677,864.25
560.216,866.5
560.755,865.3
561.294,865.7
561.833,866.85
562.371,868.5
562.91,869.45
563.449,874.2
563.987,984.65
564.525,893.75
565.064,886.7
565.602,884.3
566.14,1003.85
566.678,882.15
567.216,877.45
567.753,880.05
568.291,872.95
568.828,874.75
569.366,874.55
569.903,878.7
570.44,881.15
570.977,888.4
571.514,1078.05
572.051,907.95
572.588,887.15
573.125,882.35
573.661,884.5
574.198,894.95
574.734,884.15
575.271,896.1
575.807,944.8
576.343,1073.95
576.879,991.95
577.415,954.95
577.951,911.0
578.486,906.25
579.022,907.45
579.557,913.75
580.093,911.65
580.628,917.45
581.164,918.1
581.699,921.6
582.234,928.15
582.769,926.75
583.304,933.45
583.838,936.65
584.373,944.65
584.908,944.95
585.442,953.25
585.977,956.95
586.511,965.2
587.045,969.9
587.58,977.5
588.114,980.1
588.648,988.4
589.182,994.65
589.715,1000.05
590.249,1011.55
590.783,1019.2
591.316,1025.0
591.85,1036.8
592.383,1041.15
592.917,1047.95
593.45,1045.75
593.983,1055.35
594.516,1060.7
595.049,1069.2
595.582,1076.5
596.115,1084.9
596.648,1086.45
597.18,1096.5
597.713,1108.85
598.245,1111.75
598.778,1126.3
599.31,1129.15
599.842,1140.15
600.375,1138.45
600.907,1137.25
601.439,1137.7
601.971,1142.55
602.503,1131.7
603.034,1128.65
603.566,1122.95
604.098,1114.4
604.629,1103.5
605.161,1092.5
605.692,1082.25
606.224,1075.6
606.755,1062.0
607.286,1053.65
607.817,1046.0
608.348,1043.75
608.879,1034.7
609.41,1028.8
609.941,1025.0
610.472,1020.8
611.002,1017.35
611.533,1012.15
612.063,1009.2
612.594,1005.6
613.124,1006.55
613.655,1002.2
614.185,1003.25
614.715,994.25
615.245,996.25
615.775,990.75
616.305,986.7
616.835,991.75
617.365,997.7
617.895,992.0
618.425,991.55
618.954,986.3
619.484,991.5
620.013,986.5
620.543,987.4
621.072,991.7
621.602,1009.4
622.131,1048.85
622.66,1040.15
623.189,992.5
623.718,980.85
624.247,978.45
624.776,976.15
625.305,982.55
625.834,991.55
626.363,1039.35
626.891,1476.35
627.42,2036.85
627.949,1582.1
628.477,2034.25
629.006,1586.1
629.534,1441.05
630.062,1284.9
630.591,1250.6
631.119,1083.8
631.647,999.2
632.175,976.8
632.703,969.1
633.231,965.3
633.759,962.25
634.287,957.8
634.815,953.55
635.343,955.05
635.871,954.05
636.398,954.7
636.926,957.45
637.454,951.8
637.981,955.85
638.509,952.55
639.036,950.9
639.564,954.5
640.091,954.4
640.618,954.95
641.146,957.65
641.673,961.4
642.2,962.1
642.727,962.05
643.254,962.0
643.781,964.4
644.308,963.95
644.835,965.55
645.362,965.4
645.889,968.05
646.416,966.5
646.942,973.95
647.469,971.65
647.996,969.2
648.522,972.35
649.049,972.05
649.576,971.6
650.102,972.5
650.629,973.1
651.155,970.55
651.682,973.65
652.208,979.35
652.734,974.95
653.261,976.85
653.787,977.35
654.313,975.85
654.839,976.05
655.365,973.1
655.892,975.6
656.418,972.35
656.944,973.75
657.47,969.4
657.996,965.45
658.522,964.05
659.048,959.95
659.574,960.15
660.099,955.05
660.625,949.85
661.151,946.2
661.677,940.3
662.203,935.6
662.728,934.6
663.123,932.05