Folder: MPX_specDB/spectra (part 23)

File: VLFR_01-LDPE_nobio_Raman_61ad2f16.csv
nm,Intensity
526.486,829.1
527.033,828.5
527.579,828.9
528.126,828.6
528.672,828.7
529.219,829.9
529.765,828.2
530.311,828.5
530.857,829.3
531.403,828.4
531.948,830.4
532.494,829.1
533.039,829.9
533.585,828.1
534.13,847.1
534.675,845.4
535.22,839.8
535.764,842.2
536.309,840.8
536.854,840.3
537.398,838.6
537.942,840.3
538.486,839.0
539.03,838.7
539.574,837.5
540.118,836.3
540.662,838.6
541.205,837.2
541.749,837.9
542.292,835.5
542.835,837.7
543.378,835.0
543.921,835.7
544.464,836.5
545.006,835.7
545.549,837.5
546.091,836.8
546.634,835.0
547.176,836.5
547.718,837.2
548.26,836.2
548.802,836.0
549.343,837.3
549.885,836.1
550.426,835.8
550.968,835.5
551.509,834.7
552.05,837.1
552.591,836.4
553.132,836.3
553.673,836.7
554.214,837.8
554.754,835.9
555.295,836.7
555.835,837.5
556.375,836.5
556.915,836.4
557.455,839.0
557.995,839.2
558.535,839.4
559.075,837.7
559.614,837.8
560.154,838.4
560.693,838.0
561.232,838.6
561.772,837.1
562.311,838.2
562.85,841.1
563.388,840.3
563.927,848.6
564.466,844.4
565.004,844.5
565.543,843.6
566.081,854.1
566.619,842.2
567.157,842.1
567.695,840.9
568.233,840.2
568.771,843.3
569.309,842.9
569.846,842.7
570.384,842.4
570.921,843.4
571.458,858.0
571.995,850.8
572.532,847.4
573.069,845.2
573.606,845.7
574.143,847.3
574.68,847.6
575.216,847.8
575.753,857.4
576.289,869.1
576.825,861.6
577.361,857.0
577.897,855.7
578.433,851.7
578.969,853.4
579.505,855.6
580.041,856.7
580.576,857.8
581.112,859.0
581.647,859.9
582.183,863.7
582.718,867.6
583.253,871.4
583.788,870.7
584.323,875.4
584.858,874.1
585.392,881.3
585.927,887.7
586.462,891.2
586.996,897.8
587.53,901.8
588.065,904.9
588.599,907.8
589.133,915.3
589.667,919.4
590.201,926.9
590.735,927.3
591.268,930.8
591.802,935.5
592.335,939.9
592.869,940.5
593.402,944.0
593.936,944.6
594.469,945.8
595.002,956.3
595.535,960.3
596.068,966.2
596.601,969.4
597.133,977.9
597.666,978.4
598.199,986.1
598.731,992.9
599.264,994.3
599.796,998.8
600.328,1000.7
600.86,997.3
601.393,1002.0
601.925,1001.5
602.457,999.0
602.988,992.3
603.52,989.4
604.052,980.4
604.583,977.9
605.115,966.5
605.646,955.4
606.178,952.2
606.709,948.8
607.24,944.6
607.771,937.4
608.302,934.0
608.833,928.1
609.364,929.5
609.895,920.6
610.426,918.8
610.957,915.2
611.487,914.1
612.018,908.7
612.548,911.9
613.078,908.6
613.609,906.5
614.139,903.9
614.669,906.0
615.199,901.0
615.729,901.3
616.259,902.1
616.789,893.8
617.319,892.2
617.849,896.2
618.378,895.1
618.908,891.5
619.437,889.6
619.967,888.9
620.496,887.6
621.025,888.4
621.555,886.3
622.084,889.1
622.613,887.9
623.142,882.7
623.671,882.4
624.2,883.0
624.729,880.7
625.258,878.5
625.786,876.7
626.315,881.1
626.844,909.0
627.372,978.3
627.901,938.2
628.429,954.0
628.957,950.6
629.486,937.2
630.014,920.6
630.542,912.7
631.07,896.3
631.598,880.8
632.126,878.8
632.654,875.6
633.182,874.9
633.71,875.0
634.237,874.2
634.765,874.9
635.293,873.0
635.82,875.8
636.348,873.6
636.875,875.5
637.403,876.1
637.93,876.9
638.458,877.2
638.985,877.9
639.512,878.9
640.039,878.5
640.566,879.4
641.093,882.3
641.62,882.2
642.147,882.4
642.674,885.0
643.201,882.9
643.728,887.0
644.255,882.6
644.781,883.2
645.308,882.4
645.835,884.5
646.361,884.1
646.888,885.6
647.414,886.8
647.941,889.5
648.467,888.1
648.993,889.5
649.52,888.0
650.046,889.3
650.572,891.8
651.098,889.7
651.625,891.6
652.151,888.8
652.677,891.5
653.203,892.6
653.729,891.7
654.255,890.5
654.78,890.2
655.306,889.6
655.832,892.1
656.358,885.5
656.884,887.4
657.409,884.4
657.935,883.0
658.461,883.4
658.986,880.7
659.512,879.3
660.037,877.2
660.563,872.3
661.088,874.3
661.614,872.9
662.139,867.4
662.664,868.3
663.058,867.6

File: VLFR_01-LDPE_nobio_Raman_85aaddec.csv
nm,Intensity
526.532,830.0
527.079,830.2
527.625,830.04
528.172,830.28
528.718,830.58
529.265,829.92
529.811,830.12
530.357,830.76
530.903,829.9
531.449,830.04
531.994,837.28
532.54,830.44
533.085,829.92
533.63,831.98
534.176,920.44
534.721,902.74
535.266,886.18
535.81,877.3
536.355,868.84
536.9,866.5
537.444,867.42
537.988,865.74
538.533,863.38
539.077,858.4
539.621,855.56
540.165,855.18
540.708,852.74
541.252,852.46
541.795,851.86
542.339,850.08
542.882,852.02
543.425,851.42
543.968,850.76
544.511,849.52
545.054,849.38
545.597,848.36
546.139,849.28
546.682,847.98
547.224,849.64
547.766,849.1
548.308,848.42
548.85,848.26
549.392,848.38
549.934,847.74
550.475,847.72
551.017,848.2
551.558,847.54
552.1,847.7
552.641,848.24
553.182,850.04
553.723,853.42
554.264,852.12
554.804,853.72
555.345,853.56
555.885,856.1
556.426,857.38
556.966,859.3
557.506,862.42
558.046,867.36
558.586,867.94
559.126,862.9
559.665,860.92
560.205,858.28
560.745,858.8
561.284,860.22
561.823,861.42
562.362,864.22
562.901,867.28
563.44,873.92
563.979,960.76
564.518,898.08
565.056,888.08
565.595,882.94
566.133,1011.06
566.671,885.92
567.21,875.52
567.748,874.72
568.285,870.38
568.823,869.86
569.361,872.08
569.899,875.36
570.436,881.78
570.974,889.78
571.511,1053.66
572.048,925.48
572.585,896.58
573.122,890.18
573.659,893.92
574.196,900.42
574.733,894.16
575.269,905.3
575.806,967.62
576.342,1045.94
576.878,1000.9
577.414,957.02
577.951,927.3
578.486,927.62
579.022,928.46
579.558,935.9
580.094,939.3
580.629,941.74
581.165,946.34
581.7,948.96
582.236,953.28
582.771,957.78
583.306,960.04
583.841,962.32
584.376,965.14
584.911,968.62
585.445,970.22
585.98,973.1
586.514,979.84
587.049,982.22
587.583,985.22
588.117,987.44
588.651,992.78
589.186,996.8
589.72,1000.28
590.253,1003.92
590.787,1007.78
591.321,1011.22
591.854,1012.54
592.388,1014.9
592.921,1017.42
593.455,1018.08
593.988,1018.56
594.521,1022.7
595.054,1024.68
595.587,1029.44
596.12,1031.8
596.653,1035.44
597.186,1041.84
597.718,1044.64
598.251,1051.16
598.783,1057.54
599.316,1062.14
599.848,1066.74
600.38,1061.66
600.912,1063.42
601.444,1061.76
601.976,1061.42
602.508,1058.84
603.04,1052.54
603.572,1046.58
604.103,1039.64
604.635,1032.04
605.167,1022.02
605.698,1011.4
606.229,1003.7
606.761,996.94
607.292,991.66
607.823,989.96
608.354,983.64
608.885,980.5
609.416,977.42
609.947,973.3
610.477,971.02
611.008,968.3
611.539,966.3
612.069,959.54
612.6,958.14
613.13,958.94
613.66,956.88
614.19,956.06
614.721,950.92
615.251,948.6
615.781,948.24
616.311,946.62
616.841,947.16
617.37,950.04
617.9,948.72
618.43,948.52
618.96,945.24
619.489,948.08
620.019,946.96
620.548,948.04
621.077,951.06
621.607,960.1
622.136,982.14
622.665,977.68
623.194,952.82
623.723,946.86
624.252,946.22
624.781,945.6
625.31,949.12
625.839,957.52
626.368,986.0
626.896,1229.88
627.425,1640.28
627.953,1373.22
628.482,1617.98
629.01,1497.04
629.539,1376.82
630.067,1275.74
630.596,1241.8
631.124,1086.12
631.652,1008.68
632.18,976.28
632.708,961.72
633.236,953.54
633.764,949.2
634.292,946.96
634.82,946.52
635.348,946.6
635.876,944.14
636.403,942.26
636.931,944.32
637.459,941.94
637.986,940.34
638.514,941.96
639.041,943.06
639.568,943.38
640.096,944.94
640.623,943.54
641.15,944.74
641.678,945.32
642.205,943.9
642.732,946.58
643.259,944.36
643.786,945.54
644.313,945.74
644.84,946.2
645.367,945.7
645.894,944.68
646.421,945.84
646.948,945.38
647.474,946.42
648.001,946.36
648.528,947.26
649.054,945.84
649.581,943.94
650.108,947.2
650.634,946.62
651.161,946.08
651.687,946.06
652.214,946.7
652.74,948.28
653.266,950.8
653.793,949.14
654.319,949.5
654.845,947.78
655.371,948.7
655.897,944.46
656.424,942.94
656.95,943.4
657.476,941.92
658.002,939.6
658.528,937.68
659.054,935.18
659.58,932.34
660.106,931.64
660.631,926.96
661.157,922.26
661.683,918.96
662.209,915.48
662.735,914.4
663.129,910.92

File: VLFR_01-LDPE_nobio_Raman_85ecc14f.csv
nm,Intensity
526.547,832.8
527.094,832.3
527.641,832.9
528.188,832.7
528.734,832.1
529.281,832.2
529.827,831.8
530.373,832.4
530.92,832.3
531.466,832.3
532.011,837.7
532.557,832.7
533.103,832.4
533.648,833.5
534.193,903.7
534.738,897.8
535.283,882.2
535.828,877.7
536.373,874.0
536.917,868.8
537.462,867.5
538.006,865.8
538.55,862.7
539.094,861.1
539.638,860.4
540.182,859.4
540.726,855.2
541.269,855.0
541.812,856.2
542.356,857.5
542.899,854.9
543.442,854.8
543.985,854.5
544.527,849.5
545.07,853.5
545.612,852.4
546.155,856.4
546.697,852.1
547.239,852.1
547.781,852.7
548.323,850.7
548.865,850.6
549.406,849.8
549.948,851.6
550.489,851.0
551.03,851.0
551.572,850.1
552.113,849.6
552.654,851.8
553.194,853.3
553.735,854.0
554.276,854.2
554.816,853.0
555.356,858.1
555.896,856.7
556.437,857.6
556.977,863.3
557.516,863.4
558.056,865.3
558.596,867.5
559.135,866.4
559.675,865.9
560.214,865.0
560.753,864.5
561.292,866.3
561.831,866.9
562.37,871.5
562.909,876.1
563.448,879.4
563.986,929.5
564.525,897.4
565.063,888.3
565.601,888.7
566.139,950.5
566.677,895.9
567.215,889.5
567.753,889.3
568.291,889.3
568.828,889.5
569.366,896.1
569.903,897.8
570.441,902.9
570.978,914.0
571.515,1013.2
572.052,936.5
572.589,922.6
573.126,923.7
573.662,933.3
574.199,945.9
574.735,946.3
575.272,957.7
575.808,994.5
576.344,1064.8
576.88,1045.0
577.416,1038.2
577.952,1028.8
578.488,1046.9
579.024,1064.1
579.559,1080.1
580.095,1101.5
580.63,1120.8
581.166,1139.9
581.701,1159.6
582.236,1173.8
582.771,1192.9
583.306,1215.4
583.841,1222.7
584.376,1233.7
584.911,1245.1
585.445,1251.3
585.98,1266.0
586.514,1281.7
587.048,1296.0
587.583,1305.3
588.117,1324.4
588.651,1335.0
589.185,1346.4
589.719,1356.7
590.253,1380.9
590.786,1394.1
591.32,1399.1
591.853,1412.5
592.387,1414.9
592.92,1422.8
593.454,1418.0
593.987,1425.1
594.52,1425.5
595.053,1444.3
595.586,1445.2
596.119,1459.0
596.651,1451.6
597.184,1462.2
597.717,1464.2
598.249,1482.9
598.782,1493.9
599.314,1496.9
599.846,1513.0
600.379,1503.8
600.911,1501.0
601.443,1490.8
601.975,1487.0
602.507,1479.6
603.038,1465.2
603.57,1443.8
604.102,1428.4
604.633,1406.6
605.165,1363.6
605.696,1335.9
606.228,1315.3
606.759,1294.8
607.29,1284.7
607.821,1267.6
608.352,1258.5
608.883,1238.2
609.414,1226.3
609.945,1215.6
610.476,1203.6
611.006,1195.5
611.537,1192.2
612.067,1177.5
612.598,1169.3
613.128,1172.5
613.659,1163.9
614.189,1155.7
614.719,1147.8
615.249,1136.6
615.779,1135.2
616.309,1128.4
616.839,1127.9
617.369,1120.7
617.899,1120.4
618.428,1112.0
618.958,1110.6
619.487,1105.0
620.017,1107.2
620.546,1099.9
621.076,1100.5
621.605,1110.9
622.134,1129.4
622.663,1124.1
623.193,1111.4
623.722,1092.8
624.251,1100.7
624.78,1097.9
625.308,1104.8
625.837,1112.5
626.366,1129.9
626.895,1353.5
627.423,1632.0
627.952,1446.5
628.48,1676.4
629.009,1497.4
629.537,1428.1
630.065,1350.5
630.594,1326.5
631.122,1231.9
631.65,1174.5
632.178,1153.8
632.706,1153.2
633.234,1147.1
633.762,1145.6
634.29,1143.1
634.818,1143.8
635.346,1142.8
635.873,1145.7
636.401,1148.2
636.929,1153.3
637.456,1149.1
637.984,1147.9
638.511,1155.2
639.039,1153.8
639.566,1154.0
640.093,1153.8
640.62,1165.0
641.148,1161.1
641.675,1171.3
642.202,1171.7
642.729,1164.6
643.256,1162.4
643.783,1167.9
644.31,1164.6
644.837,1166.6
645.364,1159.0
645.891,1162.9
646.417,1164.3
646.944,1171.3
647.471,1163.9
647.997,1158.9
648.524,1156.3
649.051,1161.2
649.577,1156.6
650.104,1151.5
650.63,1149.0
651.157,1147.5
651.683,1148.3
652.209,1142.0
652.736,1151.3
653.262,1143.2
653.788,1150.8
654.314,1143.7
654.84,1140.3
655.366,1139.5
655.893,1131.0
656.419,1129.1
656.945,1127.0
657.471,1115.5
657.997,1113.7
658.522,1108.4
659.048,1099.2
659.574,1094.6
660.1,1085.1
660.626,1076.1
661.152,1069.0
661.677,1057.3
662.203,1049.5
662.729,1042.9
663.123,1039.6

File: VLFR_01-LDPE_nobio_Raman_388a21dd.csv
nm,Intensity
528.65,1842.35
529.155,1841.55
529.66,1841.05
530.165,1842.6
530.67,1842.6
531.175,1843.7
531.68,1865.55
532.185,2529.7
532.69,1842.15
533.194,1843.2
533.699,1913.85
534.204,2084.4
534.708,2067.0
535.213,2049.95
535.717,2016.25
536.222,1998.15
536.726,1986.05
537.231,1987.15
537.735,1992.45
538.239,1981.5
538.743,1984.3
539.247,1966.3
539.751,1967.1
540.255,1964.65
540.759,1967.6
541.263,1959.2
541.767,1959.8
542.271,1953.95
542.775,1955.3
543.279,1953.4
543.782,1963.7
544.286,1960.5
544.789,1958.45
545.293,1953.3
545.796,1960.4
546.3,1946.95
546.803,1954.8
547.306,1957.4
547.81,1949.0
548.313,1954.2
548.816,1946.85
549.319,1949.95
549.822,1956.15
550.325,1947.55
550.828,1951.1
551.331,1954.15
551.834,1955.65
552.337,1957.1
552.839,1954.65
553.342,1969.55
553.844,1964.75
554.347,1964.95
554.849,1973.75
555.352,1973.2
555.854,1974.35
556.357,1978.35
556.859,1990.0
557.361,1997.6
557.863,2007.65
558.365,2008.9
558.867,1996.95
559.369,1993.9
559.871,1992.4
560.373,1989.9
560.875,1995.05
561.377,1993.5
561.878,2004.7
562.38,2004.65
562.881,2021.6
563.383,2037.95
563.884,2253.4
564.386,2114.15
564.887,2091.15
565.388,2052.95
565.89,2174.15
566.391,2150.95
566.892,2050.7
567.393,2075.2
567.894,2031.55
568.395,2028.0
568.896,2033.2
569.396,2036.15
569.897,2029.7
570.398,2066.6
570.898,2093.5
571.399,2452.3
571.9,2221.95
572.4,2133.5
572.9,2087.95
573.401,2099.5
573.901,2132.95
574.401,2110.15
574.901,2114.85
575.401,2256.55
575.901,2381.1
576.401,2664.95
576.901,2511.4
577.401,2369.05
577.901,2272.05
578.4,2279.1
578.9,2317.65
579.399,2350.55
579.899,2390.5
580.398,2437.4
580.898,2476.95
581.397,2513.65
581.896,2546.95
582.395,2577.8
582.895,2616.4
583.394,2642.5
583.893,2671.2
584.391,2740.9
584.89,2757.2
585.389,2779.45
585.888,2785.25
586.386,2850.3
586.885,2903.95
587.384,2915.0
587.882,2969.7
588.38,3046.4
588.879,3104.5
589.377,3129.3
589.875,3162.5
590.373,3234.55
590.871,3282.05
591.369,3306.95
591.867,3326.2
592.365,3402.6
592.863,3426.05
593.361,3432.25
593.858,3487.5
594.356,3457.95
594.853,3491.75
595.351,3597.6
595.848,3545.4
596.345,3589.25
596.843,3687.95
597.34,3699.2
597.837,3801.2
598.334,3736.5
598.831,3823.6
599.328,3872.6
599.824,3866.85
600.321,3947.0
600.818,3895.5
601.314,3958.1
601.811,3917.4
602.307,3915.25
602.804,3879.55
603.3,3839.8
603.796,3744.0
604.293,3644.8
604.789,3635.4
605.285,3518.5
605.781,3455.35
606.277,3435.0
606.772,3367.7
607.268,3289.9
607.764,3216.65
608.259,3184.6
608.755,3146.45
609.25,3079.55
609.746,3055.25
610.241,3024.7
610.736,2992.1
611.231,2975.3
611.727,2968.3
612.222,2912.35
612.716,2868.0
613.211,2828.55
613.706,2825.15
614.201,2804.8
614.695,2794.65
615.19,2795.5
615.684,2721.65
616.179,2742.05
616.673,2700.35
617.168,2691.8
617.662,2727.15
618.156,2683.7
618.65,2676.7
619.144,2650.95
619.638,2671.45
620.131,2679.3
620.625,2669.25
621.119,2669.45
621.612,2714.35
622.106,2764.25
622.599,2732.65
623.093,2624.85
623.586,2627.45
624.079,2583.25
624.572,2581.6
625.065,2597.35
625.558,2600.1
626.051,2662.9
626.544,3070.85
627.037,5037.9
627.529,4784.55
628.022,4439.4
628.514,5924.05
629.007,4500.35
629.499,4047.75
629.991,3714.1
630.483,3575.4
630.976,3114.95
631.468,2745.15
631.959,2657.15
632.451,2630.65
632.943,2579.5
633.435,2617.3
633.926,2584.6
634.418,2562.45
634.909,2584.45
635.401,2560.45
635.892,2545.1
636.383,2554.9
636.874,2584.3
637.365,2582.95
637.856,2566.2
638.347,2589.4
638.838,2599.6
639.329,2588.25
639.819,2600.05
640.31,2615.1
640.8,2592.65
641.291,2631.9
641.781,2625.45
642.271,2634.2
642.761,2646.5
643.251,2633.25
643.741,2679.0
644.231,2661.7
644.721,2671.05
645.211,2659.15
645.7,2678.3
646.19,2668.75
646.679,2682.05
647.169,2682.15
647.658,2679.7
648.147,2653.55
648.636,2683.75
649.125,2663.2
649.614,2661.95
650.103,2653.5
650.592,2637.9
651.08,2649.8
651.569,2648.3
652.058,2688.4
652.546,2656.55
653.034,2635.75
653.523,2667.35
654.011,2652.0
654.499,2623.5
654.987,2602.8
655.475,2618.8
655.963,2584.6
656.45,2593.4
656.938,2557.2
657.425,2568.1
657.913,2538.15
658.4,2513.2
658.888,2489.85
659.375,2460.55
659.862,2471.3
660.349,2410.7
660.836,2392.7
661.079,2408.45

File: VLFR_01-LDPE_nobio_Raman_391ad2c4.csv
cm-1,Intensity
-123.878,1852.35
-105.821,1852.95
-87.8007,1853.25
-69.8161,1852.85
-51.8675,1853.4
-33.9547,1853.35
-16.0776,1870.5
1.76388,2752.55
19.5698,1853.8
37.3403,1854.35
55.0755,1932.2
72.7754,2169.3
90.4402,2171.35
108.07,2183.2
125.665,2171.4
143.225,2157.7
160.75,2151.45
178.241,2149.2
195.697,2169.6
213.119,2166.05
230.506,2174.8
247.859,2185.8
265.178,2177.7
282.463,2191.5
299.713,2200.1
316.93,2214.8
334.113,2210.65
351.263,2220.55
368.379,2226.8
385.461,2222.75
402.51,2239.6
419.526,2238.55
436.508,2242.95
453.458,2241.65
470.374,2262.1
487.257,2263.3
504.107,2268.0
520.925,2267.85
537.71,2276.6
554.462,2289.05
571.182,2305.9
587.87,2301.6
604.525,2304.35
621.148,2301.0
637.739,2320.95
654.297,2334.5
670.824,2333.6
687.319,2338.45
703.782,2333.75
720.213,2348.1
736.613,2358.4
752.981,2355.05
769.317,2370.05
785.623,2366.25
801.897,2355.3
818.139,2364.85
834.351,2383.5
850.532,2387.75
866.681,2387.3
882.8,2407.45
898.888,2410.65
914.945,2406.95
930.972,2417.25
946.968,2416.35
962.934,2436.3
978.869,2426.4
994.774,2446.35
1010.65,2432.4
1026.49,2437.8
1042.31,2454.1
1058.09,2471.85
1073.85,2481.35
1089.57,2470.5
1105.27,2488.65
1120.93,2483.15
1136.57,2493.75
1152.18,2508.5
1167.75,2493.3
1183.3,2492.1
1198.82,2521.3
1214.31,2513.2
1229.77,2512.85
1245.2,2510.35
1260.6,2515.1
1275.97,2522.5
1291.32,2594.75
1306.63,2569.0
1321.92,2573.05
1337.18,2570.25
1352.41,2560.05
1367.61,2562.55
1382.78,2562.8
1397.93,2560.55
1413.05,2583.95
1428.14,2597.8
1443.2,2630.95
1458.23,2609.5
1473.23,2589.25
1488.21,2569.0
1503.16,2575.45
1518.08,2585.7
1532.97,2589.4
1547.84,2609.45
1562.68,2623.0
1577.49,2598.9
1592.27,2616.85
1607.03,2607.85
1621.76,2596.4
1636.46,2628.4
1651.14,2623.3
1665.78,2624.5
1680.41,2598.7
1695.0,2609.85
1709.57,2593.95
1724.11,2594.0
1738.62,2585.1
1753.11,2612.65
1767.57,2619.3
1782.01,2623.0
1796.41,2608.95
1810.8,2618.8
1825.15,2601.0
1839.48,2610.15
1853.79,2613.0
1868.06,2603.9
1882.31,2605.45
1896.54,2628.95
1910.74,2614.1
1924.91,2605.75
1939.06,2602.55
1953.19,2622.45
1967.28,2617.4
1981.35,2630.85
1995.4,2607.05
2009.42,2636.6
2023.42,2632.6
2037.39,2640.95
2051.33,2647.65
2065.25,2632.75
2079.15,2645.1
2093.01,2657.3
2106.86,2668.05
2120.68,2656.5
2134.47,2669.25
2148.24,2658.8
2161.99,2656.15
2175.71,2664.7
2189.41,2681.3
2203.08,2670.0
2216.73,2675.4
2230.35,2650.15
2243.95,2654.8
2257.52,2655.9
2271.07,2665.8
2284.6,2649.1
2298.1,2652.15
2311.58,2667.95
2325.03,2657.35
2338.46,2644.75
2351.87,2649.8
2365.25,2641.9
2378.61,2647.95
2391.94,2629.8
2405.26,2657.6
2418.54,2658.25
2431.81,2639.8
2445.05,2663.35
2458.27,2640.1
2471.46,2623.2
2484.63,2643.3
2497.78,2612.9
2510.9,2646.35
2524.0,2626.5
2537.08,2650.1
2550.14,2631.55
2563.17,2634.15
2576.18,2623.85
2589.17,2614.9
2602.13,2632.6
2615.07,2633.7
2627.99,2625.5
2640.89,2635.45
2653.76,2652.45
2666.61,2644.35
2679.44,2623.95
2692.25,2629.0
2705.03,2661.6
2717.79,2675.3
2730.53,2656.55
2743.25,2651.15
2755.94,2634.0
2768.61,2639.9
2781.27,2630.2
2793.89,2648.6
2806.5,2643.95
2819.09,2646.35
2831.65,2708.05
2844.19,2990.1
2856.71,2942.15
2869.21,2884.85
2881.69,3100.1
2894.14,2945.05
2906.58,2876.3
2918.99,2873.75
2931.38,2882.85
2943.75,2790.15
2956.1,2731.05
2968.42,2702.8
2980.73,2707.0
2993.01,2679.25
3005.28,2667.2
3017.52,2666.7
3029.74,2668.1
3041.94,2666.55
3054.12,2659.0
3066.28,2652.25
3078.42,2647.75
3090.54,2653.15
3102.63,2661.0
3114.71,2674.75
3126.77,2647.9
3138.8,2649.55
3150.82,2636.1
3162.81,2664.55
3174.78,2665.15
3186.74,2633.45
3198.67,2646.45
3210.58,2649.05
3222.47,2655.15
3234.35,2656.8
3246.2,2629.25
3258.03,2645.95
3269.84,2658.2
3281.64,2655.2
3293.41,2667.75
3305.16,2663.25
3316.89,2656.8
3328.61,2662.35
3340.3,2648.35
3351.97,2637.35
3363.63,2672.0
3375.26,2635.35
3386.88,2626.4
3398.47,2631.7
3410.05,2622.1
3421.6,2632.85
3433.14,2656.25
3444.66,2639.95
3456.15,2621.8
3467.63,2618.5
3479.09,2626.35
3490.53,2611.25
3501.96,2619.65
3513.36,2577.2
3524.74,2599.75
3536.11,2592.65
3547.45,2585.9
3558.78,2565.05
3570.09,2592.3
3581.37,2608.05
3592.64,2581.8
3603.9,2540.3
3615.13,2551.55
3626.34,2532.0
3637.54,2537.7
3648.72,2514.4
3659.87,2516.55
3665.45,2548.3

File: VLFR_01-LDPE_nobio_Raman_621a7271.csv
nm,Intensity
526.486,830.8
527.033,829.0
527.579,829.4
528.126,831.6
528.672,829.9
529.219,830.4
529.765,829.4
530.311,830.3
530.857,830.1
531.403,830.1
531.948,830.8
532.494,831.3
533.039,829.7
533.585,829.3
534.13,887.7
534.675,884.9
535.22,872.3
535.764,865.5
536.309,863.7
536.854,863.8
537.398,858.5
537.942,862.3
538.486,861.3
539.03,857.9
539.574,857.1
540.118,856.9
540.662,853.7
541.205,856.0
541.749,854.0
542.292,853.4
542.835,851.6
543.378,853.5
543.921,853.7
544.464,852.1
545.006,852.0
545.549,852.4
546.091,851.1
546.634,852.5
547.176,853.0
547.718,851.9
548.26,851.4
548.802,850.2
549.343,850.4
549.885,851.4
550.426,851.5
550.968,852.6
551.509,851.9
552.05,852.1
552.591,851.8
553.132,850.7
553.673,853.9
554.214,852.3
554.754,853.2
555.295,852.3
555.835,853.8
556.375,855.2
556.915,859.6
557.455,858.4
557.995,857.8
558.535,859.2
559.075,858.3
559.614,858.3
560.154,857.0
560.693,857.2
561.232,857.5
561.772,858.5
562.311,860.8
562.85,858.7
563.388,864.9
563.927,885.8
564.466,876.2
565.004,872.1
565.543,865.2
566.081,894.4
566.619,870.8
567.157,865.5
567.695,866.9
568.233,863.6
568.771,864.7
569.309,863.8
569.846,867.8
570.384,869.2
570.921,869.8
571.458,908.1
571.995,889.8
572.532,875.3
573.069,873.5
573.606,873.3
574.143,877.6
574.68,872.0
575.216,877.0
575.753,897.9
576.289,945.1
576.825,921.4
577.361,907.4
577.897,886.3
578.433,882.3
578.969,885.3
579.505,886.5
580.041,888.9
580.576,890.6
581.112,891.4
581.647,891.7
582.183,895.2
582.718,897.6
583.253,902.6
583.788,905.3
584.323,908.0
584.858,909.0
585.392,916.4
585.927,921.1
586.462,928.5
586.996,938.4
587.53,944.1
588.065,947.2
588.599,959.8
589.133,965.1
589.667,978.3
590.201,981.2
590.735,989.9
591.268,1000.7
591.802,1004.6
592.335,1015.2
592.869,1018.2
593.402,1025.6
593.936,1027.3
594.469,1039.5
595.002,1049.1
595.535,1059.0
596.068,1067.1
596.601,1073.2
597.133,1087.0
597.666,1099.1
598.199,1105.0
598.731,1112.9
599.264,1130.5
599.796,1133.6
600.328,1135.8
600.86,1141.6
601.393,1140.2
601.925,1138.0
602.457,1134.8
602.988,1122.0
603.52,1120.7
604.052,1110.7
604.583,1098.7
605.115,1084.9
605.646,1067.0
606.178,1058.5
606.709,1052.1
607.24,1040.5
607.771,1035.2
608.302,1021.4
608.833,1023.8
609.364,1013.1
609.895,1006.7
610.426,1002.6
610.957,996.7
611.487,996.0
612.018,988.8
612.548,986.6
613.078,983.9
613.609,979.9
614.139,978.7
614.669,972.4
615.199,976.9
615.729,973.0
616.259,966.7
616.789,962.4
617.319,961.1
617.849,960.6
618.378,962.4
618.908,954.5
619.437,953.8
619.967,953.6
620.496,952.1
621.025,953.8
621.555,954.9
622.084,963.8
622.613,961.6
623.142,949.7
623.671,943.4
624.2,942.7
624.729,939.8
625.258,936.4
625.786,941.2
626.315,953.7
626.844,1064.9
627.372,1317.5
627.901,1164.0
628.429,1240.6
628.957,1198.0
629.486,1137.1
630.014,1080.3
630.542,1064.0
631.07,996.9
631.598,950.2
632.126,936.6
632.654,930.9
633.182,921.2
633.71,919.5
634.237,917.1
634.765,919.4
635.293,920.1
635.82,921.5
636.348,921.0
636.875,921.0
637.403,923.8
637.93,921.3
638.458,927.3
638.985,928.7
639.512,927.6
640.039,928.1
640.566,932.5
641.093,931.5
641.62,932.4
642.147,931.2
642.674,939.6
643.201,938.0
643.728,943.5
644.255,937.8
644.781,939.5
645.308,942.3
645.835,948.9
646.361,945.5
646.888,948.0
647.414,945.9
647.941,950.2
648.467,943.8
648.993,944.3
649.52,949.1
650.046,945.5
650.572,952.3
651.098,948.5
651.625,951.6
652.151,954.7
652.677,955.4
653.203,954.0
653.729,953.5
654.255,960.6
654.78,951.3
655.306,953.8
655.832,950.4
656.358,947.0
656.884,948.2
657.409,945.6
657.935,942.8
658.461,941.3
658.986,939.4
659.512,933.2
660.037,933.0
660.563,928.0
661.088,923.8
661.614,915.7
662.139,919.2
662.664,907.3
663.058,907.8