Folder: MPX_specDB/spectra (part 38)

File: VLFR_02-HDPE_bio_Raman_74f3bc30.csv
nm,Intensity
526.547,832.9
527.095,832.75
527.642,832.6
528.189,832.85
528.736,831.3
529.283,833.0
529.829,832.25
530.376,832.35
530.922,831.6
531.468,832.2
532.014,833.45
532.56,832.4
533.106,832.85
533.651,833.6
534.196,883.55
534.742,881.75
535.287,881.7
535.832,860.25
536.376,853.3
536.921,851.6
537.465,851.15
538.01,850.95
538.554,850.25
539.098,848.2
539.642,846.05
540.186,846.5
540.729,845.45
541.273,846.4
541.816,846.75
542.36,846.4
542.903,846.3
543.446,846.2
543.988,845.95
544.531,846.0
545.074,847.45
545.616,846.9
546.158,847.6
546.701,844.65
547.243,847.35
547.785,847.95
548.326,847.6
548.868,846.45
549.41,847.4
549.951,847.8
550.492,849.1
551.034,848.6
551.575,848.85
552.116,848.05
552.656,849.2
553.197,850.45
553.738,851.3
554.278,851.05
554.819,851.05
555.359,853.5
555.899,852.45
556.439,852.05
556.979,853.1
557.519,854.95
558.058,856.25
558.598,856.45
559.137,853.35
559.677,855.1
560.216,855.7
560.755,854.3
561.294,853.55
561.833,856.7
562.371,856.85
562.91,857.85
563.449,861.2
563.987,929.95
564.525,868.75
565.064,868.3
565.602,867.1
566.14,919.25
566.678,864.55
567.216,862.6
567.753,865.75
568.291,861.6
568.828,861.85
569.366,864.45
569.903,863.25
570.44,865.95
570.977,871.4
571.514,989.1
572.051,882.35
572.588,871.25
573.125,868.85
573.661,870.6
574.198,874.0
574.734,871.7
575.271,877.7
575.807,900.55
576.343,994.25
576.879,939.55
577.415,921.05
577.951,896.55
578.486,897.95
579.022,899.6
579.557,903.35
580.093,908.25
580.628,912.15
581.164,911.45
581.699,914.25
582.234,915.55
582.769,914.95
583.304,920.05
583.838,916.95
584.373,916.0
584.908,914.65
585.442,915.15
585.977,915.7
586.511,913.75
587.045,912.75
587.58,913.6
588.114,913.35
588.648,915.5
589.182,913.25
589.715,914.3
590.249,912.5
590.783,915.8
591.316,921.5
591.85,921.55
592.383,919.8
592.917,923.75
593.45,923.25
593.983,927.0
594.516,927.75
595.049,932.45
595.582,933.5
596.115,935.1
596.648,937.45
597.18,938.15
597.713,941.2
598.245,940.9
598.778,943.8
599.31,941.45
599.842,942.05
600.375,945.5
600.907,944.6
601.439,942.6
601.971,942.25
602.503,943.75
603.034,942.4
603.566,938.9
604.098,938.1
604.629,938.0
605.161,930.3
605.692,927.35
606.224,927.35
606.755,924.0
607.286,922.7
607.817,922.65
608.348,922.15
608.879,921.35
609.41,922.1
609.941,917.2
610.472,916.95
611.002,919.65
611.533,918.2
612.063,916.0
612.594,916.9
613.124,916.85
613.655,916.2
614.185,915.7
614.715,915.95
615.245,913.55
615.775,911.5
616.305,911.85
616.835,915.3
617.365,921.0
617.895,919.75
618.425,917.75
618.954,915.6
619.484,921.85
620.013,918.3
620.543,917.9
621.072,924.0
621.602,939.75
622.131,972.7
622.66,960.1
623.189,929.6
623.718,916.1
624.247,915.4
624.776,917.4
625.305,919.35
625.834,930.5
626.363,971.7
626.891,1351.0
627.42,1764.9
627.949,1410.75
628.477,1842.55
629.006,1339.45
629.534,1248.25
630.062,1143.2
630.591,1114.65
631.119,989.9
631.647,932.9
632.175,918.15
632.703,915.6
633.231,912.05
633.759,908.45
634.287,901.4
634.815,901.2
635.343,898.1
635.871,896.55
636.398,897.05
636.926,894.8
637.454,893.05
637.981,892.05
638.509,892.05
639.036,888.65
639.564,887.5
640.091,888.65
640.618,887.85
641.146,889.65
641.673,889.6
642.2,888.55
642.727,886.5
643.254,885.35
643.781,887.1
644.308,886.75
644.835,888.9
645.362,885.25
645.889,888.1
646.416,885.6
646.942,887.3
647.469,887.85
647.996,889.25
648.522,885.15
649.049,889.2
649.576,886.7
650.102,887.7
650.629,886.85
651.155,883.85
651.682,885.25
652.208,884.9
652.734,886.25
653.261,886.2
653.787,884.55
654.313,885.95
654.839,883.95
655.365,883.05
655.892,882.2
656.418,883.85
656.944,881.75
657.47,883.4
657.996,880.8
658.522,879.4
659.048,879.3
659.574,878.9
660.099,878.55
660.625,876.05
661.151,876.75
661.677,875.6
662.203,875.4
662.728,873.8
663.123,872.45

File: VLFR_02-HDPE_bio_Raman_81d1b44a.csv
nm,Intensity
526.508,828.4
527.055,831.7
527.602,829.3
528.149,830.4
528.695,829.8
529.241,829.5
529.787,829.0
530.334,830.0
530.879,830.4
531.425,830.5
531.971,834.6
532.516,830.9
533.062,828.7
533.607,830.5
534.152,885.2
534.697,883.2
535.242,878.0
535.786,857.1
536.331,851.6
536.876,849.3
537.42,847.4
537.964,846.1
538.508,848.7
539.052,845.4
539.596,844.6
540.14,840.6
540.683,841.5
541.227,839.9
541.77,840.0
542.313,841.7
542.856,840.1
543.399,841.0
543.942,841.4
544.485,840.6
545.027,840.7
545.57,841.0
546.112,842.6
546.654,843.9
547.196,844.8
547.738,845.8
548.28,843.9
548.822,844.8
549.363,845.7
549.905,847.2
550.446,847.4
550.988,847.8
551.529,847.4
552.07,848.1
552.611,845.4
553.152,848.4
553.692,849.7
554.233,849.5
554.773,848.0
555.314,847.9
555.854,849.7
556.394,849.8
556.934,848.5
557.474,847.8
558.014,851.1
558.553,850.7
559.093,850.2
559.632,848.9
560.172,848.7
560.711,848.2
561.25,849.6
561.789,849.6
562.328,852.1
562.867,852.3
563.406,853.9
563.944,910.3
564.483,867.9
565.021,862.7
565.559,855.5
566.098,910.8
566.636,858.4
567.174,854.0
567.711,857.6
568.249,849.0
568.787,850.5
569.324,850.1
569.862,848.6
570.399,855.0
570.936,857.8
571.474,950.4
572.011,878.9
572.548,858.0
573.084,852.8
573.621,854.8
574.158,857.6
574.694,852.0
575.231,855.4
575.767,891.4
576.303,995.7
576.84,930.3
577.376,911.8
577.912,869.0
578.447,861.0
578.983,861.4
579.519,862.1
580.054,863.4
580.59,864.0
581.125,864.4
581.661,864.4
582.196,866.8
582.731,865.8
583.266,864.7
583.801,863.9
584.336,865.1
584.87,866.8
585.405,865.7
585.94,869.5
586.474,873.0
587.008,872.8
587.543,871.1
588.077,875.7
588.611,875.8
589.145,881.4
589.679,883.4
590.213,883.8
590.747,884.1
591.28,885.8
591.814,891.0
592.347,893.2
592.881,893.1
593.414,895.5
593.947,900.7
594.48,898.5
595.014,902.2
595.547,901.1
596.079,905.7
596.612,905.9
597.145,910.4
597.678,911.1
598.21,914.0
598.743,919.8
599.275,921.3
599.807,921.2
600.34,923.4
600.872,919.8
601.404,923.4
601.936,921.1
602.468,920.7
603.0,923.3
603.532,915.9
604.063,918.9
604.595,918.0
605.126,910.6
605.658,909.0
606.189,904.2
606.721,903.9
607.252,899.3
607.783,901.2
608.314,897.9
608.845,900.1
609.376,893.9
609.907,892.6
610.438,891.8
610.968,893.5
611.499,888.4
612.03,891.0
612.56,891.7
613.091,888.5
613.621,889.7
614.151,889.2
614.681,887.7
615.212,886.6
615.742,885.6
616.272,884.0
616.802,889.8
617.332,893.0
617.861,892.4
618.391,892.8
618.921,895.1
619.45,895.1
619.98,900.6
620.509,892.8
621.039,900.9
621.568,913.6
622.097,947.5
622.627,942.0
623.156,904.3
623.685,894.9
624.214,890.3
624.743,892.7
625.272,898.2
625.801,904.0
626.33,941.4
626.858,1257.4
627.387,1804.6
627.916,1410.5
628.444,1689.1
628.973,1395.8
629.501,1274.4
630.029,1142.8
630.558,1121.0
631.086,982.3
631.614,911.7
632.142,899.6
632.67,892.1
633.198,884.6
633.726,883.1
634.254,880.7
634.782,879.6
635.31,877.1
635.838,875.6
636.365,877.7
636.893,873.2
637.421,870.8
637.948,868.1
638.476,868.0
639.003,864.7
639.531,864.7
640.058,868.4
640.585,869.1
641.113,866.8
641.64,870.4
642.167,870.0
642.694,872.3
643.221,869.9
643.748,870.4
644.275,868.0
644.802,869.3
645.329,871.1
645.856,869.2
646.382,870.8
646.909,870.9
647.436,872.1
647.962,873.4
648.489,872.5
649.016,868.6
649.542,870.6
650.069,871.4
650.595,870.0
651.121,870.6
651.648,872.8
652.174,869.7
652.7,872.4
653.227,872.4
653.753,874.7
654.279,873.0
654.805,870.6
655.331,872.4
655.857,871.5
656.383,869.3
656.909,869.6
657.435,869.8
657.961,872.4
658.487,866.9
659.013,867.7
659.538,868.6
660.064,868.0
660.59,870.0
661.116,865.8
661.641,863.0
662.167,866.7
662.692,865.5
663.087,863.7

File: VLFR_02-HDPE_bio_Raman_86fe66d0.csv
nm,Intensity
528.635,1838.5
529.14,1837.7
529.645,1839.4
530.151,1838.2
530.656,1838.1
531.161,1840.1
531.666,1876.0
532.171,4243.8
532.676,1839.2
533.181,1838.2
533.686,1960.0
534.191,2254.5
534.696,2247.1
535.201,2214.5
535.705,2072.6
536.21,2027.0
536.715,2003.1
537.219,1996.5
537.724,2006.5
538.228,1994.0
538.733,1978.4
539.237,1964.1
539.741,1960.2
540.246,1943.5
540.75,1941.9
541.254,1940.2
541.758,1941.1
542.262,1942.8
542.766,1937.8
543.27,1938.2
543.774,1935.3
544.278,1929.9
544.781,1924.6
545.285,1928.5
545.789,1938.8
546.292,1937.3
546.796,1930.8
547.299,1936.5
547.803,1934.5
548.306,1935.5
548.809,1929.7
549.313,1941.2
549.816,1935.5
550.319,1925.8
550.822,1940.4
551.325,1940.4
551.828,1941.5
552.331,1939.1
552.834,1946.6
553.337,1966.3
553.839,1956.2
554.342,1961.7
554.845,1960.2
555.347,1968.6
555.85,1977.9
556.352,1982.2
556.854,2002.2
557.357,1996.4
557.859,2013.1
558.361,2021.8
558.863,2020.9
559.365,2020.7
559.867,2009.4
560.369,1996.8
560.871,2000.1
561.373,2007.2
561.875,2006.6
562.377,2026.2
562.878,2042.6
563.38,2078.1
563.881,2856.1
564.383,2246.6
564.884,2166.0
565.386,2121.4
565.887,2514.1
566.388,2544.0
566.889,2082.8
567.391,2203.5
567.892,2041.5
568.393,2034.6
568.893,2034.8
569.394,2046.6
569.895,2036.5
570.396,2073.3
570.897,2132.0
571.397,3282.4
571.898,2349.5
572.398,2118.6
572.899,2054.1
573.399,2046.1
573.899,2142.3
574.399,2030.4
574.9,2044.8
575.4,2594.4
575.9,2517.5
576.4,3181.0
576.899,2787.3
577.399,2380.6
577.899,2092.8
578.399,2044.5
578.898,2029.3
579.398,2032.5
579.897,2023.8
580.397,2023.3
580.896,2020.6
581.396,2018.3
581.895,2011.4
582.394,2008.6
582.893,2013.4
583.392,2006.7
583.891,2016.6
584.39,2010.8
584.889,2014.8
585.387,2014.4
585.886,2013.7
586.385,2028.7
586.883,2016.3
587.382,2024.1
587.88,2027.9
588.379,2026.2
588.877,2034.1
589.375,2031.8
589.873,2042.0
590.371,2040.5
590.869,2051.8
591.367,2041.7
591.865,2047.6
592.363,2039.2
592.86,2045.0
593.358,2045.6
593.856,2040.3
594.353,2040.5
594.851,2039.9
595.348,2044.2
595.845,2049.7
596.342,2045.6
596.84,2052.6
597.337,2049.0
597.834,2053.0
598.331,2064.7
598.827,2066.9
599.324,2070.1
599.821,2080.2
600.318,2073.7
600.814,2071.8
601.311,2083.3
601.807,2102.3
602.303,2103.9
602.8,2073.7
603.296,2078.4
603.792,2068.1
604.288,2078.2
604.784,2069.4
605.28,2060.5
605.776,2052.4
606.272,2049.7
606.767,2045.2
607.263,2033.2
607.758,2034.4
608.254,2041.6
608.749,2039.9
609.244,2034.0
609.74,2032.1
610.235,2037.4
610.73,2053.9
611.225,2053.4
611.72,2036.8
612.215,2029.7
612.709,2021.1
613.204,2029.8
613.699,2037.0
614.193,2038.0
614.688,2022.1
615.182,2036.1
615.676,2046.7
616.171,2060.0
616.665,2083.9
617.159,2117.5
617.653,2136.9
618.147,2121.8
618.641,2108.1
619.134,2147.8
619.628,2175.1
620.122,2152.6
620.615,2178.6
621.109,2237.9
621.602,2420.8
622.095,2666.2
622.588,2506.8
623.082,2238.6
623.575,2160.0
624.068,2156.6
624.56,2177.4
625.053,2194.0
625.546,2247.4
626.039,2426.4
626.531,3587.6
627.024,8913.6
627.516,7842.7
628.008,6414.7
628.501,10055.3
628.993,6107.8
629.485,5181.8
629.977,4349.8
630.469,4007.8
630.961,3042.7
631.452,2376.3
631.944,2233.7
632.436,2180.2
632.927,2143.3
633.418,2129.1
633.91,2103.3
634.401,2085.6
634.892,2064.5
635.383,2043.5
635.874,2042.4
636.365,2037.4
636.856,2035.2
637.347,1995.6
637.837,1983.7
638.328,1995.2
638.818,1977.0
639.309,1981.0
639.799,1971.0
640.289,1975.4
640.78,1966.0
641.27,1964.0
641.76,1970.1
642.249,1959.3
642.739,1960.4
643.229,1959.9
643.719,1959.2
644.208,1966.5
644.698,1956.4
645.187,1961.2
645.676,1957.0
646.165,1951.8
646.655,1955.4
647.144,1955.9
647.633,1960.7
648.121,1951.6
648.61,1946.2
649.099,1944.8
649.587,1945.8
650.076,1940.0
650.564,1948.8
651.053,1942.1
651.541,1945.4
652.029,1942.1
652.517,1938.3
653.005,1945.2
653.493,1935.0
653.981,1937.1
654.468,1939.6
654.956,1928.7
655.444,1934.1
655.931,1942.6
656.418,1931.0
656.906,1930.3
657.393,1933.4
657.88,1934.0
658.367,1928.8
658.854,1928.9
659.341,1922.6
659.827,1932.2
660.314,1936.9
660.8,1933.2
661.044,1924.8

File: VLFR_02-HDPE_bio_Raman_94e7cc35.csv
nm,Intensity
526.547,830.5
527.095,831.45
527.642,831.25
528.189,830.75
528.736,831.2
529.283,831.1
529.829,831.3
530.376,830.55
530.922,831.3
531.468,830.35
532.014,843.4
532.56,831.55
533.106,830.65
533.651,831.25
534.196,900.65
534.742,890.3
535.287,879.2
535.832,871.05
536.376,864.75
536.921,862.15
537.465,861.2
538.01,860.55
538.554,857.85
539.098,857.35
539.642,855.85
540.186,852.6
540.729,852.6
541.273,851.45
541.816,853.55
542.36,853.3
542.903,853.6
543.446,852.1
543.988,853.9
544.531,853.85
545.074,853.6
545.616,853.05
546.158,853.25
546.701,852.15
547.243,852.6
547.785,853.1
548.326,852.35
548.868,854.3
549.41,854.7
549.951,855.0
550.492,853.45
551.034,855.45
551.575,853.75
552.116,854.35
552.656,855.15
553.197,855.8
553.738,856.7
554.278,856.1
554.819,857.1
555.359,858.0
555.899,856.4
556.439,857.3
556.979,860.6
557.519,860.55
558.058,863.85
558.598,864.0
559.137,862.0
559.677,862.05
560.216,861.1
560.755,859.95
561.294,862.0
561.833,862.35
562.371,862.55
562.91,865.6
563.449,868.95
563.987,952.65
564.525,884.05
565.064,875.75
565.602,879.0
566.14,1042.2
566.678,876.3
567.216,867.75
567.753,865.65
568.291,864.7
568.828,864.5
569.366,866.75
569.903,865.65
570.44,867.75
570.977,873.65
571.514,1018.2
572.051,885.55
572.588,870.1
573.125,867.0
573.661,867.5
574.198,871.75
574.734,866.2
575.271,877.4
575.807,929.05
576.343,944.6
576.879,918.25
577.415,891.2
577.951,871.9
578.486,869.0
579.022,866.15
579.557,866.75
580.093,868.2
580.628,868.3
581.164,867.35
581.699,870.15
582.234,869.45
582.769,871.0
583.304,869.7
583.838,871.85
584.373,872.25
584.908,870.8
585.442,874.35
585.977,874.8
586.511,876.05
587.045,876.4
587.58,876.75
588.114,875.7
588.648,879.0
589.182,878.6
589.715,879.4
590.249,882.4
590.783,882.75
591.316,885.75
591.85,885.55
592.383,886.9
592.917,888.05
593.45,888.8
593.983,891.6
594.516,892.6
595.049,894.4
595.582,896.0
596.115,897.3
596.648,900.3
597.18,902.15
597.713,900.8
598.245,906.9
598.778,907.65
599.31,908.25
599.842,910.8
600.375,906.5
600.907,907.25
601.439,908.45
601.971,908.1
602.503,908.5
603.034,909.35
603.566,908.1
604.098,906.3
604.629,904.55
605.161,904.1
605.692,904.85
606.224,903.7
606.755,901.45
607.286,902.35
607.817,900.65
608.348,901.55
608.879,898.05
609.41,901.45
609.941,898.55
610.472,898.25
611.002,900.25
611.533,901.25
612.063,899.2
612.594,899.9
613.124,897.95
613.655,899.95
614.185,900.8
614.715,899.6
615.245,899.15
615.775,897.65
616.305,898.85
616.835,898.4
617.365,899.95
617.895,900.9
618.425,897.8
618.954,900.15
619.484,901.45
620.013,899.3
620.543,901.0
621.072,904.75
621.602,908.35
622.131,917.15
622.66,913.25
623.189,901.2
623.718,898.5
624.247,898.05
624.776,897.55
625.305,899.85
625.834,902.35
626.363,920.4
626.891,1057.45
627.42,1278.55
627.949,1115.15
628.477,1226.55
629.006,1147.05
629.534,1091.95
630.062,1034.7
630.591,1022.35
631.119,945.2
631.647,910.75
632.175,897.65
632.703,892.35
633.231,888.5
633.759,887.05
634.287,887.2
634.815,885.25
635.343,884.05
635.871,884.05
636.398,884.95
636.926,883.0
637.454,881.9
637.981,879.85
638.509,880.9
639.036,882.45
639.564,879.4
640.091,880.0
640.618,883.5
641.146,880.65
641.673,882.05
642.2,881.75
642.727,882.25
643.254,882.35
643.781,880.95
644.308,880.75
644.835,879.6
645.362,879.65
645.889,879.7
646.416,880.4
646.942,880.15
647.469,880.8
647.996,879.4
648.522,883.4
649.049,882.2
649.576,881.8
650.102,883.55
650.629,881.85
651.155,881.95
651.682,882.5
652.208,880.5
652.734,881.3
653.261,883.5
653.787,882.7
654.313,881.35
654.839,878.65
655.365,878.85
655.892,879.8
656.418,878.3
656.944,878.6
657.47,878.05
657.996,877.9
658.522,878.3
659.048,878.85
659.574,874.7
660.099,874.7
660.625,873.3
661.151,873.15
661.677,872.35
662.203,870.3
662.728,870.35
663.123,869.45

File: VLFR_02-HDPE_bio_Raman_96ad4912.csv
nm,Intensity
526.495,828.1
527.042,829.5
527.589,829.1
528.136,828.3
528.682,828.7
529.229,828.8
529.775,829.4
530.321,829.7
530.867,829.4
531.413,829.7
531.959,831.8
532.505,829.6
533.051,828.2
533.596,831.0
534.141,846.5
534.687,842.8
535.232,842.7
535.777,837.5
536.321,836.0
536.866,837.9
537.41,838.0
537.955,839.0
538.499,838.4
539.043,839.1
539.587,839.8
540.131,839.4
540.675,838.1
541.219,838.6
541.762,839.2
542.305,839.5
542.849,839.2
543.392,838.6
543.935,838.1
544.478,837.6
545.02,836.1
545.563,839.4
546.106,839.1
546.648,837.1
547.19,837.0
547.732,835.6
548.274,836.6
548.816,837.0
549.358,837.1
549.9,838.8
550.441,838.1
550.983,838.7
551.524,837.0
552.065,838.5
552.606,837.5
553.147,837.9
553.688,837.7
554.229,838.2
554.769,839.7
555.31,839.5
555.85,840.4
556.391,838.8
556.931,839.3
557.471,837.4
558.011,840.5
558.551,837.9
559.09,839.5
559.63,838.5
560.169,837.3
560.709,839.1
561.248,841.5
561.787,847.8
562.326,838.4
562.865,844.1
563.404,840.7
563.943,848.4
564.481,843.4
565.02,839.8
565.558,839.6
566.096,847.2
566.634,841.3
567.172,840.4
567.71,841.0
568.248,840.1
568.786,839.9
569.324,840.5
569.861,841.4
570.399,841.8
570.936,841.8
571.473,854.5
572.01,841.7
572.547,841.8
573.084,842.7
573.621,842.5
574.158,845.1
574.694,840.9
575.231,843.1
575.767,844.6
576.303,858.4
576.84,849.7
577.376,847.6
577.912,844.5
578.448,844.7
578.984,841.5
579.519,841.7
580.055,843.1
580.59,841.1
581.126,844.9
581.661,843.6
582.196,842.3
582.731,844.3
583.267,844.0
583.801,843.4
584.336,844.1
584.871,846.0
585.406,845.2
585.94,846.1
586.475,846.6
587.009,846.9
587.543,847.3
588.078,847.5
588.612,848.8
589.146,849.8
589.68,851.7
590.214,852.0
590.747,851.5
591.281,850.3
591.815,852.0
592.348,852.9
592.881,851.8
593.415,857.8
593.948,855.9
594.481,853.1
595.014,855.7
595.547,856.1
596.08,857.6
596.613,857.3
597.146,855.2
597.678,858.3
598.211,857.0
598.743,857.5
599.276,858.8
599.808,858.4
600.34,861.1
600.872,858.7
601.404,859.2
601.936,857.6
602.468,861.1
603.0,860.2
603.532,857.2
604.064,857.3
604.595,857.3
605.127,856.1
605.658,858.5
606.189,854.6
606.721,854.9
607.252,856.1
607.783,855.1
608.314,852.9
608.845,855.2
609.376,853.9
609.907,854.4
610.438,854.4
610.968,852.0
611.499,852.1
612.029,853.2
612.56,852.1
613.09,852.4
613.621,849.4
614.151,852.4
614.681,853.2
615.211,851.8
615.741,851.6
616.271,851.3
616.801,852.0
617.331,851.0
617.861,854.2
618.39,849.7
618.92,853.1
619.45,850.4
619.979,851.9
620.509,848.8
621.038,850.1
621.567,854.1
622.096,855.7
622.626,856.0
623.155,851.9
623.684,850.6
624.213,851.8
624.742,850.9
625.271,850.5
625.799,854.2
626.328,854.9
626.857,887.9
627.386,946.3
627.914,901.2
628.443,934.5
628.971,897.2
629.5,885.3
630.028,873.4
630.556,872.4
631.084,856.8
631.613,854.4
632.141,849.7
632.669,849.2
633.197,850.2
633.725,851.4
634.253,847.5
634.781,850.7
635.308,848.9
635.836,850.3
636.364,848.7
636.891,850.1
637.419,848.4
637.947,850.5
638.474,852.1
639.002,849.3
639.529,850.2
640.056,849.3
640.584,852.9
641.111,851.3
641.638,851.2
642.165,851.2
642.692,853.9
643.219,849.7
643.746,851.8
644.273,853.9
644.8,855.6
645.327,853.6
645.854,853.5
646.381,853.9
646.908,850.9
647.434,854.0
647.961,855.5
648.488,856.4
649.014,856.8
649.541,856.1
650.067,857.0
650.594,855.6
651.12,856.4
651.646,857.8
652.173,855.3
652.699,855.6
653.225,851.9
653.752,854.8
654.278,854.3
654.804,853.0
655.33,853.2
655.856,851.9
656.382,850.0
656.908,851.7
657.434,851.5
657.96,850.3
658.486,850.8
659.012,849.4
659.538,848.8
660.064,849.0
660.589,849.8
661.115,846.7
661.641,850.1
662.166,848.3
662.692,845.8
663.086,846.0

File: VLFR_02-HDPE_bio_Raman_123cdeff.csv
nm,Intensity
528.65,1837.25
529.155,1836.75
529.66,1836.1
530.165,1837.0
530.67,1837.25
531.175,1839.3
531.68,1886.05
532.185,4966.85
532.69,1841.05
533.194,1838.9
533.699,1941.0
534.204,2292.75
534.708,2301.3
535.213,2285.45
535.717,2139.35
536.222,2079.8
536.726,2063.6
537.231,2067.95
537.735,2067.4
538.239,2059.6
538.743,2048.7
539.247,2027.75
539.751,2019.9
540.255,2016.5
540.759,2018.45
541.263,2019.65
541.767,2028.6
542.271,2026.25
542.775,2026.3
543.279,2022.85
543.782,2021.5
544.286,2026.85
544.789,2020.7
545.293,2022.65
545.796,2022.5
546.3,2031.0
546.803,2030.3
547.306,2034.3
547.81,2027.6
548.313,2032.95
548.816,2030.85
549.319,2035.15
549.822,2033.45
550.325,2034.95
550.828,2045.3
551.331,2044.0
551.834,2059.6
552.337,2058.55
552.839,2059.3
553.342,2076.75
553.844,2082.25
554.347,2084.65
554.849,2084.6
555.352,2095.8
555.854,2103.05
556.357,2111.15
556.859,2130.3
557.361,2141.7
557.863,2155.45
558.365,2165.65
558.867,2155.9
559.369,2156.85
559.871,2143.1
560.373,2134.25
560.875,2144.6
561.377,2154.8
561.878,2166.7
562.38,2181.9
562.881,2192.2
563.383,2223.95
563.884,2894.4
564.386,2413.65
564.887,2340.1
565.388,2283.25
565.89,2589.6
566.391,2723.2
566.892,2243.6
567.393,2384.55
567.894,2223.4
568.395,2211.6
568.896,2216.95
569.396,2215.9
569.897,2223.15
570.398,2261.95
570.898,2314.45
571.399,3382.65
571.9,2631.55
572.4,2333.45
572.9,2260.95
573.401,2252.9
573.901,2344.2
574.401,2241.3
574.901,2249.0
575.401,2712.1
575.901,2787.95
576.401,3497.65
576.901,3099.8
577.401,2679.9
577.901,2351.0
578.4,2317.3
578.9,2299.85
579.399,2314.4
579.899,2334.25
580.398,2338.65
580.898,2350.0
581.397,2364.65
581.896,2368.05
582.395,2376.0
582.895,2389.15
583.394,2413.05
583.893,2414.9
584.391,2432.8
584.89,2445.35
585.389,2450.1
585.888,2479.25
586.386,2490.3
586.885,2534.4
587.384,2544.45
587.882,2568.05
588.38,2594.25
588.879,2634.2
589.377,2629.2
589.875,2683.8
590.373,2720.5
590.871,2742.05
591.369,2755.2
591.867,2838.4
592.365,2841.65
592.863,2862.75
593.361,2887.1
593.858,2928.5
594.356,2975.85
594.853,3011.65
595.351,3045.6
595.848,3096.4
596.345,3147.5
596.843,3183.4
597.34,3248.95
597.837,3291.25
598.334,3303.05
598.831,3359.95
599.328,3428.95
599.824,3427.1
600.321,3489.05
600.818,3477.55
601.314,3492.95
601.811,3507.7
602.307,3516.8
602.804,3473.55
603.3,3439.9
603.796,3400.9
604.293,3346.4
604.789,3327.45
605.285,3303.0
605.781,3217.7
606.277,3171.7
606.772,3139.05
607.268,3098.05
607.764,3045.35
608.259,3043.85
608.755,2995.6
609.25,2979.9
609.746,2964.75
610.241,2920.65
610.736,2938.3
611.231,2922.3
611.727,2857.85
612.222,2861.15
612.716,2841.05
613.211,2816.95
613.706,2798.0
614.201,2805.05
614.695,2783.45
615.19,2782.8
615.684,2777.05
616.179,2773.05
616.673,2767.1
617.168,2834.9
617.662,2848.3
618.156,2844.7
618.65,2811.1
619.144,2799.75
619.638,2859.15
620.131,2836.8
620.625,2854.65
621.119,2923.85
621.612,3151.7
622.106,3523.9
622.599,3352.1
623.093,2952.3
623.586,2835.8
624.079,2796.5
624.572,2778.15
625.065,2843.05
625.558,2899.05
626.051,3136.95
626.544,4683.35
627.037,12585.2
627.529,11549.0
628.022,9231.2
628.514,15236.5
629.007,8375.3
629.499,7046.3
629.991,5755.8
630.483,5441.45
630.976,4072.45
631.468,3079.15
631.959,2840.35
632.451,2721.1
632.943,2720.45
633.435,2679.25
633.926,2624.05
634.418,2583.6
634.909,2559.3
635.401,2557.4
635.892,2536.45
636.383,2531.25
636.874,2520.95
637.365,2488.65
637.856,2464.3
638.347,2468.65
638.838,2472.3
639.329,2477.1
639.819,2469.35
640.31,2469.35
640.8,2474.75
641.291,2458.55
641.781,2457.2
642.271,2472.55
642.761,2456.0
643.251,2453.1
643.741,2460.85
644.231,2466.65
644.721,2469.5
645.211,2478.4
645.7,2479.1
646.19,2462.3
646.679,2467.5
647.169,2457.6
647.658,2477.8
648.147,2454.85
648.636,2476.8
649.125,2469.85
649.614,2464.1
650.103,2465.75
650.592,2464.65
651.08,2459.3
651.569,2462.0
652.058,2463.25
652.546,2442.85
653.034,2440.5
653.523,2458.7
654.011,2442.95
654.499,2436.85
654.987,2421.45
655.475,2426.05
655.963,2404.2
656.45,2388.6
656.938,2388.3
657.425,2377.55
657.913,2369.9
658.4,2342.25
658.888,2326.6
659.375,2312.95
659.862,2314.05
660.349,2296.3
660.836,2280.7
661.079,2261.25