Folder: MPX_specDB/spectra (part 10)

File: VLFR_01-LDPE_bio_Raman_7192871e.csv
nm,Intensity
528.65,1850.7
529.155,1850.4
529.66,1851.0
530.165,1850.3
530.67,1852.0
531.175,1854.15
531.68,1883.9
532.185,4206.1
532.69,1853.5
533.194,1851.7
533.699,1933.0
534.204,2212.9
534.708,2205.2
535.213,2200.1
535.717,2182.75
536.222,2167.55
536.726,2173.8
537.231,2164.25
537.735,2169.25
538.239,2175.8
538.743,2158.95
539.247,2166.2
539.751,2160.25
540.255,2166.25
540.759,2163.85
541.263,2157.7
541.767,2162.95
542.271,2169.2
542.775,2173.2
543.279,2175.75
543.782,2156.4
544.286,2167.8
544.789,2159.15
545.293,2173.8
545.796,2173.85
546.3,2170.5
546.803,2171.45
547.306,2183.0
547.81,2174.8
548.313,2180.35
548.816,2184.95
549.319,2185.35
549.822,2179.15
550.325,2178.2
550.828,2188.65
551.331,2192.6
551.834,2193.5
552.337,2194.35
552.839,2191.2
553.342,2203.15
553.844,2207.65
554.347,2217.6
554.849,2213.7
555.352,2216.4
555.854,2221.9
556.357,2224.65
556.859,2243.9
557.361,2247.7
557.863,2250.5
558.365,2257.25
558.867,2253.15
559.369,2259.85
559.871,2264.5
560.373,2261.35
560.875,2270.9
561.377,2279.15
561.878,2283.05
562.38,2296.55
562.881,2295.45
563.383,2320.2
563.884,2456.05
564.386,2387.7
564.887,2377.5
565.388,2343.55
565.89,2432.85
566.391,2468.3
566.892,2345.75
567.393,2365.0
567.894,2344.15
568.395,2341.65
568.896,2350.75
569.396,2354.45
569.897,2346.15
570.398,2386.45
570.898,2412.15
571.399,2665.0
571.9,2522.25
572.4,2434.4
572.9,2403.95
573.401,2402.85
573.901,2418.8
574.401,2381.05
574.901,2385.55
575.401,2494.55
575.901,2576.7
576.401,2804.8
576.901,2674.25
577.401,2535.75
577.901,2461.8
578.4,2438.45
578.9,2458.9
579.399,2472.45
579.899,2473.2
580.398,2476.1
580.898,2489.0
581.397,2505.2
581.896,2487.0
582.395,2491.85
582.895,2509.35
583.394,2485.0
583.893,2516.3
584.391,2502.65
584.89,2523.35
585.389,2519.55
585.888,2518.85
586.386,2539.6
586.885,2540.1
587.384,2563.7
587.882,2566.8
588.38,2581.65
588.879,2591.5
589.377,2602.5
589.875,2600.95
590.373,2602.85
590.871,2621.6
591.369,2633.2
591.867,2667.05
592.365,2664.6
592.863,2658.45
593.361,2682.45
593.858,2670.3
594.356,2703.45
594.853,2706.55
595.351,2682.7
595.848,2708.8
596.345,2742.65
596.843,2757.4
597.34,2780.65
597.837,2798.15
598.334,2801.05
598.831,2827.45
599.328,2858.55
599.824,2853.45
600.321,2845.3
600.818,2883.85
601.314,2864.3
601.811,2871.45
602.307,2857.0
602.804,2853.05
603.3,2819.95
603.796,2815.55
604.293,2807.05
604.789,2758.5
605.285,2753.85
605.781,2764.4
606.277,2721.3
606.772,2672.45
607.268,2672.0
607.764,2671.15
608.259,2636.55
608.755,2618.9
609.25,2618.6
609.746,2587.8
610.241,2590.9
610.736,2594.2
611.231,2560.25
611.727,2568.2
612.222,2549.55
612.716,2550.65
613.211,2547.1
613.706,2541.95
614.201,2533.95
614.695,2529.2
615.19,2512.65
615.684,2515.8
616.179,2501.6
616.673,2512.4
617.168,2507.1
617.662,2492.25
618.156,2511.3
618.65,2495.45
619.144,2494.5
619.638,2502.7
620.131,2512.9
620.625,2482.4
621.119,2539.3
621.612,2550.6
622.106,2606.3
622.599,2585.65
623.093,2509.75
623.586,2457.75
624.079,2469.8
624.572,2465.2
625.065,2471.05
625.558,2480.95
626.051,2522.85
626.544,2759.95
627.037,4091.55
627.529,4062.0
628.022,3673.25
628.514,4572.4
629.007,3776.35
629.499,3507.25
629.991,3214.05
630.483,3152.5
630.976,2824.45
631.468,2581.5
631.959,2502.35
632.451,2440.55
632.943,2427.9
633.435,2399.7
633.926,2406.75
634.418,2391.65
634.909,2381.55
635.401,2374.05
635.892,2365.1
636.383,2355.0
636.874,2345.25
637.365,2331.55
637.856,2344.35
638.347,2354.55
638.838,2341.35
639.329,2326.15
639.819,2329.75
640.31,2327.7
640.8,2325.55
641.291,2317.45
641.781,2329.8
642.271,2316.95
642.761,2314.0
643.251,2316.4
643.741,2324.05
644.231,2327.1
644.721,2322.65
645.211,2310.0
645.7,2307.0
646.19,2310.65
646.679,2302.0
647.169,2316.25
647.658,2311.15
648.147,2315.75
648.636,2285.6
649.125,2300.7
649.614,2291.95
650.103,2284.3
650.592,2295.15
651.08,2289.25
651.569,2280.7
652.058,2271.15
652.546,2273.1
653.034,2261.1
653.523,2268.3
654.011,2270.5
654.499,2247.4
654.987,2245.35
655.475,2251.8
655.963,2251.35
656.45,2237.8
656.938,2238.65
657.425,2225.1
657.913,2204.65
658.4,2187.85
658.888,2202.65
659.375,2188.05
659.862,2187.95
660.349,2175.15
660.836,2169.35
661.079,2164.95

File: VLFR_01-LDPE_bio_Raman_8320207f.csv
nm,Intensity
526.508,830.4
527.055,832.0
527.602,831.2
528.149,830.4
528.695,829.7
529.241,830.6
529.787,831.3
530.334,829.8
530.879,830.1
531.425,830.5
531.971,841.0
532.516,833.9
533.062,831.1
533.607,831.7
534.152,893.3
534.697,883.1
535.242,870.8
535.786,860.5
536.331,858.4
536.876,856.6
537.42,855.4
537.964,852.7
538.508,852.4
539.052,852.6
539.596,849.6
540.14,847.1
540.683,846.7
541.227,846.5
541.77,848.1
542.313,845.0
542.856,847.9
543.399,847.4
543.942,845.0
544.485,845.4
545.027,845.1
545.57,844.3
546.112,845.2
546.654,843.5
547.196,844.2
547.738,844.7
548.28,844.0
548.822,843.9
549.363,845.5
549.905,842.9
550.446,843.4
550.988,844.3
551.529,842.8
552.07,843.9
552.611,845.0
553.152,846.6
553.692,847.7
554.233,848.7
554.773,845.8
555.314,847.9
555.854,852.1
556.394,850.9
556.934,851.9
557.474,853.8
558.014,857.0
558.553,859.0
559.093,856.9
559.632,855.1
560.172,856.0
560.711,855.0
561.25,856.0
561.789,855.1
562.328,858.9
562.867,860.9
563.406,866.0
563.944,908.0
564.483,880.3
565.021,877.9
565.559,870.7
566.098,909.2
566.636,875.4
567.174,874.0
567.711,872.1
568.249,871.6
568.787,870.7
569.324,872.8
569.862,878.4
570.399,880.3
570.936,886.1
571.474,954.8
572.011,914.6
572.548,892.7
573.084,887.8
573.621,890.9
574.158,901.7
574.694,895.3
575.231,897.6
575.767,928.2
576.303,1009.3
576.84,971.2
577.376,949.7
577.912,927.0
578.447,918.6
578.983,927.4
579.519,931.7
580.054,935.2
580.59,944.1
581.125,944.4
581.661,954.0
582.196,959.1
582.731,964.2
583.266,974.9
583.801,986.2
584.336,993.9
584.87,1005.9
585.405,1020.6
585.94,1034.6
586.474,1048.9
587.008,1071.5
587.543,1093.4
588.077,1114.2
588.611,1129.1
589.145,1135.0
589.679,1161.0
590.213,1187.5
590.747,1194.5
591.28,1209.1
591.814,1228.6
592.347,1232.3
592.881,1242.1
593.414,1244.9
593.947,1242.8
594.48,1265.3
595.014,1271.4
595.547,1267.7
596.079,1286.8
596.612,1295.4
597.145,1305.9
597.678,1320.0
598.21,1331.3
598.743,1345.7
599.275,1356.9
599.807,1357.9
600.34,1361.8
600.872,1376.2
601.404,1360.9
601.936,1353.9
602.468,1339.1
603.0,1335.9
603.532,1326.4
604.063,1304.2
604.595,1283.5
605.126,1259.5
605.658,1241.5
606.189,1212.8
606.721,1204.5
607.252,1192.8
607.783,1173.6
608.314,1163.7
608.845,1147.2
609.376,1145.7
609.907,1130.7
610.438,1125.3
610.968,1115.9
611.499,1111.7
612.03,1108.4
612.56,1103.0
613.091,1100.8
613.621,1096.3
614.151,1090.1
614.681,1080.7
615.212,1077.2
615.742,1071.2
616.272,1063.8
616.802,1063.7
617.332,1064.0
617.861,1059.3
618.391,1058.0
618.921,1053.4
619.45,1053.2
619.98,1049.8
620.509,1038.3
621.039,1048.1
621.568,1055.3
622.097,1072.3
622.627,1069.0
623.156,1041.0
623.685,1029.0
624.214,1031.8
624.743,1030.9
625.272,1030.4
625.801,1032.1
626.33,1061.9
626.858,1279.6
627.387,1724.2
627.916,1454.7
628.444,1639.3
628.973,1475.8
629.501,1378.5
630.029,1285.1
630.558,1256.9
631.086,1131.7
631.614,1062.7
632.142,1038.9
632.67,1022.6
633.198,1023.7
633.726,1024.4
634.254,1020.8
634.782,1024.0
635.31,1025.8
635.838,1034.7
636.365,1032.0
636.893,1032.6
637.421,1040.0
637.948,1037.3
638.476,1043.0
639.003,1049.7
639.531,1055.2
640.058,1062.8
640.585,1062.9
641.113,1070.4
641.64,1080.5
642.167,1080.6
642.694,1087.4
643.221,1086.4
643.748,1092.3
644.275,1087.4
644.802,1088.8
645.329,1093.5
645.856,1094.9
646.382,1096.1
646.909,1100.9
647.436,1096.8
647.962,1098.7
648.489,1093.9
649.016,1089.8
649.542,1099.5
650.069,1093.7
650.595,1092.9
651.121,1093.2
651.648,1099.1
652.174,1101.0
652.7,1101.5
653.227,1096.7
653.753,1099.2
654.279,1093.9
654.805,1096.7
655.331,1093.9
655.857,1090.6
656.383,1082.2
656.909,1087.3
657.435,1083.3
657.961,1068.5
658.487,1065.5
659.013,1059.2
659.538,1054.7
660.064,1045.8
660.59,1042.7
661.116,1035.1
661.641,1016.2
662.167,1016.3
662.692,1010.5
663.087,1002.8

File: VLFR_01-LDPE_bio_Raman_34228462.csv
nm,Intensity
526.547,832.9
527.095,832.35
527.642,832.2
528.189,831.3
528.736,832.3
529.283,832.65
529.829,832.15
530.376,831.9
530.922,831.45
531.468,832.8
532.014,841.25
532.56,832.7
533.106,832.25
533.651,834.4
534.196,941.35
534.742,922.8
535.287,907.25
535.832,892.15
536.376,883.7
536.921,877.15
537.465,875.2
538.01,874.7
538.554,871.3
539.098,866.6
539.642,863.05
540.186,858.9
540.729,858.6
541.273,857.8
541.816,857.9
542.36,858.15
542.903,858.35
543.446,855.9
543.988,857.25
544.531,855.25
545.074,857.7
545.616,855.7
546.158,854.35
546.701,854.75
547.243,854.35
547.785,853.9
548.326,853.75
548.868,853.0
549.41,853.5
549.951,854.65
550.492,852.3
551.034,854.8
551.575,852.8
552.116,854.45
552.656,854.15
553.197,854.65
553.738,857.15
554.278,857.8
554.819,859.1
555.359,859.2
555.899,860.15
556.439,859.7
556.979,862.9
557.519,865.0
558.058,867.35
558.598,866.95
559.137,866.05
559.677,864.9
560.216,862.85
560.755,862.4
561.294,866.6
561.833,870.3
562.371,869.75
562.91,870.55
563.449,873.8
563.987,943.4
564.525,893.75
565.064,890.35
565.602,885.6
566.14,972.7
566.678,887.6
567.216,880.9
567.753,879.8
568.291,877.1
568.828,877.6
569.366,881.1
569.903,881.95
570.44,889.9
570.977,898.0
571.514,1023.65
572.051,931.75
572.588,908.75
573.125,906.25
573.661,913.4
574.198,921.7
574.734,919.0
575.271,930.8
575.807,983.05
576.343,1072.45
576.879,1031.3
577.415,1002.6
577.951,976.4
578.486,979.45
579.022,984.9
579.557,989.7
580.093,995.55
580.628,1001.95
581.164,1003.7
581.699,1011.05
582.234,1010.05
582.769,1020.65
583.304,1019.6
583.838,1025.6
584.373,1027.25
584.908,1029.15
585.442,1030.95
585.977,1038.3
586.511,1040.5
587.045,1052.15
587.58,1055.95
588.114,1061.85
588.648,1068.75
589.182,1074.6
589.715,1085.0
590.249,1087.6
590.783,1095.8
591.316,1102.0
591.85,1107.65
592.383,1112.6
592.917,1114.25
593.45,1121.45
593.983,1128.75
594.516,1131.75
595.049,1143.2
595.582,1146.95
596.115,1161.4
596.648,1170.4
597.18,1181.15
597.713,1193.35
598.245,1207.55
598.778,1223.65
599.31,1229.15
599.842,1234.75
600.375,1234.6
600.907,1235.0
601.439,1237.9
601.971,1236.6
602.503,1232.4
603.034,1221.7
603.566,1208.5
604.098,1198.45
604.629,1185.65
605.161,1167.0
605.692,1146.55
606.224,1133.1
606.755,1122.9
607.286,1111.8
607.817,1101.25
608.348,1096.2
608.879,1086.15
609.41,1079.45
609.941,1072.4
610.472,1066.85
611.002,1057.35
611.533,1056.2
612.063,1046.05
612.594,1051.45
613.124,1044.75
613.655,1043.75
614.185,1032.55
614.715,1034.55
615.245,1027.05
615.775,1022.3
616.305,1022.8
616.835,1021.05
617.365,1017.75
617.895,1018.15
618.425,1020.05
618.954,1016.0
619.484,1015.25
620.013,1016.4
620.543,1010.75
621.072,1014.3
621.602,1025.8
622.131,1040.7
622.66,1040.1
623.189,1020.75
623.718,1004.85
624.247,1006.85
624.776,1010.1
625.305,1008.35
625.834,1016.3
626.363,1039.3
626.891,1273.7
627.42,1647.45
627.949,1397.6
628.477,1652.7
629.006,1482.15
629.534,1376.8
630.062,1280.25
630.591,1251.55
631.119,1120.25
631.647,1048.25
632.175,1021.15
632.703,1008.85
633.231,1002.65
633.759,1002.25
634.287,998.05
634.815,992.75
635.343,996.1
635.871,992.9
636.398,996.7
636.926,994.55
637.454,995.9
637.981,997.65
638.509,998.15
639.036,1000.2
639.564,1004.75
640.091,1006.55
640.618,1009.9
641.146,1013.8
641.673,1017.2
642.2,1013.95
642.727,1015.55
643.254,1022.9
643.781,1023.7
644.308,1025.9
644.835,1021.8
645.362,1022.15
645.889,1026.7
646.416,1034.15
646.942,1035.15
647.469,1036.25
647.996,1034.85
648.522,1043.2
649.049,1040.85
649.576,1040.85
650.102,1043.7
650.629,1041.45
651.155,1042.15
651.682,1045.2
652.208,1044.1
652.734,1047.6
653.261,1050.8
653.787,1047.15
654.313,1049.8
654.839,1044.6
655.365,1040.7
655.892,1038.6
656.418,1034.8
656.944,1031.8
657.47,1025.65
657.996,1022.6
658.522,1018.65
659.048,1013.6
659.574,1005.9
660.099,1001.95
660.625,995.6
661.151,986.8
661.677,983.1
662.203,975.65
662.728,970.25
663.123,966.9

File: VLFR_01-LDPE_bio_Raman_50996670.csv
nm,Intensity
526.508,829.3
527.055,830.0
527.602,830.5
528.149,829.8
528.695,831.0
529.241,830.2
529.787,830.5
530.334,831.0
530.879,830.9
531.425,830.3
531.971,843.1
532.516,832.7
533.062,831.8
533.607,831.0
534.152,856.9
534.697,857.0
535.242,853.5
535.786,850.8
536.331,850.9
536.876,850.0
537.42,853.8
537.964,851.4
538.508,852.0
539.052,851.7
539.596,851.6
540.14,850.9
540.683,851.6
541.227,850.5
541.77,849.7
542.313,850.9
542.856,851.5
543.399,852.2
543.942,848.5
544.485,852.8
545.027,851.7
545.57,852.5
546.112,851.9
546.654,851.3
547.196,850.6
547.738,850.7
548.28,854.5
548.822,851.3
549.363,851.0
549.905,850.2
550.446,852.8
550.988,854.7
551.529,855.1
552.07,853.8
552.611,853.9
553.152,854.0
553.692,853.0
554.233,852.1
554.773,853.4
555.314,852.3
555.854,856.6
556.394,857.9
556.934,855.1
557.474,854.1
558.014,856.3
558.553,853.8
559.093,856.3
559.632,853.8
560.172,857.0
560.711,858.1
561.25,857.5
561.789,857.3
562.328,856.9
562.867,857.3
563.406,861.9
563.944,863.3
564.483,865.8
565.021,863.5
565.559,861.9
566.098,868.1
566.636,864.1
567.174,861.3
567.711,861.1
568.249,860.3
568.787,865.4
569.324,864.4
569.862,862.3
570.399,866.1
570.936,866.8
571.474,873.8
572.011,870.5
572.548,866.9
573.084,866.8
573.621,868.9
574.158,868.2
574.694,867.1
575.231,868.7
575.767,870.2
576.303,883.5
576.84,876.1
577.376,876.5
577.912,870.7
578.447,868.6
578.983,870.6
579.519,871.5
580.054,873.3
580.59,872.0
581.125,872.9
581.661,873.7
582.196,874.9
582.731,873.6
583.266,877.2
583.801,880.9
584.336,878.5
584.87,882.2
585.405,879.3
585.94,883.4
586.474,885.6
587.008,884.5
587.543,888.1
588.077,890.0
588.611,889.3
589.145,892.3
589.679,895.3
590.213,896.5
590.747,899.4
591.28,900.4
591.814,907.3
592.347,906.1
592.881,911.6
593.414,912.7
593.947,921.1
594.48,928.8
595.014,935.1
595.547,939.7
596.079,944.6
596.612,954.8
597.145,959.0
597.678,969.0
598.21,981.9
598.743,994.0
599.275,993.1
599.807,1000.6
600.34,1002.4
600.872,1001.2
601.404,999.1
601.936,1004.3
602.468,1002.2
603.0,993.9
603.532,992.1
604.063,986.4
604.595,979.8
605.126,972.5
605.658,968.2
606.189,958.0
606.721,952.8
607.252,953.4
607.783,949.2
608.314,942.4
608.845,941.6
609.376,939.4
609.907,934.1
610.438,931.3
610.968,929.5
611.499,928.2
612.03,927.1
612.56,923.6
613.091,925.2
613.621,926.2
614.151,920.7
614.681,920.1
615.212,917.9
615.742,914.4
616.272,914.8
616.802,914.1
617.332,916.6
617.861,911.0
618.391,913.7
618.921,910.9
619.45,911.5
619.98,909.4
620.509,910.0
621.039,910.1
621.568,907.7
622.097,908.7
622.627,909.6
623.156,905.0
623.685,905.1
624.214,906.0
624.743,898.6
625.272,900.1
625.801,899.2
626.33,898.6
626.858,926.3
627.387,974.4
627.916,941.7
628.444,966.7
628.973,949.5
629.501,932.9
630.029,921.6
630.558,919.2
631.086,905.5
631.614,894.8
632.142,894.4
632.67,891.3
633.198,889.3
633.726,889.0
634.254,888.4
634.782,887.1
635.31,887.4
635.838,887.9
636.365,889.4
636.893,889.3
637.421,889.5
637.948,891.7
638.476,889.3
639.003,891.0
639.531,890.7
640.058,892.9
640.585,892.0
641.113,892.3
641.64,894.4
642.167,896.9
642.694,893.6
643.221,897.7
643.748,898.2
644.275,899.2
644.802,899.0
645.329,897.6
645.856,896.8
646.382,900.3
646.909,902.2
647.436,905.5
647.962,902.6
648.489,906.7
649.016,907.1
649.542,907.7
650.069,910.0
650.595,911.0
651.121,911.4
651.648,910.6
652.174,916.2
652.7,915.9
653.227,917.8
653.753,919.0
654.279,917.5
654.805,918.4
655.331,917.9
655.857,919.7
656.383,916.1
656.909,914.4
657.435,909.5
657.961,912.9
658.487,910.6
659.013,910.6
659.538,907.8
660.064,905.1
660.59,906.6
661.116,901.0
661.641,899.4
662.167,898.0
662.692,892.3
663.087,891.7

File: VLFR_01-LDPE_bio_Raman_57520014.csv
nm,Intensity
526.495,828.6
527.042,827.2
527.589,829.2
528.136,829.4
528.682,830.0
529.229,828.1
529.775,828.9
530.321,829.3
530.867,828.2
531.413,829.4
531.959,834.1
532.505,831.0
533.051,828.5
533.596,830.5
534.141,902.6
534.687,886.4
535.232,877.8
535.777,863.7
536.321,860.2
536.866,856.3
537.41,854.0
537.955,854.6
538.499,853.9
539.043,851.2
539.587,849.4
540.131,847.3
540.675,846.8
541.219,846.1
541.762,844.3
542.305,845.6
542.849,845.5
543.392,847.0
543.935,843.9
544.478,843.8
545.02,842.8
545.563,843.3
546.106,843.2
546.648,843.7
547.19,841.9
547.732,843.9
548.274,842.3
548.816,841.7
549.358,839.9
549.9,841.7
550.441,842.5
550.983,842.2
551.524,840.2
552.065,842.5
552.606,843.0
553.147,842.1
553.688,846.8
554.229,843.6
554.769,846.3
555.31,845.5
555.85,847.5
556.391,847.3
556.931,849.0
557.471,851.9
558.011,854.0
558.551,854.6
559.09,853.2
559.63,851.5
560.169,852.2
560.709,849.5
561.248,850.5
561.787,851.3
562.326,854.6
562.865,856.6
563.404,860.7
563.943,909.7
564.481,877.8
565.02,869.2
565.558,863.8
566.096,923.3
566.634,870.3
567.172,862.3
567.71,869.1
568.248,862.3
568.786,862.0
569.324,863.4
569.861,867.1
570.399,869.2
570.936,877.7
571.473,958.4
572.01,904.2
572.547,883.1
573.084,878.2
573.621,884.8
574.158,891.4
574.694,883.8
575.231,889.9
575.767,928.8
576.303,1031.5
576.84,985.4
577.376,954.1
577.912,924.8
578.448,926.0
578.984,930.0
579.519,931.6
580.055,943.8
580.59,943.6
581.126,946.1
581.661,953.9
582.196,962.8
582.731,961.4
583.267,965.6
583.801,971.3
584.336,966.1
584.871,973.3
585.406,974.9
585.94,976.8
586.475,978.1
587.009,987.2
587.543,987.7
588.078,988.8
588.612,989.7
589.146,993.3
589.68,994.8
590.214,995.4
590.747,1007.9
591.281,1004.5
591.815,1012.3
592.348,1007.3
592.881,1006.9
593.415,1006.4
593.948,1010.3
594.481,1013.7
595.014,1016.4
595.547,1019.3
596.08,1023.2
596.613,1030.7
597.146,1030.2
597.678,1035.8
598.211,1045.3
598.743,1044.1
599.276,1053.6
599.808,1053.0
600.34,1058.0
600.872,1056.9
601.404,1053.1
601.936,1053.4
602.468,1046.8
603.0,1041.4
603.532,1037.3
604.064,1032.4
604.595,1021.1
605.127,1011.8
605.658,999.3
606.189,996.5
606.721,986.4
607.252,981.8
607.783,976.1
608.314,974.2
608.845,971.2
609.376,964.1
609.907,958.7
610.438,958.7
610.968,952.2
611.499,948.7
612.029,947.5
612.56,949.8
613.09,947.6
613.621,941.3
614.151,943.8
614.681,935.8
615.211,933.8
615.741,934.3
616.271,933.6
616.801,934.0
617.331,936.2
617.861,940.0
618.39,938.0
618.92,935.6
619.45,935.4
619.979,939.2
620.509,936.2
621.038,939.7
621.567,949.1
622.096,973.4
622.626,972.0
623.155,950.2
623.684,936.3
624.213,938.9
624.742,933.1
625.271,942.0
625.799,950.5
626.328,975.0
626.857,1222.8
627.386,1671.0
627.914,1391.1
628.443,1600.3
628.971,1429.7
629.5,1325.9
630.028,1225.7
630.556,1195.9
631.084,1058.4
631.613,990.7
632.141,963.1
632.669,953.2
633.197,945.7
633.725,940.2
634.253,940.2
634.781,937.0
635.308,935.1
635.836,929.3
636.364,930.8
636.891,930.3
637.419,929.1
637.947,930.7
638.474,930.1
639.002,930.0
639.529,931.6
640.056,928.1
640.584,928.1
641.111,931.3
641.638,931.5
642.165,930.1
642.692,933.3
643.219,931.0
643.746,931.0
644.273,928.5
644.8,931.4
645.327,928.2
645.854,928.3
646.381,928.0
646.908,932.1
647.434,931.5
647.961,926.8
648.488,928.5
649.014,928.2
649.541,923.7
650.067,925.3
650.594,931.4
651.12,925.2
651.646,928.7
652.173,927.0
652.699,927.8
653.225,924.6
653.752,926.0
654.278,924.5
654.804,925.9
655.33,925.8
655.856,927.3
656.382,921.5
656.908,923.3
657.434,918.3
657.96,918.4
658.486,918.6
659.012,915.0
659.538,909.3
660.064,911.1
660.589,909.3
661.115,903.7
661.641,899.6
662.166,900.9
662.692,896.3
663.086,895.0

File: VLFR_01-LDPE_bio_Raman_a3ffbb36.csv
nm,Intensity
528.65,1837.9
529.155,1837.43
529.66,1838.4
530.165,1837.63
530.67,1839.15
531.175,1839.13
531.68,1850.53
532.185,2195.4
532.69,1839.38
533.194,1839.78
533.699,1919.47
534.204,2038.13
534.708,2006.8
535.213,1975.72
535.717,1965.13
536.222,1945.85
536.726,1935.7
537.231,1937.68
537.735,1937.45
538.239,1931.8
538.743,1925.4
539.247,1916.43
539.751,1917.03
540.255,1910.68
540.759,1908.9
541.263,1908.8
541.767,1908.57
542.271,1910.93
542.775,1908.25
543.279,1905.68
543.782,1909.22
544.286,1907.82
544.789,1909.47
545.293,1904.65
545.796,1906.07
546.3,1908.43
546.803,1906.95
547.306,1907.25
547.81,1904.75
548.313,1903.68
548.816,1901.43
549.319,1901.5
549.822,1904.3
550.325,1901.97
550.828,1903.53
551.331,1903.45
551.834,1904.1
552.337,1901.1
552.839,1902.68
553.342,1916.5
553.844,1915.88
554.347,1918.43
554.849,1922.03
555.352,1923.15
555.854,1930.93
556.357,1936.0
556.859,1939.85
557.361,1951.32
557.863,1963.72
558.365,1968.55
558.867,1957.53
559.369,1949.5
559.871,1939.7
560.373,1943.1
560.875,1944.22
561.377,1948.88
561.878,1953.28
562.38,1962.75
562.881,1974.28
563.383,1995.95
563.884,2240.73
564.386,2074.4
564.887,2044.13
565.388,2031.13
565.89,2234.88
566.391,2197.25
566.892,2012.22
567.393,2003.7
567.894,1989.65
568.395,1990.8
568.896,1994.07
569.396,2004.0
569.897,2010.63
570.398,2030.07
570.898,2067.65
571.399,2569.98
571.9,2200.4
572.4,2094.6
572.9,2064.45
573.401,2072.7
573.901,2116.82
574.401,2074.32
574.901,2096.1
575.401,2270.1
575.901,2398.63
576.401,2590.4
576.901,2498.88
577.401,2314.7
577.901,2236.65
578.4,2247.68
578.9,2274.25
579.399,2302.52
579.899,2340.93
580.398,2374.4
580.898,2402.0
581.397,2434.98
581.896,2472.0
582.395,2501.68
582.895,2551.05
583.394,2594.0
583.893,2622.55
584.391,2659.32
584.89,2675.4
585.389,2711.52
585.888,2748.48
586.386,2782.57
586.885,2843.02
587.384,2895.57
587.882,2955.73
588.38,2990.73
588.879,3034.88
589.377,3078.52
589.875,3095.3
590.373,3142.43
590.871,3206.0
591.369,3251.3
591.867,3271.93
592.365,3295.65
592.863,3310.27
593.361,3333.63
593.858,3346.93
594.356,3347.3
594.853,3403.57
595.351,3427.07
595.848,3494.8
596.345,3507.63
596.843,3510.98
597.34,3588.93
597.837,3576.32
598.334,3603.15
598.831,3652.15
599.328,3710.07
599.824,3710.05
600.321,3711.52
600.818,3667.0
601.314,3685.43
601.811,3627.13
602.307,3614.32
602.804,3586.02
603.3,3540.73
603.796,3471.63
604.293,3436.48
604.789,3378.68
605.285,3310.63
605.781,3273.15
606.277,3191.98
606.772,3190.0
607.268,3094.38
607.764,3080.57
608.259,3042.82
608.755,3015.98
609.25,2974.15
609.746,2916.1
610.241,2902.27
610.736,2880.82
611.231,2890.7
611.727,2832.88
612.222,2799.23
612.716,2771.25
613.211,2756.9
613.706,2752.45
614.201,2718.1
614.695,2695.63
615.19,2675.63
615.684,2653.15
616.179,2647.43
616.673,2634.4
617.168,2639.02
617.662,2614.88
618.156,2614.5
618.65,2597.57
619.144,2590.6
619.638,2585.3
620.131,2569.23
620.625,2600.43
621.119,2594.82
621.612,2631.18
622.106,2706.85
622.599,2644.05
623.093,2568.7
623.586,2539.8
624.079,2549.1
624.572,2546.52
625.065,2533.5
625.558,2554.27
626.051,2596.98
626.544,2913.82
627.037,4563.35
627.529,4382.83
628.022,3950.32
628.514,4512.0
629.007,4072.9
629.499,3833.7
629.991,3501.85
630.483,3410.52
630.976,3023.45
631.468,2759.4
631.959,2668.18
632.451,2598.88
632.943,2588.15
633.435,2592.52
633.926,2558.5
634.418,2584.88
634.909,2570.68
635.401,2580.18
635.892,2578.8
636.383,2599.1
636.874,2578.6
637.365,2576.45
637.856,2594.27
638.347,2606.27
638.838,2612.63
639.329,2590.25
639.819,2626.27
640.31,2617.32
640.8,2625.3
641.291,2624.93
641.781,2616.9
642.271,2623.43
642.761,2611.13
643.251,2615.65
643.741,2643.48
644.231,2626.13
644.721,2626.3
645.211,2639.0
645.7,2613.25
646.19,2616.3
646.679,2625.43
647.169,2595.88
647.658,2601.23
648.147,2604.7
648.636,2610.35
649.125,2562.3
649.614,2596.0
650.103,2550.6
650.592,2573.45
651.08,2553.95
651.569,2540.3
652.058,2560.52
652.546,2521.0
653.034,2524.52
653.523,2515.82
654.011,2505.98
654.499,2500.93
654.987,2497.63
655.475,2473.45
655.963,2458.77
656.45,2446.93
656.938,2420.77
657.425,2409.18
657.913,2405.63
658.4,2366.95
658.888,2370.18
659.375,2316.52
659.862,2326.5
660.349,2288.93
660.836,2277.9
661.079,2270.25