Folder: MPX_specDB/spectra (part 98)

File: VLFR_07-PET_bio_Raman_71e31127.csv
nm,Intensity
791.75,11514.0
792.846,10890.8
793.942,10612.3
795.037,10587.8
796.133,10446.0
797.228,10500.0
798.324,10466.2
799.419,10386.1
800.514,10345.7
801.61,10286.5
802.705,10214.0
803.8,10143.9
804.894,9994.8
805.989,9928.8
807.084,9817.0
808.178,9820.65
809.273,9652.05
810.367,9653.4
811.461,9634.5
812.556,9491.95
813.65,9458.2
814.744,9217.5
815.837,9350.05
816.931,9095.7
818.025,9139.85
819.118,8901.65
820.212,8971.5
821.305,8955.75
822.398,8802.4
823.491,8708.05
824.585,8644.25
825.677,8816.6
826.77,8494.95
827.863,8423.65
828.956,8322.6
830.048,8254.2
831.14,8257.2
832.233,8142.8
833.325,8051.5
834.417,7938.6
835.509,7919.1
836.601,7888.55
837.692,7960.55
838.784,7858.95
839.876,7741.05
840.967,7949.65
842.058,7848.8
843.149,7645.35
844.24,7588.35
845.331,7387.0
846.422,7463.05
847.513,7279.2
848.604,7252.3
849.694,7293.55
850.784,7189.1
851.875,7149.7
852.965,7206.25
854.055,7129.1
855.145,7007.65
856.235,6962.2
857.324,6950.95
858.414,6957.05
859.503,7083.7
860.593,6982.55
861.682,6867.35
862.771,6807.55
863.86,6790.0
864.949,6813.6
866.038,6610.7
867.126,6630.05
868.215,6591.85
869.303,6605.35
870.391,6603.25
871.479,6741.95
872.567,6767.6
873.655,6764.15
874.743,6503.4
875.831,6484.6
876.918,6474.15
878.006,6389.8
879.093,6327.3
880.18,6251.1
881.267,6323.4
882.354,6288.1
883.441,6182.7
884.527,6161.4
885.614,6153.45
886.7,6115.5
887.786,6021.15
888.872,6036.55
889.958,5981.6
891.044,5931.75
892.13,5904.35
893.216,5907.7
894.301,5768.65
895.386,5773.7
896.472,5717.0
897.557,5862.4
898.642,6130.7
899.726,5731.35
900.811,5548.65
901.896,5519.95
902.98,5463.0
904.064,5459.15
905.148,5501.05
906.232,5504.65
907.316,5681.35
908.4,5589.3
909.484,5428.15
910.567,5258.7
911.65,5204.9
912.734,5184.3
913.817,5080.6
914.9,5070.55
915.982,5035.55
917.065,5013.7
918.147,4984.85
919.23,4980.3
920.312,4921.35
921.394,4893.8
922.476,4878.7
923.558,4824.5
924.639,4769.95
925.721,4767.95
926.802,4751.8
927.884,4700.95
928.965,4674.8
930.046,4628.4
931.126,4617.4
932.207,4567.55
933.288,4581.15
934.368,4506.9
935.448,4505.8
936.528,4482.45
937.608,4445.35
938.688,4452.35
939.767,4406.9
940.847,4402.25
941.926,4374.8
943.005,4382.7
944.084,4335.8
945.163,4315.8
946.242,4273.8
947.321,4298.4
948.399,4256.25
949.477,4267.1
950.556,4245.45
951.634,4211.8
952.711,4211.7
953.789,4177.5
954.867,4186.85
955.944,4139.95
957.021,4150.3
958.098,4141.1
959.175,4116.0
960.252,4087.25
961.328,4106.1
962.405,4090.2
963.481,4060.35
964.557,4062.4
965.633,4052.3
966.709,4049.55
967.785,4023.45
968.86,4028.95
969.936,4014.3
971.011,4006.0
972.086,3996.8
973.161,3978.65
974.235,3976.4
975.31,3969.45
976.384,3965.95
977.459,3951.6
978.533,3946.05
979.607,3945.7
980.68,3936.05
981.754,3924.65
982.827,3924.65
983.901,3923.05
984.974,3908.2
986.047,3901.6
987.119,3896.8
988.192,3899.0
989.264,3881.7
990.337,3883.4
991.409,3877.55
992.481,3870.4
993.553,3859.5
994.624,3862.55
995.696,3854.25
996.767,3854.55
997.838,3846.5
998.909,3846.6
999.98,3835.85
1001.05,3832.45
1002.12,3829.2
1003.19,3828.65
1004.26,3823.95
1005.33,3818.45
1006.4,3816.45
1007.47,3810.55
1008.54,3812.4
1009.61,3802.85
1010.68,3805.9
1011.75,3800.25
1012.82,3797.8
1013.88,3800.0
1014.95,3791.7
1016.02,3792.55
1017.09,3788.35
1018.16,3781.65
1019.22,3787.2
1020.29,3786.95
1021.36,3784.55
1022.43,3787.75
1023.49,3781.9
1024.56,3777.15
1025.63,3778.9
1026.69,3773.05
1027.76,3766.95
1028.83,3765.2
1029.89,3763.6
1030.96,3762.1
1032.02,3762.05
1033.09,3761.25
1034.15,3761.55
1035.22,3763.6
1036.28,3760.15
1037.35,3757.95
1038.41,3756.0
1039.48,3753.1
1040.54,3749.4
1041.6,3751.55
1042.67,3751.65
1043.73,3750.15
1044.79,3748.6
1045.86,3746.35
1046.92,3746.35
1047.98,3745.3
1049.05,3745.1
1050.11,3744.55
1051.17,3744.35
1052.23,3743.25
1053.29,3744.2
1054.36,3743.0
1055.42,3742.6
1056.48,3742.85
1057.54,3742.1
1058.6,3742.35
1059.66,3741.9
1060.72,3741.35
1061.78,3740.2
1062.84,3740.85
1063.9,3741.0
1064.96,3740.25
1066.02,3738.55
1067.08,3739.8
1067.88,3738.0

File: VLFR_07-PET_bio_Raman_73bd336c.csv
nm,Intensity
791.588,11347.9
792.685,10761.7
793.781,10505.5
794.878,10417.9
795.975,10397.4
797.071,10346.3
798.168,10353.3
799.264,10318.1
800.36,10429.2
801.456,10406.5
802.552,10394.8
803.648,10147.9
804.744,10123.2
805.84,9971.6
806.936,9941.2
808.031,9850.8
809.127,9865.3
810.222,9643.3
811.317,9469.6
812.412,9591.9
813.507,9329.6
814.602,9146.1
815.697,9256.1
816.792,9074.0
817.887,9088.7
818.981,9031.7
820.076,9011.0
821.17,8904.5
822.265,8818.8
823.359,8687.9
824.453,8737.5
825.547,8677.9
826.641,8580.8
827.735,8492.0
828.828,8407.9
829.922,8336.4
831.016,8294.9
832.109,8208.2
833.202,8104.0
834.295,8140.9
835.388,8006.2
836.481,7975.1
837.574,7948.4
838.667,7950.3
839.76,7821.8
840.852,7840.5
841.945,7912.2
843.037,7620.0
844.129,7666.1
845.221,7424.6
846.314,7409.4
847.405,7333.5
848.497,7211.8
849.589,7113.2
850.68,7152.7
851.772,7112.8
852.863,7144.2
853.955,7012.8
855.046,6982.7
856.137,6964.1
857.228,6894.6
858.318,7026.4
859.409,6939.5
860.5,6987.8
861.59,6859.0
862.681,6760.3
863.771,6749.5
864.861,6730.0
865.951,6651.6
867.041,6586.7
868.131,6633.3
869.22,6562.8
870.31,6593.1
871.399,6623.7
872.488,6746.2
873.578,6668.1
874.667,6561.3
875.756,6362.9
876.845,6407.5
877.933,6362.2
879.022,6276.8
880.11,6268.4
881.199,6253.6
882.287,6218.1
883.375,6215.1
884.463,6166.0
885.551,6119.3
886.639,6067.9
887.726,6014.4
888.814,5980.8
889.901,5919.1
890.988,5898.0
892.075,5907.4
893.162,5827.5
894.249,5779.0
895.336,5723.1
896.423,5679.7
897.509,5840.5
898.595,6065.6
899.682,5752.4
900.768,5521.9
901.854,5471.0
902.94,5436.2
904.025,5443.2
905.111,5441.4
906.196,5420.4
907.282,5576.3
908.367,5523.6
909.452,5375.1
910.537,5223.4
911.622,5153.9
912.706,5095.9
913.791,5051.9
914.875,5013.2
915.959,4990.2
917.044,4945.1
918.128,4922.6
919.211,4926.0
920.295,4889.4
921.379,4843.2
922.462,4795.4
923.546,4788.7
924.629,4770.9
925.712,4753.6
926.795,4673.1
927.877,4634.1
928.96,4601.3
930.043,4583.8
931.125,4559.3
932.207,4513.3
933.289,4450.9
934.371,4475.3
935.453,4449.3
936.535,4423.8
937.616,4390.1
938.697,4372.7
939.779,4357.5
940.86,4333.6
941.941,4314.7
943.022,4308.0
944.102,4277.5
945.183,4247.9
946.263,4253.8
947.343,4224.8
948.423,4216.1
949.503,4204.3
950.583,4196.1
951.663,4167.9
952.742,4156.9
953.822,4137.5
954.901,4131.9
955.98,4124.6
957.059,4102.7
958.137,4100.5
959.216,4080.4
960.294,4068.1
961.373,4055.5
962.451,4048.6
963.529,4046.4
964.607,4031.5
965.684,4019.9
966.762,4010.9
967.839,4016.6
968.917,4005.5
969.994,4001.8
971.071,3987.3
972.147,3978.7
973.224,3972.3
974.3,3955.4
975.377,3957.0
976.453,3942.6
977.529,3942.7
978.605,3933.9
979.68,3926.8
980.756,3920.1
981.831,3912.8
982.907,3915.4
983.982,3914.8
985.057,3898.4
986.131,3898.0
987.206,3892.9
988.28,3888.2
989.355,3878.9
990.429,3868.8
991.503,3867.5
992.576,3857.2
993.65,3866.6
994.723,3852.7
995.797,3856.8
996.87,3841.8
997.943,3836.2
999.016,3838.5
1000.09,3826.9
1001.16,3831.2
1002.23,3823.6
1003.31,3823.3
1004.38,3820.5
1005.45,3814.4
1006.52,3808.3
1007.59,3807.4
1008.66,3804.1
1009.73,3800.7
1010.81,3796.4
1011.88,3797.0
1012.95,3791.8
1014.02,3791.8
1015.09,3788.5
1016.16,3785.8
1017.23,3785.6
1018.3,3781.4
1019.37,3781.0
1020.44,3780.6
1021.51,3778.3
1022.58,3778.3
1023.64,3777.6
1024.71,3775.9
1025.78,3770.6
1026.85,3767.5
1027.92,3764.4
1028.99,3758.9
1030.05,3761.0
1031.12,3757.7
1032.19,3755.3
1033.26,3754.9
1034.32,3756.7
1035.39,3755.7
1036.46,3755.9
1037.52,3750.6
1038.59,3751.2
1039.66,3750.3
1040.72,3747.3
1041.79,3744.9
1042.86,3746.0
1043.92,3746.2
1044.99,3744.3
1046.05,3741.9
1047.12,3743.8
1048.18,3741.4
1049.25,3740.9
1050.31,3739.0
1051.37,3739.6
1052.44,3740.5
1053.5,3739.4
1054.57,3738.3
1055.63,3741.2
1056.69,3737.5
1057.76,3738.1
1058.82,3736.5
1059.88,3738.5
1060.95,3736.3
1062.01,3736.8
1063.07,3737.6
1064.13,3738.6
1065.19,3737.5
1066.26,3734.0
1067.32,3734.4
1068.11,3736.4

File: VLFR_07-PET_bio_Raman_107b17f9.csv
nm,Intensity
791.75,10534.3
792.846,9906.2
793.942,9501.05
795.037,9399.65
796.133,9339.0
797.228,9347.6
798.324,9350.35
799.419,9175.2
800.514,9206.85
801.61,9280.8
802.705,8991.3
803.8,8958.85
804.894,8817.5
805.989,8823.0
807.084,8750.75
808.178,8528.85
809.273,8494.75
810.367,8575.55
811.461,8471.2
812.556,8344.2
813.65,8226.45
814.744,8238.15
815.837,8151.9
816.931,8164.6
818.025,8091.25
819.118,8017.0
820.212,7925.9
821.305,7798.4
822.398,7683.65
823.491,7679.95
824.585,7797.15
825.677,7916.9
826.77,7479.5
827.863,7456.75
828.956,7391.6
830.048,7380.7
831.14,7318.25
832.233,7227.7
833.325,7150.65
834.417,7093.65
835.509,7013.95
836.601,7109.05
837.692,7073.35
838.784,6969.85
839.876,6940.4
840.967,7248.0
842.058,6937.55
843.149,6854.25
844.24,6694.8
845.331,6629.4
846.422,6543.6
847.513,6535.75
848.604,6446.55
849.694,6459.55
850.784,6427.8
851.875,6617.45
852.965,6444.75
854.055,6313.45
855.145,6290.05
856.235,6265.5
857.324,6257.35
858.414,6356.2
859.503,6323.05
860.593,6327.95
861.682,6155.05
862.771,6084.05
863.86,6212.85
864.949,6080.15
866.038,5985.4
867.126,5984.6
868.215,5954.1
869.303,6007.2
870.391,6009.15
871.479,6213.2
872.567,6280.2
873.655,6131.9
874.743,5941.2
875.831,5889.8
876.918,5759.6
878.006,5846.7
879.093,5749.95
880.18,5678.1
881.267,5677.5
882.354,5660.1
883.441,5664.55
884.527,5651.45
885.614,5616.0
886.7,5551.95
887.786,5465.75
888.872,5470.2
889.958,5423.2
891.044,5397.8
892.13,5389.25
893.216,5295.85
894.301,5320.05
895.386,5275.45
896.472,5301.7
897.557,5748.9
898.642,5656.75
899.726,5277.0
900.811,5116.1
901.896,5088.25
902.98,5033.65
904.064,5027.75
905.148,5045.5
906.232,5239.45
907.316,5378.9
908.4,5224.45
909.484,5003.9
910.567,4876.9
911.65,4819.85
912.734,4797.05
913.817,4774.85
914.9,4720.25
915.982,4722.95
917.065,4691.45
918.147,4660.6
919.23,4654.25
920.312,4628.85
921.394,4594.3
922.476,4548.05
923.558,4551.4
924.639,4521.55
925.721,4508.25
926.802,4461.75
927.884,4426.15
928.965,4417.55
930.046,4391.5
931.126,4376.75
932.207,4360.75
933.288,4349.05
934.368,4306.3
935.448,4294.75
936.528,4268.75
937.608,4261.0
938.688,4241.65
939.767,4232.1
940.847,4214.85
941.926,4199.5
943.005,4177.4
944.084,4147.85
945.163,4161.5
946.242,4143.55
947.321,4122.75
948.399,4114.6
949.477,4099.05
950.556,4080.1
951.634,4073.9
952.711,4052.4
953.789,4048.0
954.867,4039.7
955.944,4022.9
957.021,4017.3
958.098,4003.85
959.175,3991.9
960.252,3984.8
961.328,3974.4
962.405,3975.0
963.481,3967.0
964.557,3947.25
965.633,3936.75
966.709,3941.5
967.785,3931.85
968.86,3921.2
969.936,3923.2
971.011,3904.45
972.086,3905.1
973.161,3895.35
974.235,3885.5
975.31,3884.75
976.384,3876.65
977.459,3868.9
978.533,3865.0
979.607,3856.3
980.68,3860.6
981.754,3857.0
982.827,3840.3
983.901,3842.95
984.974,3839.4
986.047,3836.3
987.119,3829.0
988.192,3827.15
989.264,3822.65
990.337,3811.05
991.409,3808.75
992.481,3807.6
993.553,3802.8
994.624,3801.2
995.696,3797.1
996.767,3793.6
997.838,3790.95
998.909,3786.4
999.98,3778.9
1001.05,3780.8
1002.12,3778.5
1003.19,3772.3
1004.26,3772.45
1005.33,3764.5
1006.4,3766.9
1007.47,3763.35
1008.54,3754.45
1009.61,3758.3
1010.68,3756.9
1011.75,3755.25
1012.82,3751.8
1013.88,3750.3
1014.95,3751.7
1016.02,3745.05
1017.09,3743.75
1018.16,3743.85
1019.22,3743.55
1020.29,3744.4
1021.36,3745.75
1022.43,3749.25
1023.49,3743.6
1024.56,3739.7
1025.63,3735.95
1026.69,3730.45
1027.76,3732.35
1028.83,3726.75
1029.89,3726.4
1030.96,3723.05
1032.02,3722.6
1033.09,3725.9
1034.15,3728.0
1035.22,3726.5
1036.28,3723.5
1037.35,3720.35
1038.41,3715.8
1039.48,3716.85
1040.54,3715.1
1041.6,3715.55
1042.67,3714.55
1043.73,3714.5
1044.79,3712.75
1045.86,3712.05
1046.92,3710.9
1047.98,3710.4
1049.05,3710.1
1050.11,3710.25
1051.17,3710.1
1052.23,3710.7
1053.29,3709.0
1054.36,3709.05
1055.42,3710.6
1056.48,3708.7
1057.54,3706.4
1058.6,3710.4
1059.66,3708.25
1060.72,3708.1
1061.78,3707.7
1062.84,3707.4
1063.9,3706.45
1064.96,3706.55
1066.02,3706.5
1067.08,3705.2
1067.88,3706.6

File: VLFR_07-PET_bio_Raman_240e6f75.csv
nm,Intensity
791.588,5754.8
792.685,5684.0
793.781,5662.6
794.878,5661.8
795.975,5640.3
797.071,5665.2
798.168,5637.5
799.264,5669.8
800.36,5644.4
801.456,5597.5
802.552,5605.8
803.648,5560.1
804.744,5544.7
805.84,5585.5
806.936,5544.6
808.031,5542.9
809.127,5517.8
810.222,5423.2
811.317,5443.7
812.412,5436.6
813.507,5346.6
814.602,5315.0
815.697,5308.6
816.792,5243.5
817.887,5232.6
818.981,5211.2
820.076,5191.4
821.17,5193.0
822.265,5130.8
823.359,5100.7
824.453,5108.8
825.547,5087.6
826.641,5095.5
827.735,5030.1
828.828,5024.7
829.922,5005.3
831.016,4966.4
832.109,4960.1
833.202,4954.2
834.295,4950.2
835.388,4895.6
836.481,4889.4
837.574,4898.9
838.667,4891.8
839.76,4845.1
840.852,4881.5
841.945,4855.9
843.037,4842.4
844.129,4812.0
845.221,4773.0
846.314,4764.1
847.405,4756.9
848.497,4739.9
849.589,4719.5
850.68,4710.9
851.772,4717.1
852.863,4671.1
853.955,4649.3
855.046,4666.6
856.137,4639.9
857.228,4638.0
858.318,4624.6
859.409,4621.7
860.5,4631.8
861.59,4590.1
862.681,4606.6
863.771,4576.4
864.861,4590.4
865.951,4562.2
867.041,4531.8
868.131,4551.3
869.22,4550.5
870.31,4529.3
871.399,4543.8
872.488,4523.1
873.578,4534.9
874.667,4527.1
875.756,4492.7
876.845,4500.1
877.933,4471.3
879.022,4473.8
880.11,4461.4
881.199,4463.5
882.287,4442.6
883.375,4418.2
884.463,4449.3
885.551,4411.5
886.639,4433.6
887.726,4389.7
888.814,4402.4
889.901,4376.0
890.988,4374.5
892.075,4360.1
893.162,4345.7
894.249,4340.8
895.336,4322.2
896.423,4314.2
897.509,4327.6
898.595,4343.0
899.682,4295.4
900.768,4249.4
901.854,4255.1
902.94,4247.4
904.025,4241.2
905.111,4230.9
906.196,4225.2
907.282,4235.3
908.367,4234.6
909.452,4203.2
910.537,4170.0
911.622,4167.3
912.706,4156.4
913.791,4144.2
914.875,4126.3
915.959,4115.6
917.044,4116.6
918.128,4099.9
919.211,4094.4
920.295,4085.5
921.379,4083.7
922.462,4063.7
923.546,4053.7
924.629,4053.5
925.712,4045.8
926.795,4036.7
927.877,4013.6
928.96,3995.7
930.043,4001.2
931.125,3986.3
932.207,3979.3
933.289,3979.6
934.371,3968.0
935.453,3965.4
936.535,3952.6
937.616,3940.9
938.697,3939.5
939.779,3944.5
940.86,3930.2
941.941,3923.6
943.022,3919.4
944.102,3911.7
945.183,3907.0
946.263,3901.9
947.343,3900.0
948.423,3896.7
949.503,3886.3
950.583,3881.4
951.663,3884.1
952.742,3872.1
953.822,3862.5
954.901,3864.1
955.98,3864.8
957.059,3860.6
958.137,3852.1
959.216,3851.1
960.294,3848.6
961.373,3845.8
962.451,3840.1
963.529,3837.7
964.607,3840.6
965.684,3833.7
966.762,3833.8
967.839,3830.6
968.917,3826.5
969.994,3831.7
971.071,3825.4
972.147,3821.4
973.224,3821.8
974.3,3815.7
975.377,3815.3
976.453,3808.3
977.529,3812.5
978.605,3810.2
979.68,3811.5
980.756,3803.7
981.831,3809.0
982.907,3801.4
983.982,3802.7
985.057,3801.2
986.131,3800.4
987.206,3797.4
988.28,3796.2
989.355,3796.7
990.429,3793.3
991.503,3792.9
992.576,3790.1
993.65,3787.6
994.723,3787.7
995.797,3789.8
996.87,3785.8
997.943,3782.9
999.016,3783.3
1000.09,3781.3
1001.16,3778.0
1002.23,3779.4
1003.31,3780.5
1004.38,3776.9
1005.45,3778.1
1006.52,3776.1
1007.59,3771.4
1008.66,3771.5
1009.73,3772.6
1010.81,3773.6
1011.88,3772.1
1012.95,3771.4
1014.02,3771.0
1015.09,3770.0
1016.16,3771.0
1017.23,3769.9
1018.3,3766.4
1019.37,3766.4
1020.44,3766.9
1021.51,3765.3
1022.58,3765.3
1023.64,3764.5
1024.71,3763.4
1025.78,3763.9
1026.85,3761.8
1027.92,3761.1
1028.99,3762.3
1030.05,3759.9
1031.12,3760.2
1032.19,3759.5
1033.26,3760.3
1034.32,3760.4
1035.39,3758.1
1036.46,3757.1
1037.52,3757.6
1038.59,3759.9
1039.66,3759.2
1040.72,3757.2
1041.79,3756.7
1042.86,3755.9
1043.92,3756.7
1044.99,3758.7
1046.05,3758.1
1047.12,3757.2
1048.18,3754.5
1049.25,3754.6
1050.31,3752.7
1051.37,3754.5
1052.44,3754.6
1053.5,3755.4
1054.57,3754.6
1055.63,3754.0
1056.69,3752.7
1057.76,3754.2
1058.82,3752.6
1059.88,3752.8
1060.95,3752.2
1062.01,3753.9
1063.07,3753.1
1064.13,3755.2
1065.19,3753.5
1066.26,3754.7
1067.32,3753.0
1068.11,3754.0

File: VLFR_07-PET_bio_Raman_284c321c.csv
nm,Intensity
791.377,13014.0
792.477,12415.3
793.576,12176.9
794.676,12098.5
795.775,11966.2
796.874,12091.5
797.973,12026.4
799.072,11948.6
800.171,11959.9
801.27,11974.5
802.368,11767.5
803.467,11704.9
804.565,11481.9
805.664,11428.8
806.762,11312.2
807.86,11200.5
808.958,11036.6
810.056,10881.3
811.153,11078.6
812.251,10894.7
813.349,10722.6
814.446,10775.6
815.543,10583.2
816.64,10409.4
817.737,10409.0
818.834,10304.8
819.931,10150.0
821.028,10115.0
822.125,10022.0
823.221,9787.0
824.317,9744.3
825.414,9825.42
826.51,9673.38
827.606,9387.0
828.702,9385.64
829.797,9309.9
830.893,9265.08
831.988,9114.74
833.084,9109.58
834.179,8927.66
835.274,8833.9
836.369,8800.42
837.464,8786.12
838.559,8746.24
839.654,8542.16
840.748,8662.26
841.843,8615.14
842.937,8467.3
844.031,8302.7
845.125,8178.54
846.219,8151.56
847.313,8042.14
848.407,7856.04
849.5,7926.46
850.593,7890.34
851.687,7796.7
852.78,7829.48
853.873,7788.7
854.966,7732.14
856.059,7692.7
857.151,7540.26
858.244,7692.72
859.336,7608.74
860.428,7475.8
861.52,7444.64
862.612,7385.66
863.704,7370.14
864.796,7341.82
865.888,7264.32
866.979,7227.12
868.07,7161.26
869.162,7101.36
870.253,7061.6
871.344,7142.64
872.434,7335.82
873.525,7224.16
874.615,7019.5
875.706,6983.28
876.796,6879.5
877.886,6779.04
878.976,6722.02
880.066,6758.96
881.156,6701.4
882.245,6636.12
883.335,6660.74
884.424,6581.86
885.513,6571.66
886.602,6404.66
887.691,6420.62
888.78,6380.6
889.868,6242.94
890.957,6308.98
892.045,6223.58
893.133,6221.5
894.221,6128.34
895.309,6051.82
896.397,6044.42
897.484,6117.92
898.571,6322.24
899.659,6093.7
900.746,5815.76
901.833,5802.0
902.92,5795.82
904.006,5706.82
905.093,5716.26
906.179,5704.88
907.266,5905.08
908.352,5824.32
909.438,5671.26
910.523,5532.12
911.609,5404.5
912.695,5437.04
913.78,5342.56
914.865,5286.48
915.95,5254.26
917.035,5222.66
918.12,5203.22
919.204,5189.96
920.289,5135.26
921.373,5097.58
922.457,5046.08
923.541,5044.02
924.625,4998.84
925.709,4969.36
926.792,4909.48
927.876,4882.34
928.959,4844.86
930.042,4807.22
931.125,4770.68
932.208,4758.66
933.29,4729.6
934.373,4694.0
935.455,4635.94
936.537,4634.9
937.619,4612.32
938.701,4571.12
939.782,4577.26
940.864,4535.9
941.945,4528.46
943.026,4488.46
944.107,4465.96
945.188,4445.66
946.269,4446.28
947.349,4425.98
948.43,4407.8
949.51,4375.02
950.59,4345.42
951.67,4324.12
952.75,4326.02
953.829,4295.06
954.909,4276.18
955.988,4271.94
957.067,4256.74
958.146,4239.64
959.224,4229.1
960.303,4193.34
961.381,4179.96
962.459,4180.7
963.537,4176.26
964.615,4147.26
965.693,4140.56
966.771,4134.88
967.848,4120.88
968.925,4121.38
970.002,4092.42
971.079,4083.82
972.156,4073.54
973.232,4059.42
974.309,4058.02
975.385,4047.22
976.461,4043.56
977.537,4033.84
978.612,4018.44
979.688,4013.46
980.763,4011.18
981.838,3996.74
982.913,3987.06
983.988,3984.4
985.063,3974.34
986.137,3965.34
987.211,3955.38
988.285,3954.62
989.359,3946.1
990.433,3943.76
991.506,3933.38
992.58,3935.7
993.653,3920.62
994.726,3914.14
995.799,3909.8
996.872,3911.04
997.944,3899.84
999.016,3896.6
1000.09,3896.5
1001.16,3889.72
1002.23,3883.62
1003.3,3877.82
1004.38,3875.84
1005.45,3870.86
1006.52,3866.58
1007.59,3864.04
1008.66,3859.54
1009.73,3854.76
1010.8,3849.48
1011.87,3850.22
1012.94,3847.14
1014.01,3844.44
1015.08,3842.22
1016.15,3837.92
1017.22,3838.64
1018.29,3833.36
1019.36,3831.14
1020.42,3828.3
1021.49,3830.12
1022.56,3833.04
1023.63,3828.12
1024.7,3824.84
1025.76,3820.7
1026.83,3818.32
1027.9,3816.1
1028.97,3811.26
1030.03,3811.98
1031.1,3808.54
1032.17,3806.88
1033.23,3807.02
1034.3,3808.1
1035.36,3808.82
1036.43,3804.84
1037.5,3805.02
1038.56,3799.46
1039.63,3799.26
1040.69,3798.44
1041.76,3796.18
1042.82,3794.0
1043.89,3793.16
1044.95,3793.0
1046.01,3792.1
1047.08,3791.88
1048.14,3790.62
1049.2,3790.52
1050.27,3789.78
1051.33,3789.48
1052.39,3788.52
1053.46,3787.86
1054.52,3787.7
1055.58,3789.1
1056.64,3787.4
1057.7,3787.54
1058.77,3786.38
1059.83,3786.7
1060.89,3785.8
1061.95,3786.16
1063.01,3785.14
1064.07,3784.56
1065.13,3784.88
1066.19,3783.82
1067.25,3784.54
1068.05,3783.8

File: VLFR_07-PET_bio_Raman_303befb3.csv
nm,Intensity
791.75,3857.05
792.846,3855.8
793.942,3858.7
795.037,3859.65
796.133,3843.35
797.228,3845.85
798.324,3849.3
799.419,3849.05
800.514,3846.35
801.61,3849.25
802.705,3843.55
803.8,3842.05
804.894,3845.1
805.989,3848.25
807.084,3852.6
808.178,3845.0
809.273,3843.45
810.367,3843.6
811.461,3838.75
812.556,3832.65
813.65,3828.35
814.744,3822.7
815.837,3822.95
816.931,3820.25
818.025,3819.5
819.118,3821.55
820.212,3824.55
821.305,3829.3
822.398,3816.05
823.491,3816.7
824.585,3826.35
825.677,3824.2
826.77,3828.85
827.863,3812.5
828.956,3818.8
830.048,3817.5
831.14,3821.9
832.233,3818.0
833.325,3813.45
834.417,3820.35
835.509,3819.85
836.601,3821.95
837.692,3823.3
838.784,3818.1
839.876,3820.25
840.967,3823.0
842.058,3822.5
843.149,3821.4
844.24,3815.8
845.331,3820.1
846.422,3817.55
847.513,3815.75
848.604,3816.8
849.694,3815.3
850.784,3814.95
851.875,3815.95
852.965,3814.2
854.055,3806.15
855.145,3814.25
856.235,3811.9
857.324,3814.8
858.414,3816.15
859.503,3811.6
860.593,3812.65
861.682,3810.55
862.771,3812.25
863.86,3809.15
864.949,3812.85
866.038,3804.2
867.126,3806.55
868.215,3807.55
869.303,3806.4
870.391,3808.15
871.479,3810.35
872.567,3808.1
873.655,3807.1
874.743,3806.8
875.831,3800.25
876.918,3804.95
878.006,3801.45
879.093,3801.25
880.18,3802.05
881.267,3800.35
882.354,3799.95
883.441,3801.0
884.527,3800.75
885.614,3795.35
886.7,3795.95
887.786,3797.2
888.872,3797.9
889.958,3795.8
891.044,3795.5
892.13,3791.5
893.216,3787.4
894.301,3783.75
895.386,3781.8
896.472,3776.9
897.557,3777.5
898.642,3779.35
899.726,3775.55
900.811,3773.1
901.896,3774.2
902.98,3776.3
904.064,3780.75
905.148,3777.95
906.232,3773.4
907.316,3774.4
908.4,3769.9
909.484,3772.55
910.567,3768.35
911.65,3771.05
912.734,3767.0
913.817,3766.85
914.9,3762.9
915.982,3764.85
917.065,3764.4
918.147,3765.95
919.23,3767.35
920.312,3767.8
921.394,3766.05
922.476,3763.85
923.558,3761.9
924.639,3761.1
925.721,3762.45
926.802,3759.55
927.884,3757.25
928.965,3756.5
930.046,3754.65
931.126,3752.65
932.207,3752.5
933.288,3751.95
934.368,3752.1
935.448,3751.9
936.528,3751.25
937.608,3752.0
938.688,3750.45
939.767,3751.05
940.847,3750.4
941.926,3751.3
943.005,3748.6
944.084,3749.5
945.163,3748.95
946.242,3749.65
947.321,3748.05
948.399,3747.45
949.477,3747.55
950.556,3746.3
951.634,3747.4
952.711,3748.1
953.789,3748.0
954.867,3745.85
955.944,3748.4
957.021,3747.05
958.098,3746.75
959.175,3745.9
960.252,3745.55
961.328,3748.55
962.405,3745.05
963.481,3745.65
964.557,3746.8
965.633,3747.2
966.709,3747.2
967.785,3749.4
968.86,3748.1
969.936,3748.85
971.011,3748.3
972.086,3747.0
973.161,3746.75
974.235,3746.8
975.31,3746.2
976.384,3746.7
977.459,3746.25
978.533,3745.9
979.607,3746.3
980.68,3746.05
981.754,3746.8
982.827,3745.55
983.901,3746.25
984.974,3746.45
986.047,3746.0
987.119,3746.15
988.192,3745.05
989.264,3747.05
990.337,3747.55
991.409,3746.5
992.481,3744.15
993.553,3746.6
994.624,3746.9
995.696,3746.7
996.767,3745.95
997.838,3746.95
998.909,3744.7
999.98,3745.55
1001.05,3744.9
1002.12,3745.0
1003.19,3745.1
1004.26,3744.6
1005.33,3744.3
1006.4,3743.7
1007.47,3744.7
1008.54,3743.85
1009.61,3743.0
1010.68,3742.45
1011.75,3744.5
1012.82,3743.65
1013.88,3744.65
1014.95,3744.4
1016.02,3744.35
1017.09,3744.45
1018.16,3742.7
1019.22,3743.75
1020.29,3742.55
1021.36,3743.95
1022.43,3743.25
1023.49,3743.4
1024.56,3742.95
1025.63,3742.2
1026.69,3744.4
1027.76,3742.8
1028.83,3743.85
1029.89,3742.25
1030.96,3742.2
1032.02,3742.95
1033.09,3741.0
1034.15,3743.35
1035.22,3743.45
1036.28,3742.0
1037.35,3741.85
1038.41,3741.75
1039.48,3741.65
1040.54,3741.75
1041.6,3741.7
1042.67,3742.45
1043.73,3741.75
1044.79,3742.0
1045.86,3741.95
1046.92,3740.4
1047.98,3741.15
1049.05,3740.25
1050.11,3739.85
1051.17,3741.6
1052.23,3741.1
1053.29,3742.3
1054.36,3740.5
1055.42,3741.95
1056.48,3742.2
1057.54,3740.6
1058.6,3739.9
1059.66,3741.25
1060.72,3741.3
1061.78,3741.25
1062.84,3740.85
1063.9,3738.9
1064.96,3741.65
1066.02,3739.25
1067.08,3740.6
1067.88,3740.75