Folder: MPX_specDB/spectra (part 6)

File: VLFR_01-LDPE_bio_Raman_86a5d224.csv
nm,Intensity
528.625,1844.8
529.13,1843.8
529.636,1844.8
530.141,1845.4
530.646,1846.5
531.152,1846.8
531.657,1887.5
532.162,3305.1
532.667,1846.1
533.172,1846.4
533.677,2035.5
534.182,2453.3
534.687,2401.3
535.192,2295.4
535.697,2223.4
536.201,2166.2
536.706,2141.5
537.211,2154.6
537.715,2147.2
538.22,2135.7
538.724,2108.9
539.229,2098.8
539.733,2081.7
540.238,2086.3
540.742,2075.9
541.246,2081.5
541.75,2083.9
542.254,2085.8
542.758,2071.5
543.262,2083.6
543.766,2082.2
544.27,2090.2
544.774,2079.5
545.278,2088.8
545.781,2093.0
546.285,2093.8
546.789,2091.0
547.292,2098.6
547.796,2099.4
548.299,2102.9
548.803,2100.0
549.306,2093.7
549.809,2090.9
550.312,2103.6
550.816,2107.8
551.319,2113.9
551.822,2107.4
552.325,2118.6
552.828,2133.7
553.33,2171.5
553.833,2178.8
554.336,2178.5
554.839,2193.1
555.341,2200.7
555.844,2220.7
556.346,2235.0
556.849,2246.8
557.351,2286.2
557.854,2318.7
558.356,2332.2
558.858,2317.0
559.36,2284.9
559.862,2283.0
560.364,2274.3
560.866,2278.9
561.368,2277.0
561.87,2296.2
562.372,2326.0
562.874,2376.3
563.375,2434.2
563.877,3073.9
564.378,2663.3
564.88,2568.1
565.381,2492.2
565.883,2949.6
566.384,2850.1
566.885,2449.5
567.386,2485.8
567.888,2398.9
568.389,2403.6
568.89,2399.6
569.391,2409.3
569.891,2435.7
570.392,2494.6
570.893,2571.2
571.394,3752.4
571.894,3030.9
572.395,2706.7
572.895,2602.4
573.396,2601.3
573.896,2719.2
574.396,2657.1
574.897,2683.7
575.397,3187.5
575.897,3510.1
576.397,4224.9
576.897,3855.5
577.397,3405.1
577.897,3191.9
578.396,3252.1
578.896,3275.2
579.396,3373.7
579.895,3453.1
580.395,3556.1
580.894,3650.0
581.393,3767.1
581.893,3805.8
582.392,3918.6
582.891,3972.9
583.39,4113.4
583.889,4127.7
584.388,4148.5
584.887,4181.6
585.386,4315.8
585.885,4307.7
586.383,4393.2
586.882,4498.3
587.381,4554.6
587.879,4680.1
588.377,4735.5
588.876,4791.2
589.374,4859.7
589.872,4898.6
590.37,4919.3
590.869,5064.7
591.367,5118.4
591.864,5239.5
592.362,5201.2
592.86,5215.7
593.358,5080.2
593.855,5199.0
594.353,5218.9
594.851,5200.3
595.348,5254.6
595.845,5318.5
596.343,5357.2
596.84,5534.5
597.337,5480.3
597.834,5539.0
598.331,5641.8
598.828,5671.8
599.325,5647.9
599.822,5884.9
600.318,5843.6
600.815,5799.9
601.311,5764.7
601.808,5924.6
602.304,5887.8
602.801,5632.3
603.297,5711.9
603.793,5484.9
604.289,5530.7
604.785,5449.5
605.281,5261.4
605.777,5094.3
606.273,4993.1
606.769,4994.1
607.265,4889.7
607.76,4810.5
608.256,4711.1
608.751,4650.6
609.246,4518.1
609.742,4503.8
610.237,4439.1
610.732,4401.4
611.227,4345.2
611.722,4306.0
612.217,4160.5
612.712,4166.9
613.207,4126.1
613.701,4091.8
614.196,4036.6
614.691,3929.4
615.185,3956.0
615.679,3904.7
616.174,3851.4
616.668,3837.3
617.162,3850.2
617.656,3829.8
618.15,3798.2
618.644,3788.5
619.138,3776.9
619.632,3727.7
620.125,3698.6
620.619,3734.7
621.112,3776.7
621.606,3877.5
622.099,4125.4
622.592,3986.3
623.086,3703.4
623.579,3557.6
624.072,3634.0
624.565,3601.1
625.058,3651.6
625.55,3667.9
626.043,3801.6
626.536,4779.6
627.028,10265.0
627.521,9832.9
628.013,8383.0
628.505,11351.3
628.998,8788.0
629.49,7780.5
629.982,6759.0
630.474,6422.3
630.966,5122.5
631.458,4224.0
631.949,3968.0
632.441,3714.8
632.933,3705.0
633.424,3661.8
633.915,3719.7
634.407,3577.3
634.898,3585.9
635.389,3522.2
635.88,3551.1
636.371,3582.0
636.862,3523.8
637.353,3564.1
637.844,3587.8
638.334,3570.9
638.825,3656.2
639.315,3623.6
639.806,3617.9
640.296,3545.0
640.786,3614.2
641.276,3542.2
641.766,3619.4
642.256,3680.4
642.746,3630.1
643.236,3554.5
643.726,3667.5
644.215,3640.7
644.705,3633.9
645.194,3607.6
645.684,3621.0
646.173,3607.9
646.662,3619.1
647.151,3513.7
647.64,3540.5
648.129,3535.6
648.618,3521.7
649.107,3489.0
649.595,3512.7
650.084,3372.4
650.572,3425.8
651.061,3401.2
651.549,3473.9
652.037,3412.0
652.526,3429.0
653.014,3333.9
653.502,3344.4
653.989,3311.4
654.477,3322.1
654.965,3258.7
655.452,3279.7
655.94,3244.5
656.427,3239.1
656.915,3211.9
657.402,3165.7
657.889,3165.8
658.376,3039.1
658.863,3012.9
659.35,2980.9
659.837,2935.3
660.323,2960.4
660.81,2850.2
661.053,2875.1

File: VLFR_01-LDPE_bio_Raman_090b7fb9.csv
nm,Intensity
528.635,1836.2
529.14,1835.6
529.645,1835.4
530.151,1835.0
530.656,1838.4
531.161,1837.1
531.666,1873.4
532.171,3706.8
532.676,1837.6
533.181,1838.4
533.686,2020.5
534.191,2409.4
534.696,2337.7
535.201,2268.0
535.705,2172.7
536.21,2124.2
536.715,2110.5
537.219,2109.9
537.724,2112.7
538.228,2078.3
538.733,2074.9
539.237,2047.1
539.741,2038.3
540.246,2022.3
540.75,2029.3
541.254,2021.6
541.758,2023.9
542.262,2028.1
542.766,2029.4
543.27,2041.5
543.774,2049.6
544.278,2040.5
544.781,2041.0
545.285,2036.5
545.789,2039.2
546.292,2045.3
546.796,2046.2
547.299,2036.0
547.803,2034.0
548.306,2023.9
548.809,2019.2
549.313,2008.2
549.816,2001.6
550.319,2009.4
550.822,2005.1
551.325,2002.8
551.828,2009.5
552.331,2010.8
552.834,2007.6
553.337,2039.5
553.839,2038.1
554.342,2060.0
554.845,2073.4
555.347,2071.5
555.85,2096.1
556.352,2109.7
556.854,2123.5
557.357,2146.6
557.859,2168.7
558.361,2188.2
558.863,2162.2
559.365,2134.1
559.867,2123.6
560.369,2114.5
560.871,2130.0
561.373,2134.2
561.875,2143.9
562.377,2166.0
562.878,2199.0
563.38,2259.5
563.881,2878.6
564.383,2504.0
564.884,2393.1
565.386,2330.1
565.887,2682.5
566.388,2605.0
566.889,2280.8
567.391,2360.6
567.892,2253.8
568.393,2258.2
568.893,2251.6
569.394,2293.6
569.895,2301.8
570.396,2346.3
570.897,2450.8
571.397,3439.8
571.898,2833.4
572.398,2560.5
572.899,2493.3
573.399,2504.9
573.899,2615.1
574.399,2534.0
574.9,2618.3
575.4,2998.4
575.9,3323.4
576.4,4081.4
576.899,3853.8
577.399,3450.8
577.899,3278.3
578.399,3372.4
578.898,3415.1
579.398,3570.5
579.897,3678.0
580.397,3816.9
580.896,3944.5
581.396,3884.4
581.895,4023.6
582.394,4062.2
582.893,4054.8
583.392,4074.5
583.891,4042.0
584.39,4015.9
584.889,3984.4
585.387,3900.3
585.886,3936.4
586.385,4010.9
586.883,4091.7
587.382,4038.1
587.88,3965.6
588.379,4039.6
588.877,4076.4
589.375,4065.8
589.873,4096.1
590.371,4123.2
590.869,4171.6
591.367,4199.7
591.865,4250.8
592.363,4180.9
592.86,4218.0
593.358,4250.7
593.856,4221.7
594.353,4302.0
594.851,4379.3
595.348,4308.4
595.845,4366.9
596.342,4447.0
596.84,4501.2
597.337,4600.0
597.834,4672.2
598.331,4710.7
598.827,4782.6
599.324,4858.3
599.821,4930.5
600.318,4942.5
600.814,4971.7
601.311,4927.4
601.807,4891.3
602.303,4849.2
602.8,4776.8
603.296,4743.0
603.792,4569.4
604.288,4451.8
604.784,4326.9
605.28,4215.2
605.776,4082.2
606.272,4087.1
606.767,3930.7
607.263,3910.6
607.758,3803.1
608.254,3701.0
608.749,3665.3
609.244,3595.1
609.74,3596.2
610.235,3510.9
610.73,3449.7
611.225,3365.6
611.72,3364.5
612.215,3268.6
612.709,3254.4
613.204,3195.4
613.699,3163.8
614.193,3145.1
614.688,3129.7
615.182,3111.1
615.676,3081.2
616.171,3058.0
616.665,3048.7
617.159,3050.8
617.653,3060.6
618.147,3035.8
618.641,3032.4
619.134,3007.6
619.628,3063.7
620.122,3037.2
620.615,3014.7
621.109,3130.3
621.602,3226.1
622.095,3371.7
622.588,3349.2
623.082,3112.8
623.575,3039.7
624.068,3020.6
624.56,3034.9
625.053,3050.2
625.546,3113.9
626.039,3269.3
626.531,4095.8
627.024,8699.5
627.516,8277.7
628.008,7219.8
628.501,10294.1
628.993,7586.1
629.485,6635.2
629.977,5753.0
630.469,5471.7
630.961,4336.5
631.452,3595.2
631.944,3349.4
632.436,3229.2
632.927,3178.4
633.418,3092.5
633.91,3039.8
634.401,3022.6
634.892,2999.3
635.383,2972.5
635.874,2965.7
636.365,2929.2
636.856,2895.2
637.347,2860.7
637.837,2877.5
638.328,2872.5
638.818,2812.7
639.309,2847.8
639.799,2827.9
640.289,2814.3
640.78,2788.2
641.27,2815.7
641.76,2797.9
642.249,2816.5
642.739,2826.4
643.229,2769.5
643.719,2823.5
644.208,2814.1
644.698,2792.8
645.187,2763.4
645.676,2793.4
646.165,2749.6
646.655,2803.2
647.144,2779.7
647.633,2730.0
648.121,2761.1
648.61,2738.6
649.099,2715.1
649.587,2712.9
650.076,2702.6
650.564,2675.9
651.053,2701.7
651.541,2737.9
652.029,2692.5
652.517,2699.7
653.005,2685.8
653.493,2674.1
653.981,2691.2
654.468,2676.5
654.956,2639.0
655.444,2666.0
655.931,2665.8
656.418,2639.2
656.906,2576.7
657.393,2575.7
657.88,2532.8
658.367,2511.6
658.854,2514.4
659.341,2463.8
659.827,2460.0
660.314,2408.3
660.8,2412.5
661.044,2413.4

File: VLFR_01-LDPE_bio_Raman_95e2f300.csv
nm,Intensity
526.495,829.2
527.042,829.1
527.589,828.9
528.136,829.7
528.682,829.4
529.229,829.5
529.775,829.9
530.321,830.0
530.867,828.8
531.413,828.8
531.959,830.9
532.505,828.5
533.051,829.3
533.596,830.0
534.141,885.5
534.687,876.6
535.232,867.6
535.777,864.3
536.321,858.8
536.866,856.8
537.41,856.5
537.955,857.3
538.499,856.5
539.043,853.1
539.587,850.8
540.131,848.3
540.675,851.1
541.219,848.6
541.762,851.5
542.305,852.2
542.849,853.5
543.392,851.9
543.935,853.5
544.478,853.0
545.02,855.0
545.563,854.7
546.106,856.4
546.648,857.1
547.19,856.3
547.732,855.3
548.274,856.4
548.816,850.8
549.358,852.4
549.9,855.1
550.441,854.9
550.983,854.7
551.524,855.5
552.065,852.6
552.606,853.8
553.147,855.7
553.688,858.3
554.229,857.0
554.769,859.4
555.31,858.8
555.85,860.1
556.391,862.9
556.931,861.0
557.471,864.4
558.011,869.2
558.551,864.9
559.09,863.2
559.63,867.2
560.169,865.0
560.709,868.1
561.248,866.7
561.787,869.3
562.326,869.2
562.865,874.5
563.404,879.1
563.943,950.3
564.481,897.5
565.02,891.4
565.558,888.9
566.096,1019.8
566.634,897.6
567.172,886.4
567.71,888.3
568.248,886.1
568.786,887.7
569.324,892.7
569.861,893.1
570.399,897.3
570.936,908.7
571.473,1026.5
572.01,925.5
572.547,913.2
573.084,914.7
573.621,921.6
574.158,935.4
574.694,934.5
575.231,955.2
575.767,1026.5
576.303,1051.8
576.84,1043.1
577.376,1031.9
577.912,1021.7
578.448,1040.1
578.984,1059.8
579.519,1074.2
580.055,1102.8
580.59,1128.1
581.126,1153.6
581.661,1175.9
582.196,1190.8
582.731,1210.9
583.267,1221.9
583.801,1231.9
584.336,1239.9
584.871,1246.7
585.406,1242.2
585.94,1256.2
586.475,1257.8
587.009,1264.9
587.543,1259.4
588.078,1260.0
588.612,1266.3
589.146,1266.5
589.68,1274.8
590.214,1281.7
590.747,1290.4
591.281,1294.4
591.815,1298.9
592.348,1293.0
592.881,1294.8
593.415,1301.6
593.948,1298.3
594.481,1290.0
595.014,1289.5
595.547,1283.1
596.08,1293.3
596.613,1288.7
597.146,1287.7
597.678,1292.3
598.211,1294.8
598.743,1302.6
599.276,1302.9
599.808,1300.3
600.34,1300.2
600.872,1286.9
601.404,1299.7
601.936,1294.7
602.468,1298.5
603.0,1283.4
603.532,1280.6
604.064,1272.3
604.595,1262.4
605.127,1240.8
605.658,1230.3
606.189,1206.3
606.721,1203.6
607.252,1196.8
607.783,1181.7
608.314,1179.6
608.845,1171.9
609.376,1151.3
609.907,1143.5
610.438,1141.9
610.968,1132.1
611.499,1126.0
612.029,1116.8
612.56,1115.3
613.09,1111.7
613.621,1106.5
614.151,1094.0
614.681,1098.4
615.211,1081.5
615.741,1082.8
616.271,1076.3
616.801,1071.2
617.331,1072.2
617.861,1076.6
618.39,1069.9
618.92,1061.0
619.45,1062.7
619.979,1062.7
620.509,1055.9
621.038,1060.7
621.567,1066.5
622.096,1079.0
622.626,1078.0
623.155,1066.0
623.684,1059.6
624.213,1068.7
624.742,1058.6
625.271,1063.3
625.799,1073.5
626.328,1088.1
626.857,1241.6
627.386,1559.9
627.914,1350.8
628.443,1463.2
628.971,1416.4
629.5,1342.0
630.028,1265.4
630.556,1258.6
631.084,1165.2
631.613,1115.0
632.141,1109.1
632.669,1100.2
633.197,1106.6
633.725,1105.5
634.253,1098.5
634.781,1103.6
635.308,1103.4
635.836,1104.3
636.364,1095.6
636.891,1100.7
637.419,1101.2
637.947,1096.7
638.474,1102.0
639.002,1101.6
639.529,1102.3
640.056,1099.0
640.584,1100.2
641.111,1099.8
641.638,1092.4
642.165,1104.8
642.692,1100.0
643.219,1093.0
643.746,1097.8
644.273,1089.8
644.8,1095.7
645.327,1084.4
645.854,1090.3
646.381,1085.5
646.908,1084.3
647.434,1090.0
647.961,1081.4
648.488,1090.7
649.014,1079.9
649.541,1079.6
650.067,1070.1
650.594,1075.3
651.12,1071.4
651.646,1067.6
652.173,1062.0
652.699,1065.1
653.225,1068.1
653.752,1062.5
654.278,1060.5
654.804,1059.6
655.33,1058.8
655.856,1053.6
656.382,1049.5
656.908,1051.9
657.434,1045.8
657.96,1041.8
658.486,1046.0
659.012,1034.3
659.538,1032.1
660.064,1030.1
660.589,1021.9
661.115,1020.6
661.641,1004.7
662.166,1006.9
662.692,1002.1
663.086,999.6

File: VLFR_01-LDPE_bio_Raman_453aed00.csv
nm,Intensity
528.626,1870.9
529.132,1870.7
529.637,1869.2
530.143,1869.7
530.648,1872.1
531.153,1871.2
531.658,1898.3
532.164,4006.5
532.669,1873.2
533.174,1870.4
533.679,1958.4
534.184,2246.5
534.689,2206.5
535.194,2170.7
535.699,2117.7
536.203,2090.3
536.708,2083.7
537.213,2074.3
537.717,2089.4
538.222,2069.2
538.726,2064.1
539.231,2056.9
539.735,2043.7
540.239,2037.2
540.744,2043.1
541.248,2033.9
541.752,2039.3
542.256,2036.2
542.76,2037.0
543.264,2030.4
543.768,2033.5
544.272,2041.3
544.776,2029.4
545.28,2030.2
545.784,2033.4
546.287,2020.1
546.791,2033.3
547.294,2029.6
547.798,2027.0
548.301,2019.7
548.805,2011.7
549.308,2027.0
549.811,2022.0
550.315,2021.9
550.818,2028.6
551.321,2021.0
551.824,2031.7
552.327,2033.1
552.83,2033.0
553.333,2046.8
553.835,2049.6
554.338,2050.1
554.841,2055.2
555.343,2058.4
555.846,2074.3
556.349,2081.2
556.851,2098.4
557.353,2098.3
557.856,2112.9
558.358,2113.1
558.86,2129.8
559.362,2097.6
559.864,2098.7
560.366,2090.2
560.868,2110.5
561.37,2108.3
561.872,2116.1
562.374,2132.6
562.876,2160.7
563.377,2184.1
563.879,2483.2
564.38,2300.7
564.882,2247.6
565.383,2206.9
565.885,2377.6
566.386,2378.5
566.887,2200.9
567.388,2221.9
567.889,2191.9
568.391,2191.6
568.892,2192.3
569.392,2197.9
569.893,2218.1
570.394,2261.6
570.895,2300.0
571.395,2794.7
571.896,2554.7
572.397,2402.0
572.897,2348.1
573.397,2359.7
573.898,2416.6
574.398,2391.8
574.898,2413.1
575.398,2624.2
575.898,2835.8
576.398,3281.0
576.898,3100.8
577.398,2884.1
577.898,2786.0
578.398,2807.1
578.897,2907.3
579.397,2951.9
579.896,3065.1
580.396,3161.5
580.895,3180.5
581.395,3281.7
581.894,3363.9
582.393,3414.6
582.892,3461.9
583.391,3554.3
583.89,3570.3
584.389,3622.4
584.888,3731.3
585.387,3747.5
585.886,3801.7
586.384,3934.8
586.883,3973.0
587.381,4135.9
587.88,4186.1
588.378,4278.9
588.876,4325.9
589.375,4430.7
589.873,4533.2
590.371,4571.3
590.869,4670.4
591.367,4828.9
591.865,4901.9
592.363,5088.4
592.86,5043.4
593.358,5044.7
593.856,5114.8
594.353,5211.8
594.851,5236.9
595.348,5445.5
595.845,5434.8
596.342,5466.4
596.84,5757.4
597.337,5750.8
597.834,5859.9
598.331,5985.9
598.828,6050.9
599.324,6066.3
599.821,6203.2
600.318,6200.6
600.814,6329.2
601.311,6262.7
601.807,6324.5
602.304,6200.4
602.8,6196.9
603.296,6080.4
603.792,5909.8
604.288,5831.7
604.784,5890.8
605.28,5588.8
605.776,5436.7
606.272,5326.1
606.767,5264.1
607.263,5022.1
607.759,4944.6
608.254,4826.8
608.749,4729.0
609.245,4653.9
609.74,4669.2
610.235,4524.8
610.73,4438.5
611.225,4419.7
611.72,4368.0
612.215,4246.0
612.71,4209.3
613.204,4199.0
613.699,4087.1
614.194,4109.4
614.688,3992.8
615.182,3971.3
615.677,3978.6
616.171,3902.7
616.665,3896.9
617.159,3877.4
617.653,3896.7
618.147,3755.8
618.641,3783.6
619.135,3769.0
619.628,3713.5
620.122,3709.5
620.615,3722.4
621.109,3696.2
621.602,3810.6
622.095,3857.4
622.589,3846.8
623.082,3630.2
623.575,3550.6
624.068,3591.9
624.561,3526.3
625.053,3588.2
625.546,3570.0
626.039,3660.3
626.531,4251.6
627.024,7465.5
627.516,7501.6
628.008,6351.7
628.501,8355.3
628.993,6767.1
629.485,5891.4
629.977,5385.6
630.469,5238.7
630.96,4512.9
631.452,3918.1
631.944,3746.8
632.435,3625.3
632.927,3606.6
633.418,3557.1
633.91,3590.0
634.401,3538.2
634.892,3610.1
635.383,3493.9
635.874,3558.6
636.365,3536.4
636.856,3581.8
637.346,3583.9
637.837,3518.6
638.327,3578.1
638.818,3562.8
639.308,3558.1
639.799,3558.6
640.289,3565.1
640.779,3593.9
641.269,3620.1
641.759,3664.8
642.249,3670.1
642.738,3693.4
643.228,3707.4
643.718,3734.6
644.207,3797.7
644.697,3710.2
645.186,3785.9
645.675,3699.6
646.164,3728.5
646.653,3666.7
647.142,3758.7
647.631,3757.1
648.12,3739.0
648.609,3654.3
649.098,3692.1
649.586,3660.4
650.075,3697.4
650.563,3692.6
651.051,3641.2
651.539,3661.7
652.027,3645.8
652.515,3662.3
653.003,3625.5
653.491,3560.2
653.979,3587.1
654.467,3599.7
654.954,3585.1
655.442,3530.9
655.929,3460.0
656.416,3447.3
656.904,3444.1
657.391,3414.0
657.878,3325.4
658.365,3328.2
658.851,3253.4
659.338,3174.2
659.825,3171.7
660.311,3070.4
660.798,3088.6
661.041,3053.3

File: VLFR_01-LDPE_bio_Raman_502bf2fa.csv
nm,Intensity
526.547,832.5
527.095,832.05
527.642,831.9
528.189,833.75
528.736,831.5
529.283,833.4
529.829,832.65
530.376,832.7
530.922,831.65
531.468,832.0
532.014,843.2
532.56,833.15
533.106,832.6
533.651,833.7
534.196,895.3
534.742,888.0
535.287,877.45
535.832,871.85
536.376,868.15
536.921,865.9
537.465,865.2
538.01,863.4
538.554,861.85
539.098,860.95
539.642,859.7
540.186,859.9
540.729,856.45
541.273,857.05
541.816,857.3
542.36,856.8
542.903,857.1
543.446,857.25
543.988,857.3
544.531,857.1
545.074,858.95
545.616,857.75
546.158,856.6
546.701,857.15
547.243,855.95
547.785,857.4
548.326,857.75
548.868,856.65
549.41,857.4
549.951,856.7
550.492,858.55
551.034,857.6
551.575,858.95
552.116,857.9
552.656,857.65
553.197,860.1
553.738,860.55
554.278,859.8
554.819,858.2
555.359,861.35
555.899,862.35
556.439,862.5
556.979,863.9
557.519,864.65
558.058,866.8
558.598,869.4
559.137,867.0
559.677,865.45
560.216,864.95
560.755,862.9
561.294,865.2
561.833,868.05
562.371,866.8
562.91,867.9
563.449,872.65
563.987,909.3
564.525,884.25
565.064,879.7
565.602,878.75
566.14,929.65
566.678,878.25
567.216,873.85
567.753,872.1
568.291,870.55
568.828,872.55
569.366,874.15
569.903,875.8
570.44,879.6
570.977,884.3
571.514,954.15
572.051,898.55
572.588,886.95
573.125,884.05
573.661,887.05
574.198,894.1
574.734,888.95
575.271,894.75
575.807,922.35
576.343,977.4
576.879,951.1
577.415,928.95
577.951,921.5
578.486,919.7
579.022,926.3
579.557,934.9
580.093,936.55
580.628,942.45
581.164,950.1
581.699,959.05
582.234,967.35
582.769,972.9
583.304,983.25
583.838,990.15
584.373,998.85
584.908,1006.15
585.442,1017.9
585.977,1025.5
586.511,1038.65
587.045,1053.4
587.58,1057.8
588.114,1069.2
588.648,1078.0
589.182,1086.6
589.715,1095.65
590.249,1108.2
590.783,1121.35
591.316,1125.5
591.85,1129.55
592.383,1135.5
592.917,1139.3
593.45,1136.8
593.983,1135.0
594.516,1141.95
595.049,1146.4
595.582,1153.0
596.115,1151.6
596.648,1158.45
597.18,1169.15
597.713,1176.25
598.245,1182.1
598.778,1190.8
599.31,1197.45
599.842,1200.45
600.375,1204.15
600.907,1203.05
601.439,1201.15
601.971,1197.9
602.503,1188.0
603.034,1179.0
603.566,1176.25
604.098,1160.4
604.629,1150.55
605.161,1132.85
605.692,1119.5
606.224,1109.2
606.755,1092.95
607.286,1087.8
607.817,1076.05
608.348,1069.8
608.879,1062.15
609.41,1057.7
609.941,1047.55
610.472,1043.0
611.002,1035.55
611.533,1032.5
612.063,1031.65
612.594,1024.8
613.124,1022.65
613.655,1023.15
614.185,1014.15
614.715,1012.7
615.245,1000.65
615.775,1005.3
616.305,995.9
616.835,994.95
617.365,997.05
617.895,994.65
618.425,988.05
618.954,989.05
619.484,988.35
620.013,984.8
620.543,979.75
621.072,980.05
621.602,984.75
622.131,995.2
622.66,988.45
623.189,973.75
623.718,972.7
624.247,973.4
624.776,971.15
625.305,973.2
625.834,973.45
626.363,985.6
626.891,1113.25
627.42,1304.6
627.949,1176.45
628.477,1305.75
629.006,1222.0
629.534,1165.05
630.062,1116.7
630.591,1105.5
631.119,1023.65
631.647,992.15
632.175,984.2
632.703,972.7
633.231,973.75
633.759,971.35
634.287,972.45
634.815,972.45
635.343,969.8
635.871,975.25
636.398,974.85
636.926,977.2
637.454,974.9
637.981,975.75
638.509,980.05
639.036,978.8
639.564,984.5
640.091,983.0
640.618,985.55
641.146,986.3
641.673,988.25
642.2,989.8
642.727,994.3
643.254,989.4
643.781,993.55
644.308,991.3
644.835,992.8
645.362,993.85
645.889,990.6
646.416,989.55
646.942,993.95
647.469,992.45
647.996,991.25
648.522,990.75
649.049,992.3
649.576,987.1
650.102,993.6
650.629,993.65
651.155,989.55
651.682,989.0
652.208,994.9
652.734,993.95
653.261,990.45
653.787,992.1
654.313,989.2
654.839,991.45
655.365,988.95
655.892,987.5
656.418,983.1
656.944,982.8
657.47,975.3
657.996,976.65
658.522,975.0
659.048,966.85
659.574,965.75
660.099,962.85
660.625,953.05
661.151,948.65
661.677,946.6
662.203,941.15
662.728,935.2
663.123,933.15

File: VLFR_01-LDPE_bio_Raman_573ace16.csv
nm,Intensity
528.626,1863.8
529.132,1863.3
529.637,1865.25
530.143,1864.2
530.648,1865.75
531.153,1865.35
531.658,1917.1
532.164,4220.3
532.669,1866.2
533.174,1866.85
533.679,1940.2
534.184,2231.2
534.689,2221.7
535.194,2269.25
535.699,2290.05
536.203,2275.45
536.708,2215.35
537.213,2257.7
537.717,2236.75
538.222,2252.65
538.726,2209.2
539.231,2204.1
539.735,2194.55
540.239,2201.95
540.744,2208.05
541.248,2223.65
541.752,2224.7
542.256,2218.4
542.76,2226.3
543.264,2229.3
543.768,2311.4
544.272,2430.05
544.776,2250.25
545.28,2250.0
545.784,2278.25
546.287,2378.1
546.791,2328.65
547.294,2271.1
547.798,2244.85
548.301,2268.5
548.805,2279.25
549.308,2303.9
549.811,2323.45
550.315,2389.4
550.818,2296.95
551.321,2277.4
551.824,2331.65
552.327,2278.9
552.83,2261.55
553.333,2277.25
553.835,2285.05
554.338,2284.3
554.841,2296.75
555.343,2289.2
555.846,2308.45
556.349,2290.55
556.851,2299.85
557.353,2294.5
557.856,2311.8
558.358,2317.25
558.86,2292.55
559.362,2309.15
559.864,2308.35
560.366,2303.1
560.868,2339.1
561.37,2329.9
561.872,2511.85
562.374,4203.65
562.876,2409.2
563.377,2368.3
563.879,2429.45
564.38,2391.4
564.882,2392.7
565.383,2387.9
565.885,2442.25
566.386,2639.45
566.887,2425.1
567.388,2398.75
567.889,2396.05
568.391,2368.9
568.892,2374.2
569.392,2397.5
569.893,2400.75
570.394,2424.4
570.895,2407.8
571.395,2592.05
571.896,2513.7
572.397,2466.6
572.897,2468.85
573.397,2464.55
573.898,2502.3
574.398,2495.7
574.898,2502.85
575.398,2551.85
575.898,2645.15
576.398,2758.35
576.898,2745.95
577.398,2682.0
577.898,2645.35
578.398,2668.05
578.897,2720.0
579.397,2761.2
579.896,2783.55
580.396,2811.55
580.895,2850.55
581.395,2885.55
581.894,2924.6
582.393,2968.0
582.892,2988.0
583.391,3028.35
583.89,3064.65
584.389,3088.7
584.888,3177.8
585.387,3199.5
585.886,3230.15
586.384,3317.7
586.883,3375.8
587.381,3462.25
587.88,3547.8
588.378,3636.65
588.876,3611.65
589.375,3697.15
589.873,3811.8
590.371,3900.15
590.869,4027.0
591.367,4079.2
591.865,4126.35
592.363,4297.6
592.86,4333.05
593.358,4433.55
593.856,4475.7
594.353,4567.25
594.851,4717.4
595.348,4825.4
595.845,5002.15
596.342,5099.35
596.84,5252.75
597.337,5422.25
597.834,5496.15
598.331,5541.4
598.828,5736.9
599.324,5864.55
599.821,5890.55
600.318,5956.85
600.814,5982.45
601.311,5883.05
601.807,5968.7
602.304,5883.6
602.8,5824.9
603.296,5720.1
603.792,5598.05
604.288,5459.0
604.784,5363.5
605.28,5207.95
605.776,5069.7
606.272,5046.25
606.767,4865.0
607.263,4755.9
607.759,4667.3
608.254,4511.6
608.749,4494.4
609.245,4387.2
609.74,4307.3
610.235,4202.25
610.73,4182.4
611.225,4136.2
611.72,4050.65
612.215,4028.05
612.71,3980.2
613.204,3934.95
613.699,3855.95
614.194,3845.1
614.688,3825.9
615.182,3823.5
615.677,3713.4
616.171,3664.1
616.665,3640.3
617.159,3636.65
617.653,3580.75
618.147,3520.7
618.641,3561.5
619.135,3466.6
619.628,3454.7
620.122,3465.45
620.615,3470.6
621.109,3404.6
621.602,3409.65
622.095,3395.9
622.589,3381.35
623.082,3342.8
623.575,3294.85
624.068,3276.9
624.561,3260.1
625.053,3255.3
625.546,3255.15
626.039,3299.05
626.531,3365.5
627.024,4113.6
627.516,4088.6
628.008,3825.05
628.501,4451.95
628.993,3887.15
629.485,3762.35
629.977,3608.2
630.469,3569.25
630.96,3326.35
631.452,3167.15
631.944,3164.0
632.435,3127.9
632.927,3110.2
633.418,3102.85
633.91,3095.65
634.401,3107.0
634.892,3141.55
635.383,3117.55
635.874,3086.3
636.365,3118.65
636.856,3127.3
637.346,3117.6
637.837,3109.9
638.327,3149.0
638.818,3146.0
639.308,3157.2
639.799,3174.65
640.289,3228.05
640.779,3182.85
641.269,3264.8
641.759,3211.45
642.249,3268.2
642.738,3295.85
643.228,3272.5
643.718,3314.9
644.207,3343.05
644.697,3332.2
645.186,3358.7
645.675,3371.3
646.164,3378.25
646.653,3393.7
647.142,3373.05
647.631,3412.5
648.12,3391.65
648.609,3388.75
649.098,3493.85
649.586,3551.0
650.075,3551.75
650.563,3529.8
651.051,3452.2
651.539,3461.15
652.027,3441.25
652.515,3438.45
653.003,3420.05
653.491,3401.05
653.979,3400.0
654.467,3364.6
654.954,3365.3
655.442,3328.35
655.929,3294.4
656.416,3259.2
656.904,3268.2
657.391,3235.25
657.878,3182.15
658.365,3100.9
658.851,3113.3
659.338,3017.45
659.825,2979.0
660.311,2980.2
660.798,2940.85
661.041,2917.05