Folder: MPX_specDB/spectra (part 16)

File: VLFR_01-LDPE_bio_Raman_ea71bcf5.csv
nm,Intensity
528.637,1833.2
529.143,1834.3
529.648,1833.4
530.153,1834.8
530.659,1835.7
531.164,1840.6
531.669,1942.5
532.174,5642.0
532.679,1837.8
533.184,1836.8
533.689,2133.9
534.194,2755.3
534.699,2622.1
535.203,2509.7
535.708,2416.0
536.213,2313.2
536.717,2319.3
537.222,2316.8
537.726,2310.8
538.231,2301.9
538.735,2252.4
539.24,2219.3
539.744,2212.2
540.248,2219.7
540.752,2187.3
541.256,2194.3
541.761,2191.3
542.265,2208.2
542.769,2204.8
543.272,2207.0
543.776,2203.4
544.28,2200.0
544.784,2200.7
545.288,2212.3
545.791,2194.2
546.295,2188.4
546.798,2208.3
547.302,2232.5
547.805,2247.6
548.308,2248.6
548.812,2230.5
549.315,2200.3
549.818,2187.3
550.321,2181.6
550.824,2180.8
551.327,2195.8
551.83,2199.8
552.333,2201.3
552.836,2198.7
553.339,2243.1
553.842,2273.2
554.344,2330.9
554.847,2298.9
555.349,2298.4
555.852,2302.2
556.354,2339.1
556.857,2364.0
557.359,2431.3
557.861,2449.7
558.363,2482.9
558.866,2488.0
559.368,2420.6
559.87,2367.6
560.372,2353.4
560.873,2362.4
561.375,2375.2
561.877,2391.2
562.379,2427.0
562.88,2499.3
563.382,2541.5
563.883,3356.1
564.385,2885.9
564.886,2785.1
565.388,2664.0
565.889,3167.4
566.39,2951.6
566.891,2629.5
567.392,2652.2
567.893,2546.3
568.394,2576.8
568.895,2671.0
569.396,2615.8
569.897,2653.0
570.398,2700.3
570.898,2946.5
571.399,4193.3
571.899,3425.9
572.4,3198.5
572.9,3156.3
573.4,3189.7
573.901,3236.9
574.401,3004.1
574.901,2948.0
575.401,3422.9
575.901,3813.6
576.401,4618.8
576.901,4308.9
577.401,3670.1
577.9,3253.3
578.4,3220.4
578.9,3285.0
579.399,3376.5
579.899,3492.7
580.398,3515.9
580.897,3612.2
581.397,3607.0
581.896,3762.8
582.395,3705.7
582.894,3767.0
583.393,3807.5
583.892,3800.1
584.391,3926.1
584.889,3970.4
585.388,3882.2
585.887,3944.4
586.385,4025.1
586.884,4081.7
587.382,4112.8
587.881,4181.9
588.379,4200.9
588.877,4257.0
589.375,4329.7
589.874,4278.6
590.372,4455.8
590.87,4415.9
591.367,4503.4
591.865,4444.8
592.363,4501.9
592.861,4509.5
593.358,4478.5
593.856,4502.1
594.353,4472.5
594.851,4498.9
595.348,4471.8
595.845,4524.9
596.342,4525.7
596.84,4674.8
597.337,4672.7
597.833,4667.1
598.33,4691.1
598.827,4806.2
599.324,4786.3
599.821,4888.2
600.317,4833.9
600.814,4842.4
601.31,4889.6
601.807,4835.7
602.303,4799.2
602.799,4725.0
603.295,4635.3
603.791,4645.7
604.287,4559.7
604.783,4427.4
605.279,4251.4
605.775,4352.5
606.271,4180.2
606.766,4169.0
607.262,4054.6
607.757,4013.6
608.253,4030.7
608.748,3880.2
609.243,3838.9
609.738,3820.0
610.233,3816.9
610.729,3820.9
611.223,3794.8
611.718,3732.3
612.213,3662.8
612.708,3629.7
613.202,3620.3
613.697,3600.1
614.192,3584.6
614.686,3568.7
615.18,3438.5
615.675,3473.8
616.169,3485.7
616.663,3458.2
617.157,3548.3
617.651,3554.7
618.145,3538.6
618.638,3489.6
619.132,3487.4
619.626,3580.4
620.119,3587.3
620.613,3552.8
621.106,3595.1
621.599,3802.6
622.093,4040.5
622.586,3876.2
623.079,3591.6
623.572,3512.5
624.065,3481.1
624.558,3514.9
625.05,3572.8
625.543,3629.7
626.036,3822.8
626.528,4947.6
627.02,11230.4
627.513,11086.8
628.005,9381.7
628.497,13031.6
628.989,9977.8
629.481,8452.4
629.973,7662.4
630.465,7061.5
630.957,5384.7
631.449,4258.2
631.94,3987.4
632.432,3687.9
632.923,3621.8
633.414,3599.1
633.906,3586.1
634.397,3565.9
634.888,3464.8
635.379,3463.3
635.87,3506.4
636.361,3488.7
636.852,3439.2
637.342,3416.8
637.833,3462.4
638.323,3390.4
638.814,3395.9
639.304,3427.5
639.794,3342.4
640.285,3388.4
640.775,3361.5
641.265,3391.5
641.755,3347.5
642.244,3420.9
642.734,3338.1
643.224,3280.1
643.713,3424.0
644.203,3305.8
644.692,3333.8
645.181,3346.2
645.671,3267.6
646.16,3238.6
646.649,3291.0
647.138,3253.6
647.627,3260.7
648.115,3214.0
648.604,3217.8
649.093,3205.0
649.581,3247.1
650.07,3170.8
650.558,3182.7
651.046,3154.0
651.534,3152.9
652.023,3142.5
652.511,3081.4
652.998,3032.5
653.486,3014.5
653.974,3051.5
654.462,2985.5
654.949,3007.8
655.437,3001.7
655.924,2962.4
656.411,2945.1
656.898,2945.6
657.385,2923.8
657.872,2844.1
658.359,2871.2
658.846,2817.5
659.333,2754.6
659.82,2754.1
660.306,2742.2
660.793,2675.2
661.036,2688.0

File: VLFR_01-LDPE_bio_Raman_eb101ddc.csv
nm,Intensity
526.495,829.1
527.042,827.6
527.589,829.6
528.136,831.1
528.682,828.0
529.229,829.3
529.775,830.6
530.321,829.5
530.867,829.7
531.413,828.0
531.959,831.0
532.505,828.5
533.051,828.2
533.596,830.0
534.141,906.4
534.687,892.3
535.232,878.2
535.777,869.7
536.321,861.2
536.866,860.3
537.41,857.9
537.955,861.0
538.499,855.6
539.043,857.5
539.587,854.4
540.131,850.6
540.675,849.4
541.219,850.6
541.762,848.4
542.305,848.8
542.849,847.7
543.392,849.7
543.935,848.2
544.478,845.6
545.02,847.0
545.563,846.0
546.106,845.7
546.648,846.7
547.19,845.3
547.732,844.7
548.274,846.6
548.816,843.7
549.358,846.3
549.9,844.6
550.441,845.5
550.983,845.5
551.524,847.7
552.065,844.8
552.606,848.8
553.147,846.9
553.688,848.8
554.229,850.4
554.769,848.0
555.31,850.9
555.85,851.3
556.391,851.5
556.931,855.7
557.471,856.8
558.011,858.6
558.551,857.1
559.09,855.0
559.63,854.2
560.169,852.4
560.709,852.0
561.248,853.8
561.787,859.8
562.326,853.7
562.865,859.3
563.404,863.7
563.943,917.2
564.481,882.5
565.02,872.7
565.558,870.2
566.096,947.7
566.634,875.2
567.172,864.8
567.71,862.9
568.248,861.8
568.786,860.3
569.324,862.2
569.861,862.8
570.399,868.2
570.936,876.8
571.473,973.4
572.01,903.2
572.547,882.1
573.084,874.0
573.621,875.7
574.158,881.8
574.694,876.3
575.231,882.8
575.767,931.9
576.303,1003.8
576.84,966.9
577.376,933.0
577.912,910.2
578.448,909.7
578.984,912.4
579.519,915.5
580.055,926.0
580.59,934.9
581.126,939.2
581.661,945.9
582.196,951.2
582.731,959.6
583.267,970.4
583.801,970.9
584.336,981.5
584.871,985.1
585.406,986.4
585.94,998.5
586.475,1004.5
587.009,1013.6
587.543,1019.2
588.078,1024.2
588.612,1035.8
589.146,1042.6
589.68,1056.4
590.214,1061.7
590.747,1075.9
591.281,1072.3
591.815,1084.6
592.348,1088.6
592.881,1090.2
593.415,1097.4
593.948,1101.8
594.481,1101.5
595.014,1109.6
595.547,1116.8
596.08,1134.0
596.613,1130.0
597.146,1140.1
597.678,1140.7
598.211,1155.9
598.743,1158.4
599.276,1169.2
599.808,1167.5
600.34,1173.5
600.872,1171.8
601.404,1168.7
601.936,1166.2
602.468,1162.6
603.0,1152.8
603.532,1139.3
604.064,1134.1
604.595,1118.1
605.127,1102.3
605.658,1086.1
606.189,1079.8
606.721,1070.9
607.252,1068.6
607.783,1060.8
608.314,1049.1
608.845,1039.8
609.376,1034.5
609.907,1027.9
610.438,1022.9
610.968,1015.1
611.499,1021.8
612.029,1008.7
612.56,1012.3
613.09,1008.3
613.621,1009.0
614.151,997.7
614.681,1001.4
615.211,996.0
615.741,989.3
616.271,984.0
616.801,982.3
617.331,986.5
617.861,986.0
618.39,980.1
618.92,978.2
619.45,975.7
619.979,980.2
620.509,978.7
621.038,977.3
621.567,983.2
622.096,1004.0
622.626,999.2
623.155,979.7
623.684,972.3
624.213,975.0
624.742,972.6
625.271,972.6
625.799,978.0
626.328,1003.1
626.857,1195.9
627.386,1602.8
627.914,1356.1
628.443,1517.0
628.971,1435.5
629.5,1337.4
630.028,1244.3
630.556,1224.4
631.084,1092.4
631.613,1029.6
632.141,1000.5
632.669,988.6
633.197,982.0
633.725,984.2
634.253,983.2
634.781,978.4
635.308,980.0
635.836,983.5
636.364,980.5
636.891,981.4
637.419,982.5
637.947,987.0
638.474,984.9
639.002,987.8
639.529,984.9
640.056,990.4
640.584,990.6
641.111,995.2
641.638,997.6
642.165,1001.0
642.692,1003.1
643.219,1003.5
643.746,1006.3
644.273,1002.6
644.8,1001.5
645.327,1002.4
645.854,1012.1
646.381,1005.1
646.908,1009.5
647.434,1010.7
647.961,1012.3
648.488,1007.5
649.014,1007.9
649.541,1006.7
650.067,1003.8
650.594,1004.2
651.12,1007.0
651.646,1009.4
652.173,1006.2
652.699,1005.8
653.225,1010.2
653.752,1006.7
654.278,1006.5
654.804,1003.5
655.33,1007.0
655.856,1001.7
656.382,997.4
656.908,998.0
657.434,997.8
657.96,993.7
658.486,991.0
659.012,986.0
659.538,977.8
660.064,974.3
660.589,966.9
661.115,966.0
661.641,959.7
662.166,952.7
662.692,947.2
663.086,946.9

File: VLFR_01-LDPE_bio_Raman_f2eb6aca.csv
nm,Intensity
528.65,1842.0
529.155,1842.15
529.66,1843.35
530.165,1843.3
530.67,1843.0
531.175,1846.6
531.68,1873.1
532.185,3798.95
532.69,1848.45
533.194,1850.25
533.699,2391.8
534.204,4693.05
534.708,4843.1
535.213,5110.5
535.717,5365.9
536.222,5234.4
536.726,5327.15
537.231,5470.25
537.735,5620.55
538.239,5612.5
538.743,5572.9
539.247,5804.3
539.751,5882.2
540.255,5956.95
540.759,6016.65
541.263,6072.75
541.767,6028.4
542.271,6157.65
542.775,6217.2
543.279,6435.45
543.782,6344.35
544.286,6381.45
544.789,6486.35
545.293,6573.25
545.796,6598.8
546.3,6809.15
546.803,6795.85
547.306,6836.8
547.81,6905.0
548.313,7000.8
548.816,6982.75
549.319,7230.95
549.822,7037.15
550.325,7235.2
550.828,7233.1
551.331,7368.6
551.834,7561.3
552.337,7666.6
552.839,7549.55
553.342,7646.7
553.844,7803.2
554.347,7958.7
554.849,7921.35
555.352,7932.95
555.854,8072.1
556.357,8023.6
556.859,8247.45
557.361,8139.95
557.863,8230.1
558.365,8370.7
558.867,8423.55
559.369,8489.65
559.871,8653.25
560.373,8541.95
560.875,8725.15
561.377,8741.0
561.878,8944.8
562.38,8902.15
562.881,8873.25
563.383,8962.55
563.884,9196.85
564.386,9175.0
564.887,9228.8
565.388,9300.55
565.89,9304.3
566.391,9474.15
566.892,9355.6
567.393,9441.65
567.894,9660.3
568.395,9711.1
568.896,9633.25
569.396,9891.55
569.897,9907.2
570.398,9836.65
570.898,9968.45
571.399,10153.7
571.9,10299.8
572.4,10366.3
572.9,10306.6
573.401,10331.3
573.901,10332.8
574.401,10303.3
574.901,10306.3
575.401,10666.6
575.901,10557.3
576.401,10904.3
576.901,10715.8
577.401,10807.1
577.901,10837.5
578.4,10687.2
578.9,10701.6
579.399,10983.8
579.899,11027.7
580.398,11408.0
580.898,11155.2
581.397,11206.8
581.896,11198.5
582.395,11257.1
582.895,11236.5
583.394,11381.2
583.893,11565.0
584.391,11371.5
584.89,11521.2
585.389,11586.9
585.888,11218.8
586.386,11665.5
586.885,11509.2
587.384,11939.4
587.882,11888.8
588.38,11632.3
588.879,11869.9
589.377,11888.8
589.875,11968.0
590.373,11955.5
590.871,11851.1
591.369,12012.3
591.867,12225.9
592.365,12394.5
592.863,11986.5
593.361,12404.5
593.858,12382.0
594.356,12202.7
594.853,12423.7
595.351,12549.0
595.848,12685.5
596.345,12847.2
596.843,12998.2
597.34,12860.8
597.837,12946.3
598.334,12787.2
598.831,13138.8
599.328,12998.5
599.824,13007.6
600.321,12862.5
600.818,13067.0
601.314,13251.6
601.811,13437.8
602.307,13270.3
602.804,13263.8
603.3,13391.2
603.796,13463.0
604.293,13618.5
604.789,13483.8
605.285,13609.7
605.781,14084.7
606.277,13642.8
606.772,13731.1
607.268,13711.2
607.764,13815.0
608.259,14097.5
608.755,14139.3
609.25,14038.2
609.746,13960.3
610.241,14242.5
610.736,14070.3
611.231,14265.4
611.727,14360.3
612.222,14043.9
612.716,14328.2
613.211,14337.7
613.706,14755.2
614.201,14581.7
614.695,14456.0
615.19,14670.2
615.684,14523.4
616.179,14500.3
616.673,14750.5
617.168,14594.2
617.662,14747.0
618.156,14751.0
618.65,14839.5
619.144,14881.0
619.638,15113.3
620.131,15200.0
620.625,15142.0
621.119,15157.0
621.612,14963.1
622.106,15241.1
622.599,14999.6
623.093,15357.2
623.586,15465.5
624.079,15378.1
624.572,15428.5
625.065,15368.7
625.558,15112.7
626.051,15085.0
626.544,15291.0
627.037,15280.8
627.529,15429.4
628.022,15477.8
628.514,15100.0
629.007,15563.0
629.499,15547.3
629.991,15524.7
630.483,15326.3
630.976,15563.8
631.468,15759.1
631.959,15284.8
632.451,15697.8
632.943,15640.5
633.435,15446.3
633.926,15757.5
634.418,15584.9
634.909,15540.5
635.401,15258.2
635.892,15721.1
636.383,15317.5
636.874,15433.7
637.365,15565.1
637.856,15641.1
638.347,15638.8
638.838,15162.2
639.329,15589.8
639.819,15592.0
640.31,15227.5
640.8,15477.8
641.291,15293.5
641.781,15263.5
642.271,15380.2
642.761,15440.2
643.251,15402.3
643.741,15648.1
644.231,15307.2
644.721,14866.2
645.211,15432.0
645.7,15285.5
646.19,15072.4
646.679,15442.5
647.169,15157.2
647.658,15227.8
648.147,14970.4
648.636,14822.6
649.125,14551.5
649.614,14743.5
650.103,14448.0
650.592,14797.7
651.08,14622.0
651.569,14934.7
652.058,14303.8
652.546,14408.0
653.034,14263.4
653.523,14496.2
654.011,13589.2
654.499,14010.0
654.987,13806.6
655.475,13900.8
655.963,14078.4
656.45,14537.8
656.938,13163.6
657.425,13864.5
657.913,13537.1
658.4,13162.5
658.888,13408.3
659.375,13450.3
659.862,12775.4
660.349,12860.0
660.836,13091.5
661.079,12724.1

File: VLFR_01-LDPE_bio_Raman_f3c4dc0f.csv
nm,Intensity
526.495,827.2
527.042,827.5
527.589,828.3
528.136,829.1
528.682,827.7
529.229,829.9
529.775,828.3
530.321,830.6
530.867,828.2
531.413,826.8
531.959,831.1
532.505,829.0
533.051,829.2
533.596,828.9
534.141,865.7
534.687,862.1
535.232,858.0
535.777,851.6
536.321,851.9
536.866,851.2
537.41,850.7
537.955,848.2
538.499,849.0
539.043,847.5
539.587,844.9
540.131,842.6
540.675,844.2
541.219,843.2
541.762,842.5
542.305,842.4
542.849,843.0
543.392,845.1
543.935,844.9
544.478,842.9
545.02,842.3
545.563,843.3
546.106,842.6
546.648,844.5
547.19,843.8
547.732,840.9
548.274,842.7
548.816,844.3
549.358,841.2
549.9,843.0
550.441,844.7
550.983,840.4
551.524,841.9
552.065,844.1
552.606,840.8
553.147,842.8
553.688,841.3
554.229,843.5
554.769,841.6
555.31,844.1
555.85,841.2
556.391,843.4
556.931,844.1
557.471,844.2
558.011,846.3
558.551,844.1
559.09,845.1
559.63,844.3
560.169,845.6
560.709,844.7
561.248,846.9
561.787,848.2
562.326,895.6
562.865,849.3
563.404,852.0
563.943,866.5
564.481,856.5
565.02,856.0
565.558,855.2
566.096,874.2
566.634,860.0
567.172,852.9
567.71,856.2
568.248,856.0
568.786,853.9
569.324,856.1
569.861,857.2
570.399,860.8
570.936,861.9
571.473,888.3
572.01,872.8
572.547,864.8
573.084,867.5
573.621,868.0
574.158,871.2
574.694,872.3
575.231,874.3
575.767,889.3
576.303,924.6
576.84,911.1
577.376,903.3
577.912,894.9
578.448,897.1
578.984,904.1
579.519,912.8
580.055,916.4
580.59,921.9
581.126,929.4
581.661,935.6
582.196,947.2
582.731,948.0
583.267,959.5
583.801,967.1
584.336,971.7
584.871,979.2
585.406,984.0
585.94,990.8
586.475,1003.1
587.009,1002.8
587.543,1015.8
588.078,1026.7
588.612,1038.1
589.146,1038.5
589.68,1053.4
590.214,1059.8
590.747,1065.4
591.281,1070.6
591.815,1079.6
592.348,1082.7
592.881,1083.8
593.415,1087.5
593.948,1083.4
594.481,1088.1
595.014,1094.9
595.547,1107.4
596.08,1114.5
596.613,1119.5
597.146,1126.7
597.678,1136.6
598.211,1144.4
598.743,1149.9
599.276,1157.5
599.808,1168.1
600.34,1170.1
600.872,1164.8
601.404,1155.0
601.936,1152.1
602.468,1146.0
603.0,1144.7
603.532,1129.5
604.064,1117.0
604.595,1104.5
605.127,1095.0
605.658,1079.5
606.189,1065.2
606.721,1059.9
607.252,1042.7
607.783,1041.4
608.314,1036.4
608.845,1026.8
609.376,1025.0
609.907,1016.6
610.438,1006.9
610.968,1002.7
611.499,998.9
612.029,992.7
612.56,997.7
613.09,993.2
613.621,987.2
614.151,982.5
614.681,977.5
615.211,977.7
615.741,970.8
616.271,971.7
616.801,967.3
617.331,966.5
617.861,964.5
618.39,959.5
618.92,955.0
619.45,956.4
619.979,954.6
620.509,951.3
621.038,946.1
621.567,953.3
622.096,960.4
622.626,957.0
623.155,950.1
623.684,945.7
624.213,943.6
624.742,947.4
625.271,947.9
625.799,948.0
626.328,955.8
626.857,1029.1
627.386,1164.2
627.914,1076.5
628.443,1147.4
628.971,1090.9
629.5,1056.9
630.028,1028.7
630.556,1016.3
631.084,983.9
631.613,962.2
632.141,949.7
632.669,947.6
633.197,947.2
633.725,949.5
634.253,948.0
634.781,953.5
635.308,952.2
635.836,950.7
636.364,952.1
636.891,952.2
637.419,956.7
637.947,958.7
638.474,952.1
639.002,959.8
639.529,958.9
640.056,957.6
640.584,959.6
641.111,960.0
641.638,964.4
642.165,966.1
642.692,965.5
643.219,966.6
643.746,963.3
644.273,966.7
644.8,962.0
645.327,969.5
645.854,969.9
646.381,962.9
646.908,968.9
647.434,966.2
647.961,967.2
648.488,967.4
649.014,971.4
649.541,967.7
650.067,966.2
650.594,964.5
651.12,968.6
651.646,966.7
652.173,969.1
652.699,967.9
653.225,968.2
653.752,971.1
654.278,967.2
654.804,965.8
655.33,964.6
655.856,962.8
656.382,963.8
656.908,961.1
657.434,961.4
657.96,952.9
658.486,954.2
659.012,946.8
659.538,949.7
660.064,945.4
660.589,935.0
661.115,931.9
661.641,926.8
662.166,922.5
662.692,918.1
663.086,919.6

File: VLFR_01-LDPE_bio_Raman_f17f7a14.csv
nm,Intensity
528.65,1839.2
529.155,1838.45
529.66,1838.55
530.165,1837.2
530.67,1837.25
531.175,1840.0
531.68,1865.6
532.185,4044.65
532.69,1840.25
533.194,1839.8
533.699,1980.2
534.204,2467.45
534.708,2417.95
535.213,2391.65
535.717,2360.6
536.222,2335.45
536.726,2337.45
537.231,2338.9
537.735,2352.05
538.239,2331.1
538.743,2320.35
539.247,2312.75
539.751,2306.55
540.255,2316.1
540.759,2314.3
541.263,2310.7
541.767,2296.95
542.271,2310.3
542.775,2312.25
543.279,2313.65
543.782,2321.5
544.286,2313.65
544.789,2313.65
545.293,2315.1
545.796,2320.1
546.3,2332.6
546.803,2332.75
547.306,2327.4
547.81,2342.25
548.313,2347.25
548.816,2345.7
549.319,2344.9
549.822,2349.7
550.325,2347.7
550.828,2365.85
551.331,2360.2
551.834,2386.8
552.337,2391.45
552.839,2385.05
553.342,2406.5
553.844,2413.5
554.347,2401.8
554.849,2414.85
555.352,2419.95
555.854,2445.3
556.357,2456.65
556.859,2453.7
557.361,2476.7
557.863,2478.35
558.365,2503.45
558.867,2490.15
559.369,2498.0
559.871,2509.85
560.373,2485.45
560.875,2510.6
561.377,2522.6
561.878,2552.6
562.38,2569.95
562.881,2600.0
563.383,2632.9
563.884,2892.8
564.386,2785.65
564.887,2752.35
565.388,2704.5
565.89,2861.95
566.391,2875.4
566.892,2728.3
567.393,2734.6
567.894,2743.95
568.395,2731.95
568.896,2762.5
569.396,2798.4
569.897,2803.4
570.398,2837.25
570.898,2900.05
571.399,3336.8
571.9,3201.5
572.4,3044.0
572.9,2945.1
573.401,2936.1
573.901,2994.6
574.401,2954.45
574.901,2952.05
575.401,3104.9
575.901,3350.2
576.401,3733.6
576.901,3513.9
577.401,3224.55
577.901,3056.8
578.4,3062.7
578.9,3083.25
579.399,3109.2
579.899,3090.35
580.398,3098.25
580.898,3110.2
581.397,3154.05
581.896,3162.35
582.395,3125.35
582.895,3124.85
583.394,3076.15
583.893,3125.6
584.391,3141.55
584.89,3137.35
585.389,3159.65
585.888,3120.6
586.386,3135.65
586.885,3128.3
587.384,3159.65
587.882,3183.3
588.38,3202.45
588.879,3205.85
589.377,3171.65
589.875,3178.7
590.373,3218.55
590.871,3205.7
591.369,3227.55
591.867,3257.4
592.365,3238.3
592.863,3265.65
593.361,3253.2
593.858,3256.3
594.356,3264.2
594.853,3269.2
595.351,3284.75
595.848,3293.1
596.345,3341.15
596.843,3345.45
597.34,3331.85
597.837,3366.0
598.334,3349.95
598.831,3393.2
599.328,3413.45
599.824,3408.1
600.321,3405.9
600.818,3403.4
601.314,3409.55
601.811,3424.2
602.307,3370.4
602.804,3369.8
603.3,3343.5
603.796,3334.35
604.293,3272.3
604.789,3281.15
605.285,3234.6
605.781,3210.25
606.277,3216.15
606.772,3156.85
607.268,3188.15
607.764,3124.45
608.259,3123.35
608.755,3092.05
609.25,3107.4
609.746,3075.95
610.241,3066.95
610.736,3046.7
611.231,3074.95
611.727,3032.85
612.222,3038.35
612.716,3030.55
613.211,3031.5
613.706,3017.55
614.201,3004.8
614.695,2988.0
615.19,2995.85
615.684,2975.25
616.179,3004.45
616.673,3024.1
617.168,2999.35
617.662,2996.15
618.156,3009.35
618.65,2991.7
619.144,3036.1
619.638,3054.1
620.131,3033.5
620.625,3057.75
621.119,3044.65
621.612,3085.75
622.106,3230.7
622.599,3170.7
623.093,3066.95
623.586,3034.45
624.079,2972.8
624.572,3001.0
625.065,3000.65
625.558,3022.0
626.051,3119.95
626.544,3515.1
627.037,5987.35
627.529,6350.95
628.022,5305.25
628.514,6912.05
629.007,5751.1
629.499,5136.9
629.991,4558.7
630.483,4476.45
630.976,3792.35
631.468,3262.2
631.959,3073.0
632.451,2972.7
632.943,2932.7
633.435,2905.35
633.926,2905.95
634.418,2871.5
634.909,2863.85
635.401,2845.9
635.892,2838.95
636.383,2809.65
636.874,2807.95
637.365,2780.3
637.856,2788.9
638.347,2791.45
638.838,2772.8
639.329,2800.85
639.819,2751.35
640.31,2781.05
640.8,2745.5
641.291,2758.3
641.781,2715.85
642.271,2706.4
642.761,2742.65
643.251,2720.75
643.741,2718.6
644.231,2719.6
644.721,2673.75
645.211,2733.65
645.7,2668.7
646.19,2685.15
646.679,2683.4
647.169,2658.5
647.658,2655.15
648.147,2665.4
648.636,2636.5
649.125,2658.5
649.614,2618.3
650.103,2627.95
650.592,2620.95
651.08,2620.75
651.569,2617.2
652.058,2589.7
652.546,2588.8
653.034,2576.15
653.523,2576.15
654.011,2560.75
654.499,2540.1
654.987,2542.75
655.475,2528.7
655.963,2519.15
656.45,2488.55
656.938,2507.35
657.425,2483.2
657.913,2468.9
658.4,2443.2
658.888,2442.15
659.375,2426.6
659.862,2387.35
660.349,2388.4
660.836,2369.2
661.079,2371.6

File: VLFR_01-LDPE_bio_Raman_f0409eea.csv
nm,Intensity
526.508,829.0
527.055,830.2
527.602,831.4
528.149,830.9
528.695,830.5
529.241,829.7
529.787,829.5
530.334,830.1
530.879,830.7
531.425,831.1
531.971,834.0
532.516,832.0
533.062,830.3
533.607,831.0
534.152,926.4
534.697,915.6
535.242,899.6
535.786,876.1
536.331,872.6
536.876,868.5
537.42,865.4
537.964,863.7
538.508,861.5
539.052,856.6
539.596,856.0
540.14,853.7
540.683,853.1
541.227,850.3
541.77,850.8
542.313,850.0
542.856,848.7
543.399,850.1
543.942,848.3
544.485,848.1
545.027,846.5
545.57,845.1
546.112,847.4
546.654,845.6
547.196,847.0
547.738,846.8
548.28,845.1
548.822,847.6
549.363,845.2
549.905,847.3
550.446,844.1
550.988,844.5
551.529,843.9
552.07,844.8
552.611,845.7
553.152,844.8
553.692,850.7
554.233,849.6
554.773,851.8
555.314,851.4
555.854,853.0
556.394,856.8
556.934,856.2
557.474,859.7
558.014,862.1
558.553,863.3
559.093,863.4
559.632,859.4
560.172,859.8
560.711,858.8
561.25,859.7
561.789,860.4
562.328,861.9
562.867,868.8
563.406,874.9
563.944,934.0
564.483,895.9
565.021,890.0
565.559,879.2
566.098,946.0
566.636,889.7
567.174,882.2
567.711,884.7
568.249,879.0
568.787,880.2
569.324,881.9
569.862,886.7
570.399,888.3
570.936,903.9
571.474,1002.0
572.011,939.6
572.548,915.7
573.084,912.0
573.621,916.6
574.158,931.3
574.694,925.2
575.231,940.1
575.767,994.4
576.303,1121.8
576.84,1074.2
577.376,1048.5
577.912,1010.9
578.447,1024.2
578.983,1046.7
579.519,1060.2
580.054,1073.3
580.59,1090.8
581.125,1112.6
581.661,1125.0
582.196,1142.6
582.731,1157.8
583.266,1175.8
583.801,1186.3
584.336,1206.3
584.87,1214.7
585.405,1228.3
585.94,1243.5
586.474,1269.7
587.008,1295.9
587.543,1322.3
588.077,1341.9
588.611,1368.4
589.145,1384.1
589.679,1417.0
590.213,1434.0
590.747,1466.2
591.28,1492.7
591.814,1488.7
592.347,1497.9
592.881,1508.3
593.414,1514.0
593.947,1523.1
594.48,1511.3
595.014,1520.7
595.547,1548.1
596.079,1545.0
596.612,1545.0
597.145,1567.7
597.678,1569.5
598.21,1579.5
598.743,1604.0
599.275,1615.3
599.807,1621.8
600.34,1611.0
600.872,1610.7
601.404,1607.0
601.936,1594.5
602.468,1569.5
603.0,1552.6
603.532,1542.5
604.063,1516.3
604.595,1489.1
605.126,1466.5
605.658,1419.1
606.189,1406.0
606.721,1384.1
607.252,1349.8
607.783,1341.2
608.314,1322.8
608.845,1305.2
609.376,1288.4
609.907,1269.8
610.438,1254.1
610.968,1237.4
611.499,1229.0
612.03,1230.8
612.56,1220.0
613.091,1210.6
613.621,1206.5
614.151,1190.0
614.681,1188.2
615.212,1183.5
615.742,1168.9
616.272,1162.2
616.802,1161.7
617.332,1153.6
617.861,1148.0
618.391,1138.5
618.921,1134.2
619.45,1138.3
619.98,1131.4
620.509,1127.6
621.039,1129.8
621.568,1139.2
622.097,1168.3
622.627,1160.8
623.156,1124.6
623.685,1117.8
624.214,1116.1
624.743,1115.1
625.272,1121.8
625.801,1134.1
626.33,1157.8
626.858,1437.4
627.387,1973.1
627.916,1631.6
628.444,1899.9
628.973,1697.1
629.501,1556.0
630.029,1439.3
630.558,1419.3
631.086,1272.9
631.614,1187.6
632.142,1159.7
632.67,1142.9
633.198,1135.8
633.726,1140.1
634.254,1139.9
634.782,1135.2
635.31,1137.3
635.838,1139.3
636.365,1131.0
636.893,1134.0
637.421,1147.4
637.948,1149.5
638.476,1147.1
639.003,1145.6
639.531,1151.8
640.058,1151.8
640.585,1164.4
641.113,1159.1
641.64,1164.9
642.167,1174.9
642.694,1171.0
643.221,1163.8
643.748,1176.9
644.275,1183.6
644.802,1175.0
645.329,1171.5
645.856,1174.2
646.382,1174.3
646.909,1178.5
647.436,1177.6
647.962,1181.0
648.489,1172.2
649.016,1176.4
649.542,1171.7
650.069,1164.2
650.595,1168.9
651.121,1171.9
651.648,1173.4
652.174,1169.9
652.7,1174.5
653.227,1176.4
653.753,1172.1
654.279,1164.9
654.805,1172.6
655.331,1165.5
655.857,1160.7
656.383,1155.4
656.909,1157.0
657.435,1146.9
657.961,1131.2
658.487,1127.9
659.013,1123.4
659.538,1119.3
660.064,1110.2
660.59,1102.3
661.116,1088.2
661.641,1079.3
662.167,1067.9
662.692,1060.4
663.087,1048.5