Folder: MPX_specDB/spectra (part 64)

File: VLFR_02-HDPE_nobio_Raman_c77363d1.csv
nm,Intensity
526.532,829.067
527.079,828.9
527.625,829.6
528.172,829.467
528.718,829.733
529.265,828.767
529.811,829.067
530.357,829.0
530.903,829.6
531.449,829.367
531.994,835.267
532.54,828.9
533.085,829.033
533.63,830.433
534.176,904.767
534.721,891.633
535.266,876.967
535.81,865.733
536.355,860.5
536.9,856.7
537.444,855.733
537.988,856.2
538.533,852.633
539.077,849.433
539.621,846.5
540.165,845.6
540.708,845.1
541.252,844.7
541.795,844.133
542.339,843.767
542.882,844.0
543.425,843.133
543.968,844.067
544.511,843.133
545.054,842.8
545.597,841.933
546.139,842.467
546.682,843.433
547.224,843.4
547.766,843.433
548.308,842.3
548.85,842.167
549.392,843.567
549.934,842.233
550.475,842.8
551.017,841.633
551.558,843.1
552.1,842.967
552.641,842.967
553.182,845.1
553.723,845.467
554.264,845.633
554.804,846.933
555.345,847.533
555.885,847.967
556.426,848.767
556.966,852.133
557.506,851.0
558.046,855.8
558.586,855.633
559.126,853.767
559.665,852.533
560.205,852.767
560.745,852.067
561.284,851.4
561.823,851.933
562.362,853.6
562.901,857.8
563.44,861.933
563.979,996.0
564.518,883.033
565.056,876.2
565.595,875.567
566.133,1129.93
566.671,875.167
567.21,863.567
567.748,859.933
568.285,856.667
568.823,856.167
569.361,857.867
569.899,858.567
570.436,863.933
570.974,870.5
571.511,1109.03
572.048,890.967
572.585,867.6
573.122,862.3
573.659,862.7
574.196,872.667
574.733,860.267
575.269,883.2
575.806,963.8
576.342,1000.03
576.878,950.467
577.414,911.367
577.951,877.833
578.486,873.733
579.022,874.8
579.558,875.1
580.094,876.567
580.629,879.7
581.165,882.133
581.7,883.833
582.236,889.733
582.771,888.767
583.306,893.333
583.841,896.567
584.376,898.3
584.911,903.367
585.445,904.567
585.98,909.033
586.514,910.867
587.049,913.9
587.583,917.033
588.117,918.633
588.651,918.667
589.186,921.633
589.72,923.9
590.253,926.367
590.787,930.933
591.321,933.733
591.854,933.7
592.388,935.367
592.921,936.667
593.455,938.667
593.988,939.7
594.521,939.333
595.054,941.833
595.587,944.4
596.12,945.3
596.653,943.433
597.186,942.867
597.718,946.133
598.251,946.2
598.783,948.7
599.316,950.0
599.848,951.767
600.38,948.567
600.912,945.6
601.444,945.433
601.976,949.2
602.508,948.933
603.04,946.533
603.572,945.933
604.103,945.633
604.635,943.067
605.167,940.867
605.698,939.067
606.229,934.367
606.761,932.333
607.292,931.133
607.823,933.933
608.354,929.6
608.885,929.467
609.416,928.2
609.947,927.467
610.477,926.133
611.008,929.733
611.539,927.267
612.069,922.367
612.6,921.8
613.13,920.233
613.66,918.867
614.19,918.033
614.721,916.7
615.251,914.367
615.781,916.1
616.311,916.2
616.841,918.733
617.37,918.467
617.9,919.8
618.43,917.7
618.96,916.4
619.489,916.633
620.019,916.3
620.548,916.3
621.077,921.6
621.607,928.067
622.136,951.067
622.665,943.8
623.194,919.967
623.723,913.033
624.252,911.067
624.781,910.7
625.31,916.067
625.839,926.033
626.368,953.8
626.896,1220.67
627.425,1642.73
627.953,1326.67
628.482,1553.6
629.01,1403.47
629.539,1293.13
630.067,1183.73
630.596,1154.13
631.124,1013.67
631.652,943.967
632.18,925.067
632.708,917.9
633.236,912.767
633.764,908.833
634.292,906.367
634.82,906.0
635.348,904.5
635.876,904.6
636.403,904.367
636.931,905.2
637.459,900.367
637.986,901.633
638.514,903.467
639.041,902.9
639.568,902.8
640.096,902.233
640.623,901.967
641.15,900.833
641.678,904.7
642.205,902.4
642.732,902.1
643.259,903.3
643.786,900.433
644.313,903.0
644.84,901.967
645.367,903.4
645.894,903.367
646.421,904.2
646.948,901.533
647.474,902.867
648.001,903.4
648.528,902.9
649.054,900.6
649.581,899.5
650.108,898.9
650.634,896.8
651.161,898.6
651.687,899.867
652.214,899.033
652.74,895.967
653.266,896.867
653.793,897.8
654.319,896.233
654.845,896.367
655.371,894.733
655.897,893.633
656.424,893.4
656.95,894.0
657.476,893.0
658.002,891.0
658.528,891.667
659.054,889.533
659.58,890.9
660.106,891.633
660.631,888.7
661.157,885.2
661.683,885.467
662.209,885.167
662.735,882.433
663.129,882.533

File: VLFR_02-HDPE_nobio_Raman_c4353920.csv
cm-1,Intensity
-123.878,1851.85
-105.821,1852.95
-87.8007,1853.35
-69.8161,1852.95
-51.8675,1852.55
-33.9547,1854.15
-16.0776,1880.55
1.76388,3389.1
19.5698,1853.7
37.3403,1853.55
55.0755,1891.65
72.7754,1985.8
90.4402,1992.0
108.07,1991.05
125.665,1990.35
143.225,1979.2
160.75,1980.2
178.241,1975.45
195.697,1984.15
213.119,1979.35
230.506,1970.4
247.859,1979.6
265.178,1974.25
282.463,1973.05
299.713,1978.95
316.93,1977.6
334.113,1975.2
351.263,1984.55
368.379,1985.1
385.461,1981.7
402.51,1988.1
419.526,1983.5
436.508,1987.8
453.458,1988.4
470.374,1991.65
487.257,1991.1
504.107,1989.55
520.925,1994.4
537.71,1994.8
554.462,1997.55
571.182,1995.2
587.87,1993.35
604.525,1995.7
621.148,2000.9
637.739,1997.7
654.297,1993.85
670.824,1999.4
687.319,2002.5
703.782,2004.4
720.213,2007.6
736.613,2002.75
752.981,2002.5
769.317,2018.0
785.623,2002.2
801.897,2014.55
818.139,2013.55
834.351,2023.0
850.532,2007.65
866.681,2019.25
882.8,2027.2
898.888,2023.55
914.945,2023.65
930.972,2026.25
946.968,2026.9
962.934,2025.4
978.869,2026.9
994.774,2039.35
1010.65,2042.1
1026.49,2044.25
1042.31,2052.7
1058.09,2133.55
1073.85,2071.35
1089.57,2084.4
1105.27,2070.85
1120.93,2138.1
1136.57,2135.8
1152.18,2073.25
1167.75,2076.5
1183.3,2063.55
1198.82,2071.6
1214.31,2072.75
1229.77,2079.4
1245.2,2083.85
1260.6,2087.4
1275.97,2101.35
1291.32,2242.2
1306.63,2129.9
1321.92,2123.0
1337.18,2107.7
1352.41,2115.1
1367.61,2120.9
1382.78,2116.6
1397.93,2126.95
1413.05,2198.4
1428.14,2213.65
1443.2,2278.2
1458.23,2235.8
1473.23,2222.3
1488.21,2200.6
1503.16,2189.65
1518.08,2208.85
1532.97,2234.8
1547.84,2234.4
1562.68,2259.45
1577.49,2280.8
1592.27,2276.15
1607.03,2293.75
1621.76,2324.3
1636.46,2314.65
1651.14,2360.4
1665.78,2382.7
1680.41,2381.2
1695.0,2406.8
1709.57,2433.65
1724.11,2469.0
1738.62,2478.75
1753.11,2504.05
1767.57,2539.6
1782.01,2561.35
1796.41,2605.2
1810.8,2611.6
1825.15,2619.05
1839.48,2670.4
1853.79,2695.5
1868.06,2740.8
1882.31,2766.25
1896.54,2794.7
1910.74,2787.75
1924.91,2859.45
1939.06,2897.0
1953.19,2936.65
1967.28,2933.75
1981.35,2974.8
1995.4,3034.1
2009.42,3056.25
2023.42,3168.75
2037.39,3131.0
2051.33,3228.2
2065.25,3214.85
2079.15,3286.25
2093.01,3313.85
2106.86,3367.05
2120.68,3389.2
2134.47,3406.6
2148.24,3408.0
2161.99,3437.6
2175.71,3433.7
2189.41,3448.25
2203.08,3470.8
2216.73,3420.3
2230.35,3430.05
2243.95,3382.65
2257.52,3404.1
2271.07,3330.95
2284.6,3329.1
2298.1,3301.25
2311.58,3246.75
2325.03,3251.45
2338.46,3198.5
2351.87,3161.8
2365.25,3159.3
2378.61,3123.25
2391.94,3091.75
2405.26,3091.55
2418.54,3048.0
2431.81,3047.3
2445.05,3028.85
2458.27,2991.45
2471.46,2942.4
2484.63,2962.65
2497.78,2913.1
2510.9,2946.9
2524.0,2898.0
2537.08,2866.6
2550.14,2863.8
2563.17,2847.1
2576.18,2819.95
2589.17,2804.2
2602.13,2787.2
2615.07,2789.05
2627.99,2760.3
2640.89,2751.95
2653.76,2760.1
2666.61,2730.5
2679.44,2714.2
2692.25,2733.6
2705.03,2728.5
2717.79,2740.75
2730.53,2710.75
2743.25,2681.1
2755.94,2683.05
2768.61,2647.9
2781.27,2623.1
2793.89,2640.25
2806.5,2653.7
2819.09,2637.7
2831.65,2772.35
2844.19,3419.4
2856.71,3393.95
2869.21,3138.25
2881.69,3533.3
2894.14,3176.2
2906.58,3012.75
2918.99,2889.35
2931.38,2871.1
2943.75,2705.9
2956.1,2632.65
2968.42,2588.8
2980.73,2602.75
2993.01,2578.9
3005.28,2596.05
3017.52,2572.5
3029.74,2561.25
3041.94,2580.95
3054.12,2575.3
3066.28,2530.9
3078.42,2596.55
3090.54,2557.8
3102.63,2605.6
3114.71,2558.0
3126.77,2591.05
3138.8,2576.6
3150.82,2611.7
3162.81,2635.35
3174.78,2581.6
3186.74,2601.15
3198.67,2596.9
3210.58,2617.1
3222.47,2646.45
3234.35,2632.55
3246.2,2642.1
3258.03,2673.65
3269.84,2632.95
3281.64,2629.0
3293.41,2660.75
3305.16,2674.65
3316.89,2696.7
3328.61,2669.5
3340.3,2655.0
3351.97,2686.55
3363.63,2669.05
3375.26,2673.3
3386.88,2652.45
3398.47,2651.75
3410.05,2628.15
3421.6,2685.45
3433.14,2685.1
3444.66,2662.15
3456.15,2691.25
3467.63,2657.8
3479.09,2681.45
3490.53,2611.35
3501.96,2692.85
3513.36,2639.85
3524.74,2624.35
3536.11,2634.55
3547.45,2607.55
3558.78,2591.3
3570.09,2589.4
3581.37,2575.9
3592.64,2576.5
3603.9,2556.5
3615.13,2530.05
3626.34,2506.6
3637.54,2491.95
3648.72,2514.05
3659.87,2465.4
3665.45,2461.95

File: VLFR_02-HDPE_nobio_Raman_d016e62e.csv
nm,Intensity
526.5,828.8
527.047,830.3
527.594,828.6
528.14,829.0
528.687,829.4
529.233,829.2
529.779,829.9
530.325,829.3
530.871,830.0
531.417,828.9
531.962,834.5
532.508,829.3
533.053,828.7
533.599,831.0
534.144,928.4
534.689,920.8
535.234,913.1
535.778,911.9
536.323,908.8
536.867,903.6
537.412,900.3
537.956,901.3
538.5,897.0
539.044,890.4
539.588,890.2
540.132,887.0
540.675,886.0
541.219,887.9
541.762,886.2
542.305,885.5
542.848,886.5
543.391,884.2
543.934,884.7
544.477,885.7
545.02,880.2
545.562,882.2
546.105,882.5
546.647,884.0
547.189,881.8
547.731,886.0
548.273,880.5
548.815,885.2
549.356,880.6
549.898,879.9
550.439,879.9
550.981,882.6
551.522,885.8
552.063,882.2
552.604,884.8
553.145,883.1
553.686,884.1
554.226,883.6
554.767,884.3
555.307,886.2
555.848,885.9
556.388,888.5
556.928,889.9
557.468,897.1
558.008,896.2
558.547,896.6
559.087,900.5
559.626,902.6
560.166,907.0
560.705,908.7
561.244,912.1
561.783,914.1
562.322,921.4
562.861,922.8
563.4,931.3
563.939,970.7
564.477,947.5
565.015,948.4
565.554,955.7
566.092,1032.3
566.63,965.3
567.168,964.0
567.706,964.5
568.244,975.5
568.781,984.4
569.319,992.0
569.857,1000.7
570.394,1015.3
570.931,1029.2
571.468,1093.3
572.005,1059.3
572.542,1068.6
573.079,1082.4
573.616,1109.3
574.153,1127.5
574.689,1147.8
575.226,1180.4
575.762,1256.6
576.298,1283.0
576.834,1306.7
577.371,1353.1
577.907,1368.0
578.442,1426.2
578.978,1479.4
579.514,1526.6
580.049,1582.6
580.585,1636.6
581.12,1689.7
581.656,1757.2
582.191,1813.7
582.726,1879.2
583.261,1927.4
583.796,1963.6
584.331,2018.8
584.865,2058.3
585.4,2093.8
585.935,2149.4
586.469,2209.3
587.004,2229.1
587.538,2295.6
588.072,2305.0
588.606,2344.1
589.14,2361.6
589.674,2418.6
590.208,2463.7
590.742,2502.1
591.275,2535.3
591.809,2556.8
592.342,2575.9
592.876,2592.0
593.409,2592.6
593.942,2602.1
594.476,2600.7
595.009,2603.5
595.542,2601.1
596.075,2610.9
596.607,2590.5
597.14,2593.3
597.673,2596.9
598.205,2582.8
598.738,2597.8
599.27,2583.8
599.803,2568.0
600.335,2543.0
600.867,2541.0
601.399,2511.4
601.931,2505.8
602.463,2484.8
602.995,2447.8
603.527,2446.7
604.058,2401.2
604.59,2360.3
605.122,2319.1
605.653,2257.4
606.184,2206.1
606.716,2179.5
607.247,2152.6
607.778,2116.9
608.309,2098.5
608.84,2071.0
609.371,2038.3
609.902,1995.9
610.433,1963.7
610.964,1949.5
611.494,1918.6
612.025,1900.5
612.556,1883.4
613.086,1861.5
613.616,1855.6
614.147,1828.6
614.677,1812.8
615.207,1787.9
615.737,1762.8
616.267,1745.0
616.797,1724.0
617.327,1713.5
617.857,1717.1
618.387,1688.7
618.917,1671.6
619.446,1663.4
619.976,1655.4
620.505,1635.9
621.035,1625.1
621.564,1621.2
622.093,1614.8
622.623,1626.0
623.152,1619.7
623.681,1616.5
624.21,1617.5
624.739,1616.4
625.268,1610.3
625.797,1611.2
626.326,1618.1
626.855,1679.8
627.383,1808.6
627.912,1720.9
628.441,1767.1
628.969,1747.3
629.498,1744.4
630.026,1716.9
630.554,1716.3
631.083,1691.6
631.611,1687.8
632.139,1686.7
632.667,1693.9
633.195,1704.1
633.724,1713.7
634.252,1721.9
634.779,1710.0
635.307,1731.0
635.835,1754.1
636.363,1755.0
636.891,1765.1
637.418,1758.9
637.946,1779.7
638.474,1780.8
639.001,1797.7
639.529,1788.3
640.056,1793.7
640.583,1808.7
641.111,1825.1
641.638,1830.7
642.165,1843.6
642.692,1831.0
643.22,1829.4
643.747,1831.5
644.274,1827.5
644.801,1823.7
645.328,1824.8
645.854,1829.3
646.381,1816.6
646.908,1827.9
647.435,1834.0
647.962,1804.4
648.488,1806.7
649.015,1803.0
649.542,1795.1
650.068,1765.8
650.595,1763.0
651.121,1770.5
651.648,1749.3
652.174,1751.8
652.7,1741.8
653.227,1738.1
653.753,1745.0
654.279,1725.6
654.805,1717.2
655.331,1700.4
655.858,1695.5
656.384,1676.5
656.91,1661.6
657.436,1651.7
657.962,1641.9
658.488,1635.1
659.013,1601.7
659.539,1585.5
660.065,1577.0
660.591,1558.4
661.117,1535.8
661.642,1510.5
662.168,1486.4
662.694,1474.2
663.088,1464.4

File: VLFR_02-HDPE_nobio_Raman_d73dc053.csv
nm,Intensity
526.486,829.1
527.033,829.7
527.579,829.5
528.126,829.7
528.672,829.7
529.219,830.6
529.765,829.8
530.311,829.2
530.857,828.8
531.403,829.3
531.948,832.3
532.494,832.6
533.039,829.5
533.585,830.1
534.13,876.9
534.675,872.1
535.22,866.7
535.764,859.6
536.309,854.8
536.854,852.2
537.398,850.6
537.942,851.4
538.486,850.5
539.03,848.7
539.574,846.3
540.118,845.6
540.662,844.4
541.205,845.4
541.749,845.5
542.292,845.3
542.835,844.9
543.378,843.8
543.921,843.6
544.464,846.0
545.006,846.0
545.549,843.4
546.091,843.2
546.634,842.2
547.176,843.5
547.718,843.9
548.26,843.5
548.802,843.3
549.343,843.7
549.885,844.3
550.426,843.2
550.968,845.1
551.509,843.8
552.05,845.4
552.591,842.7
553.132,845.3
553.673,845.7
554.214,844.4
554.754,846.7
555.295,846.5
555.835,848.4
556.375,848.3
556.915,849.5
557.455,853.2
557.995,851.7
558.535,853.8
559.075,851.7
559.614,851.1
560.154,849.6
560.693,851.5
561.232,847.9
561.772,853.1
562.311,853.8
562.85,855.2
563.388,856.9
563.927,911.1
564.466,873.3
565.004,870.9
565.543,865.6
566.081,981.7
566.619,873.2
567.157,858.9
567.695,858.4
568.233,850.4
568.771,852.4
569.309,855.8
569.846,857.2
570.384,860.2
570.921,864.1
571.458,946.8
571.995,879.1
572.532,860.7
573.069,856.8
573.606,854.0
574.143,863.5
574.68,853.1
575.216,862.6
575.753,951.7
576.289,923.7
576.825,899.2
577.361,886.1
577.897,861.7
578.433,855.0
578.969,855.4
579.505,854.2
580.041,852.3
580.576,851.6
581.112,854.1
581.647,853.8
582.183,853.1
582.718,852.8
583.253,854.6
583.788,853.6
584.323,853.0
584.858,853.8
585.392,853.9
585.927,851.2
586.462,851.0
586.996,853.6
587.53,853.5
588.065,854.4
588.599,852.7
589.133,854.7
589.667,851.1
590.201,858.0
590.735,854.6
591.268,853.3
591.802,855.6
592.335,855.1
592.869,855.3
593.402,857.5
593.936,857.1
594.469,858.0
595.002,857.9
595.535,859.4
596.068,861.6
596.601,859.8
597.133,863.1
597.666,862.8
598.199,863.4
598.731,865.2
599.264,868.1
599.796,867.6
600.328,866.9
600.86,867.8
601.393,866.9
601.925,867.1
602.457,867.2
602.988,867.1
603.52,867.7
604.052,866.7
604.583,862.1
605.115,867.3
605.646,864.5
606.178,862.7
606.709,863.8
607.24,860.8
607.771,863.4
608.302,861.3
608.833,863.9
609.364,861.4
609.895,863.1
610.426,864.7
610.957,868.8
611.487,864.8
612.018,863.3
612.548,863.3
613.078,861.3
613.609,861.5
614.139,862.0
614.669,860.9
615.199,859.8
615.729,860.9
616.259,862.3
616.789,859.6
617.319,866.0
617.849,863.7
618.378,864.0
618.908,861.9
619.437,865.5
619.967,866.8
620.496,865.6
621.025,866.0
621.555,871.7
622.084,880.7
622.613,883.2
623.142,867.3
623.671,863.5
624.2,864.4
624.729,865.5
625.258,869.8
625.786,870.6
626.315,883.8
626.844,1002.0
627.372,1317.5
627.901,1123.0
628.429,1174.0
628.957,1174.3
629.486,1104.7
630.014,1033.4
630.542,1021.8
631.07,937.7
631.598,887.7
632.126,874.6
632.654,864.7
633.182,861.9
633.71,860.6
634.237,856.3
634.765,857.3
635.293,855.1
635.82,855.2
636.348,856.6
636.875,852.4
637.403,851.4
637.93,851.1
638.458,851.8
638.985,853.0
639.512,849.7
640.039,851.1
640.566,849.9
641.093,850.6
641.62,849.8
642.147,851.1
642.674,850.9
643.201,848.6
643.728,851.4
644.255,848.4
644.781,852.0
645.308,849.0
645.835,851.5
646.361,849.2
646.888,848.9
647.414,850.4
647.941,849.8
648.467,849.0
648.993,849.1
649.52,852.5
650.046,850.5
650.572,849.7
651.098,849.6
651.625,849.8
652.151,850.7
652.677,848.5
653.203,851.1
653.729,850.0
654.255,850.5
654.78,851.1
655.306,851.1
655.832,853.4
656.358,851.4
656.884,851.6
657.409,850.1
657.935,849.6
658.461,850.3
658.986,850.1
659.512,851.4
660.037,853.5
660.563,852.7
661.088,849.4
661.614,850.7
662.139,846.4
662.664,847.4
663.058,847.4

File: VLFR_02-HDPE_nobio_Raman_d8560cc8.csv
nm,Intensity
526.508,829.4
527.055,829.7
527.602,828.9
528.149,829.1
528.695,830.2
529.241,827.9
529.787,829.9
530.334,829.6
530.879,828.6
531.425,830.9
531.971,833.4
532.516,831.4
533.062,827.7
533.607,829.9
534.152,851.0
534.697,848.2
535.242,846.4
535.786,842.2
536.331,840.8
536.876,840.7
537.42,839.6
537.964,842.4
538.508,839.9
539.052,838.9
539.596,838.8
540.14,836.5
540.683,837.9
541.227,839.6
541.77,836.8
542.313,839.0
542.856,838.5
543.399,836.4
543.942,839.3
544.485,837.2
545.027,837.3
545.57,839.5
546.112,838.8
546.654,838.6
547.196,839.4
547.738,839.8
548.28,838.3
548.822,838.2
549.363,838.4
549.905,838.7
550.446,840.1
550.988,840.9
551.529,841.0
552.07,839.3
552.611,840.3
553.152,839.4
553.692,841.3
554.233,839.8
554.773,841.5
555.314,840.2
555.854,839.6
556.394,841.5
556.934,841.2
557.474,844.5
558.014,843.2
558.553,842.8
559.093,839.9
559.632,842.4
560.172,842.5
560.711,841.2
561.25,841.0
561.789,842.2
562.328,842.6
562.867,842.5
563.406,844.0
563.944,865.4
564.483,849.9
565.021,848.2
565.559,844.4
566.098,864.1
566.636,845.6
567.174,843.2
567.711,843.5
568.249,841.2
568.787,844.7
569.324,843.5
569.862,842.6
570.399,842.2
570.936,845.0
571.474,887.5
572.011,852.2
572.548,847.9
573.084,842.3
573.621,844.2
574.158,846.0
574.694,844.4
575.231,845.1
575.767,858.1
576.303,892.0
576.84,872.5
577.376,864.3
577.912,848.8
578.447,842.9
578.983,842.6
579.519,843.8
580.054,844.6
580.59,843.4
581.125,844.0
581.661,843.9
582.196,842.3
582.731,843.7
583.266,841.4
583.801,842.6
584.336,843.5
584.87,841.4
585.405,844.0
585.94,843.3
586.474,842.5
587.008,843.1
587.543,843.2
588.077,842.5
588.611,842.5
589.145,844.9
589.679,844.2
590.213,845.6
590.747,841.8
591.28,844.9
591.814,845.1
592.347,846.1
592.881,846.2
593.414,845.1
593.947,847.4
594.48,846.0
595.014,845.7
595.547,848.0
596.079,846.6
596.612,845.6
597.145,846.9
597.678,848.8
598.21,848.7
598.743,847.1
599.275,851.5
599.807,850.7
600.34,849.0
600.872,852.6
601.404,851.6
601.936,851.8
602.468,851.5
603.0,851.4
603.532,851.3
604.063,851.9
604.595,851.0
605.126,853.9
605.658,850.6
606.189,852.4
606.721,853.1
607.252,851.8
607.783,851.1
608.314,852.6
608.845,855.8
609.376,852.2
609.907,854.4
610.438,853.6
610.968,854.8
611.499,856.8
612.03,853.3
612.56,856.9
613.091,857.4
613.621,856.5
614.151,857.4
614.681,857.3
615.212,856.5
615.742,859.3
616.272,857.1
616.802,858.9
617.332,860.6
617.861,861.2
618.391,861.6
618.921,860.7
619.45,858.6
619.98,863.1
620.509,861.7
621.039,861.1
621.568,868.7
622.097,879.9
622.627,880.0
623.156,864.3
623.685,860.3
624.214,860.3
624.743,860.8
625.272,860.2
625.801,866.6
626.33,874.1
626.858,988.7
627.387,1163.8
627.916,1039.2
628.444,1122.2
628.973,1045.0
629.501,1004.9
630.029,951.6
630.558,939.0
631.086,894.0
631.614,864.9
632.142,861.0
632.67,858.1
633.198,857.3
633.726,852.9
634.254,854.1
634.782,850.7
635.31,850.7
635.838,850.5
636.365,849.4
636.893,850.5
637.421,849.8
637.948,850.9
638.476,846.5
639.003,845.5
639.531,846.8
640.058,847.5
640.585,848.7
641.113,846.2
641.64,847.3
642.167,846.3
642.694,843.6
643.221,846.7
643.748,848.4
644.275,846.2
644.802,847.5
645.329,844.5
645.856,845.1
646.382,846.4
646.909,843.9
647.436,845.6
647.962,845.6
648.489,845.3
649.016,843.9
649.542,844.8
650.069,843.9
650.595,845.2
651.121,844.5
651.648,843.9
652.174,843.0
652.7,843.8
653.227,843.9
653.753,844.5
654.279,844.1
654.805,842.3
655.331,845.2
655.857,844.8
656.383,847.2
656.909,845.3
657.435,843.2
657.961,845.0
658.487,845.8
659.013,843.6
659.538,844.3
660.064,845.9
660.59,844.8
661.116,845.0
661.641,845.2
662.167,843.3
662.692,843.4
663.087,844.4

File: VLFR_02-HDPE_nobio_Raman_dc1c0b0b.csv
nm,Intensity
526.508,830.4
527.055,830.4
527.602,830.5
528.149,829.4
528.695,831.7
529.241,829.3
529.787,830.7
530.334,830.4
530.879,829.4
531.425,830.2
531.971,832.5
532.516,831.4
533.062,830.9
533.607,830.4
534.152,884.3
534.697,878.6
535.242,864.9
535.786,857.6
536.331,855.7
536.876,855.8
537.42,851.9
537.964,853.1
538.508,851.2
539.052,848.6
539.596,847.5
540.14,847.4
540.683,847.2
541.227,846.8
541.77,848.6
542.313,847.0
542.856,848.6
543.399,847.1
543.942,845.6
544.485,844.8
545.027,846.1
545.57,847.4
546.112,845.8
546.654,845.6
547.196,846.8
547.738,848.1
548.28,846.1
548.822,846.3
549.363,843.9
549.905,848.1
550.446,847.2
550.988,847.1
551.529,849.3
552.07,849.4
552.611,848.6
553.152,849.2
553.692,850.4
554.233,849.7
554.773,850.6
555.314,850.5
555.854,851.0
556.394,851.8
556.934,851.7
557.474,854.2
558.014,857.4
558.553,856.4
559.093,857.3
559.632,858.2
560.172,855.2
560.711,852.3
561.25,854.3
561.789,856.2
562.328,859.7
562.867,857.7
563.406,862.9
563.944,926.2
564.483,879.8
565.021,871.7
565.559,871.2
566.098,990.0
566.636,873.4
567.174,866.0
567.711,863.0
568.249,863.0
568.787,863.0
569.324,864.0
569.862,864.6
570.399,868.5
570.936,876.3
571.474,982.9
572.011,889.6
572.548,873.1
573.084,871.9
573.621,870.3
574.158,880.2
574.694,871.0
575.231,879.7
575.767,937.3
576.303,957.7
576.84,930.9
577.376,913.5
577.912,889.8
578.447,887.3
578.983,887.9
579.519,887.8
580.054,892.5
580.59,895.8
581.125,898.6
581.661,899.5
582.196,905.1
582.731,909.6
583.266,909.1
583.801,911.2
584.336,915.1
584.87,918.5
585.405,920.6
585.94,922.1
586.474,929.0
587.008,932.7
587.543,933.1
588.077,931.6
588.611,936.8
589.145,942.9
589.679,939.5
590.213,947.0
590.747,952.2
591.28,951.4
591.814,954.1
592.347,955.4
592.881,958.8
593.414,962.4
593.947,964.4
594.48,962.9
595.014,966.2
595.547,968.6
596.079,972.8
596.612,972.1
597.145,977.9
597.678,979.8
598.21,981.5
598.743,983.1
599.275,988.3
599.807,982.9
600.34,982.9
600.872,983.4
601.404,980.0
601.936,978.9
602.468,978.9
603.0,979.2
603.532,978.5
604.063,974.6
604.595,975.8
605.126,970.9
605.658,959.9
606.189,965.5
606.721,957.9
607.252,954.0
607.783,953.2
608.314,953.7
608.845,951.2
609.376,945.4
609.907,944.5
610.438,943.5
610.968,945.0
611.499,944.1
612.03,936.4
612.56,937.3
613.091,937.6
613.621,937.4
614.151,934.0
614.681,929.8
615.212,930.8
615.742,926.2
616.272,927.8
616.802,924.7
617.332,932.1
617.861,927.2
618.391,925.1
618.921,922.3
619.45,923.4
619.98,925.9
620.509,925.6
621.039,922.8
621.568,930.0
622.097,944.3
622.627,937.4
623.156,925.7
623.685,918.8
624.214,920.5
624.743,924.0
625.272,919.2
625.801,927.5
626.33,942.7
626.858,1090.6
627.387,1400.0
627.916,1194.6
628.444,1309.5
628.973,1231.6
629.501,1159.4
630.029,1090.1
630.558,1066.8
631.086,983.3
631.614,930.6
632.142,920.4
632.67,915.9
633.198,911.7
633.726,912.3
634.254,909.2
634.782,909.6
635.31,909.0
635.838,906.6
636.365,905.3
636.893,905.7
637.421,904.2
637.948,898.9
638.476,909.7
639.003,902.2
639.531,901.9
640.058,906.1
640.585,905.3
641.113,905.4
641.64,905.7
642.167,902.8
642.694,904.9
643.221,906.9
643.748,904.5
644.275,906.8
644.802,907.8
645.329,903.9
645.856,905.3
646.382,906.9
646.909,905.2
647.436,906.4
647.962,906.0
648.489,907.5
649.016,904.1
649.542,904.5
650.069,905.8
650.595,904.1
651.121,906.7
651.648,908.8
652.174,905.5
652.7,903.4
653.227,904.1
653.753,905.7
654.279,905.5
654.805,903.1
655.331,904.5
655.857,902.8
656.383,900.7
656.909,901.6
657.435,900.6
657.961,898.4
658.487,895.2
659.013,900.9
659.538,897.4
660.064,897.2
660.59,893.4
661.116,894.1
661.641,885.4
662.167,887.8
662.692,887.5
663.087,884.2