Folder: MPX_specDB/spectra (part 166)

File: VLFR_09-PET_bio_Raman_247b3a10.csv
nm,Intensity
528.635,1854.4
529.14,1851.4
529.645,1851.8
530.151,1850.7
530.656,1856.7
531.161,1858.4
531.666,1915.1
532.171,4929.3
532.676,1857.4
533.181,1869.5
533.686,3321.5
534.191,7894.6
534.696,7353.2
535.201,7088.4
535.705,6875.5
536.21,6650.5
536.715,6562.2
537.219,6642.7
537.724,6759.5
538.228,6720.1
538.733,6918.2
539.237,7018.3
539.741,7261.5
540.246,7386.4
540.75,7444.0
541.254,7438.4
541.758,7565.1
542.262,7607.1
542.766,7809.8
543.27,7830.8
543.774,7977.8
544.278,7976.9
544.781,8214.6
545.285,8283.1
545.789,8332.6
546.292,8507.9
546.796,8620.3
547.299,8620.2
547.803,8662.1
548.306,9068.0
548.809,9057.5
549.313,9029.0
549.816,9094.3
550.319,9338.7
550.822,9699.8
551.325,9553.6
551.828,9572.8
552.331,9702.5
552.834,9980.0
553.337,9959.0
553.839,9848.2
554.342,10169.1
554.845,10294.0
555.347,10438.9
555.85,10897.8
556.352,10580.4
556.854,11092.0
557.357,11697.0
557.859,11889.2
558.361,11514.5
558.863,11478.5
559.365,11300.4
559.867,11272.5
560.369,11565.9
560.871,11620.7
561.373,11953.7
561.875,12334.2
562.377,12185.7
562.878,12039.0
563.38,12296.9
563.881,12308.4
564.383,12606.9
564.884,13364.3
565.386,13401.5
565.887,13691.4
566.388,13210.6
566.889,12963.8
567.391,13322.3
567.892,13425.6
568.393,13249.2
568.893,13323.0
569.394,13616.7
569.895,13846.6
570.396,14092.3
570.897,15300.5
571.397,16490.5
571.898,15292.1
572.398,14408.1
572.899,14309.0
573.399,14411.7
573.899,14557.1
574.399,14433.6
574.9,14684.0
575.4,15082.2
575.9,14903.1
576.4,14829.5
576.899,15345.2
577.399,15253.7
577.899,15000.4
578.399,15237.0
578.898,14908.0
579.398,15288.3
579.897,15456.7
580.397,15781.4
580.896,16178.5
581.396,16213.0
581.895,21024.2
582.394,20016.4
582.893,16174.2
583.392,16011.3
583.891,16154.9
584.39,16103.3
584.889,16074.3
585.387,17342.8
585.886,20738.4
586.385,18857.2
586.883,16532.2
587.382,16932.2
587.88,16644.1
588.379,16400.0
588.877,16856.6
589.375,16327.7
589.873,16333.5
590.371,16417.9
590.869,16561.8
591.367,16693.3
591.865,16979.5
592.363,16961.4
592.86,16667.6
593.358,16624.6
593.856,16817.9
594.353,16563.1
594.851,17060.6
595.348,17134.6
595.845,17118.6
596.342,17327.7
596.84,17411.3
597.337,17412.8
597.834,17437.8
598.331,17493.8
598.827,17243.7
599.324,17404.3
599.821,17529.0
600.318,17433.9
600.814,17211.5
601.311,17522.6
601.807,17636.6
602.303,17484.8
602.8,18220.9
603.296,18096.1
603.792,18101.7
604.288,18257.7
604.784,18294.5
605.28,17739.1
605.776,18561.5
606.272,18212.2
606.767,18970.4
607.263,18870.7
607.758,18683.2
608.254,19139.9
608.749,18813.0
609.244,19756.7
609.74,19159.5
610.235,19278.0
610.73,19363.1
611.225,19680.8
611.72,19882.9
612.215,19666.1
612.709,19982.2
613.204,20357.8
613.699,20432.7
614.193,20618.3
614.688,20879.9
615.182,20488.5
615.676,20775.1
616.171,21094.8
616.665,21437.3
617.159,21242.8
617.653,21802.1
618.147,21530.7
618.641,22111.2
619.134,22071.8
619.628,22998.4
620.122,22990.8
620.615,22698.6
621.109,23115.5
621.602,23130.4
622.095,22952.8
622.588,24049.9
623.082,23944.1
623.575,24035.4
624.068,23859.0
624.56,24777.3
625.053,25160.9
625.546,24262.9
626.039,25137.4
626.531,24534.5
627.024,25673.9
627.516,25592.2
628.008,25460.0
628.501,25793.6
628.993,26454.7
629.485,26768.2
629.977,26738.4
630.469,27039.6
630.961,27205.2
631.452,27514.2
631.944,27980.2
632.436,28133.6
632.927,27634.0
633.418,27987.9
633.91,27427.4
634.401,27796.2
634.892,27857.4
635.383,28377.8
635.874,28447.0
636.365,29624.1
636.856,28869.2
637.347,28221.3
637.837,28539.1
638.328,28520.4
638.818,28522.5
639.309,28673.6
639.799,28303.6
640.289,28213.9
640.78,27995.9
641.27,28947.0
641.76,28431.7
642.249,28395.7
642.739,28075.2
643.229,27673.4
643.719,27527.5
644.208,28749.0
644.698,28377.7
645.187,27948.4
645.676,28225.3
646.165,27868.4
646.655,28491.3
647.144,26658.4
647.633,27754.7
648.121,27424.8
648.61,28293.6
649.099,27123.3
649.587,27316.0
650.076,27136.6
650.564,27522.2
651.053,26044.3
651.541,26549.7
652.029,27564.5
652.517,26486.1
653.005,26317.0
653.493,25105.8
653.981,26050.2
654.468,25392.5
654.956,25580.1
655.444,25655.0
655.931,25760.2
656.418,25181.9
656.906,25187.1
657.393,24765.6
657.88,24205.1
658.367,24204.6
658.854,23463.0
659.341,23749.5
659.827,23172.2
660.314,23022.2
660.8,22167.3
661.044,23583.9

File: VLFR_09-PET_bio_Raman_346dfb0b.csv
nm,Intensity
526.508,830.5
527.055,828.8
527.602,829.6
528.149,829.7
528.695,830.8
529.241,829.1
529.787,830.3
530.334,829.9
530.879,830.1
531.425,831.1
531.971,839.7
532.516,831.5
533.062,831.8
533.607,834.5
534.152,1409.0
534.697,1377.1
535.242,1310.3
535.786,1288.7
536.331,1269.5
536.876,1266.1
537.42,1276.0
537.964,1274.7
538.508,1285.4
539.052,1299.3
539.596,1307.1
540.14,1320.9
540.683,1322.3
541.227,1321.1
541.77,1340.1
542.313,1338.9
542.856,1345.9
543.399,1342.8
543.942,1368.7
544.485,1354.5
545.027,1374.4
545.57,1386.7
546.112,1392.7
546.654,1405.6
547.196,1403.3
547.738,1403.3
548.28,1423.9
548.822,1424.6
549.363,1438.3
549.905,1436.5
550.446,1452.2
550.988,1461.2
551.529,1455.2
552.07,1459.7
552.611,1471.4
553.152,1478.0
553.692,1491.8
554.233,1494.8
554.773,1507.3
555.314,1505.0
555.854,1519.8
556.394,1528.1
556.934,1530.9
557.474,1594.0
558.014,1561.5
558.553,1552.8
559.093,1551.9
559.632,1556.0
560.172,1571.6
560.711,1581.3
561.25,1584.2
561.789,1601.5
562.328,1603.0
562.867,1605.8
563.406,1632.3
563.944,1640.1
564.483,1650.4
565.021,1684.3
565.559,1697.8
566.098,1698.8
566.636,1677.2
567.174,1677.4
567.711,1693.3
568.249,1693.7
568.787,1706.3
569.324,1711.5
569.862,1724.6
570.399,1750.6
570.936,1795.0
571.474,1874.5
572.011,1796.2
572.548,1765.9
573.084,1781.7
573.621,1784.0
574.158,1796.7
574.694,1788.6
575.231,1819.0
575.767,1819.3
576.303,1819.0
576.84,1840.0
577.376,1829.7
577.912,1830.7
578.447,1855.0
578.983,1866.1
579.519,1853.3
580.054,1868.0
580.59,1881.6
581.125,1894.6
581.661,1918.2
582.196,2410.6
582.731,1935.4
583.266,1906.5
583.801,1923.6
584.336,1917.5
584.87,1939.0
585.405,1968.2
585.94,2174.6
586.474,2097.5
587.008,1981.9
587.543,1965.6
588.077,1954.1
588.611,1952.2
589.145,1952.2
589.679,1952.5
590.213,1963.4
590.747,1968.0
591.28,1973.7
591.814,1988.3
592.347,1985.4
592.881,1992.6
593.414,1974.1
593.947,1982.3
594.48,1976.0
595.014,1993.9
595.547,2010.3
596.079,2002.3
596.612,2015.6
597.145,2014.8
597.678,2023.4
598.21,2034.9
598.743,2040.7
599.275,2050.9
599.807,2051.6
600.34,2036.6
600.872,2031.2
601.404,2052.4
601.936,2040.9
602.468,2054.0
603.0,2069.9
603.532,2058.2
604.063,2067.7
604.595,2062.3
605.126,2077.2
605.658,2060.7
606.189,2060.7
606.721,2069.5
607.252,2078.9
607.783,2095.0
608.314,2108.0
608.845,2114.9
609.376,2131.6
609.907,2127.6
610.438,2138.7
610.968,2134.7
611.499,2142.9
612.03,2170.8
612.56,2186.0
613.091,2223.5
613.621,2222.4
614.151,2245.4
614.681,2267.1
615.212,2263.5
615.742,2265.2
616.272,2286.0
616.802,2304.8
617.332,2322.6
617.861,2337.5
618.391,2348.6
618.921,2362.0
619.45,2371.8
619.98,2385.5
620.509,2389.8
621.039,2413.2
621.568,2402.8
622.097,2441.2
622.627,2473.5
623.156,2494.3
623.685,2507.4
624.214,2515.1
624.743,2542.3
625.272,2553.9
625.801,2580.6
626.33,2585.9
626.858,2593.8
627.387,2589.8
627.916,2617.4
628.444,2628.3
628.973,2659.5
629.501,2674.9
630.029,2680.5
630.558,2718.0
631.086,2725.0
631.614,2782.7
632.142,2793.0
632.67,2770.5
633.198,2790.5
633.726,2796.1
634.254,2796.6
634.782,2797.5
635.31,2819.3
635.838,2869.1
636.365,2911.0
636.893,2933.2
637.421,2886.8
637.948,2873.8
638.476,2894.8
639.003,2904.0
639.531,2909.1
640.058,2927.4
640.585,2935.7
641.113,2938.6
641.64,2980.0
642.167,2959.2
642.694,2969.4
643.221,2958.7
643.748,2952.6
644.275,2932.0
644.802,2948.1
645.329,2956.9
645.856,2962.1
646.382,2968.7
646.909,2986.5
647.436,2989.0
647.962,2984.0
648.489,2991.4
649.016,2976.3
649.542,2979.6
650.069,2981.4
650.595,2978.9
651.121,2977.4
651.648,2979.6
652.174,2986.7
652.7,3001.0
653.227,3003.9
653.753,2999.4
654.279,3010.1
654.805,2994.0
655.331,2991.9
655.857,2994.3
656.383,2994.1
656.909,3004.1
657.435,3005.8
657.961,3002.5
658.487,3044.2
659.013,2994.6
659.538,3014.8
660.064,3024.8
660.59,3005.1
661.116,2989.2
661.641,2970.6
662.167,2966.2
662.692,2968.0
663.087,2948.6

File: VLFR_09-PET_bio_Raman_444f1bf8.csv
nm,Intensity
526.508,829.6
527.055,830.2
527.602,830.3
528.149,830.7
528.695,830.8
529.241,829.3
529.787,830.6
530.334,829.7
530.879,831.3
531.425,831.6
531.971,837.1
532.516,831.5
533.062,830.2
533.607,842.6
534.152,2223.4
534.697,2014.8
535.242,1765.4
535.786,1649.3
536.331,1558.3
536.876,1524.7
537.42,1488.7
537.964,1481.3
538.508,1477.6
539.052,1491.3
539.596,1514.5
540.14,1544.5
540.683,1514.7
541.227,1504.7
541.77,1512.6
542.313,1517.7
542.856,1530.4
543.399,1541.5
543.942,1549.2
544.485,1555.7
545.027,1575.2
545.57,1578.2
546.112,1576.2
546.654,1598.9
547.196,1605.2
547.738,1601.5
548.28,1617.5
548.822,1644.0
549.363,1639.3
549.905,1639.7
550.446,1678.4
550.988,1688.4
551.529,1656.0
552.07,1676.7
552.611,1693.9
553.152,1707.3
553.692,1711.5
554.233,1708.7
554.773,1727.1
555.314,1753.8
555.854,1790.3
556.394,1803.3
556.934,1822.0
557.474,2093.1
558.014,1941.6
558.553,1844.1
559.093,1810.0
559.632,1815.2
560.172,1819.5
560.711,1831.2
561.25,1856.2
561.789,1901.1
562.328,1963.5
562.867,1908.1
563.406,1914.0
563.944,1914.2
564.483,1976.6
565.021,2194.7
565.559,2122.7
566.098,2102.1
566.636,2001.5
567.174,1948.0
567.711,2079.7
568.249,2020.6
568.787,1999.9
569.324,2023.8
569.862,2044.2
570.399,2124.8
570.936,2379.2
571.474,2775.8
572.011,2339.0
572.548,2137.5
573.084,2111.8
573.621,2111.6
574.158,2132.3
574.694,2130.5
575.231,2207.9
575.767,2209.3
576.303,2178.0
576.84,2220.8
577.376,2206.7
577.912,2170.5
578.447,2194.6
578.983,2196.7
579.519,2196.2
580.054,2193.9
580.59,2228.7
581.125,2267.5
581.661,2474.1
582.196,5243.1
582.731,2434.4
583.266,2308.6
583.801,2291.1
584.336,2308.2
584.87,2325.4
585.405,2461.8
585.94,3578.8
586.474,3111.7
587.008,2448.1
587.543,2364.9
588.077,2345.2
588.611,2343.7
589.145,2327.5
589.679,2330.5
590.213,2317.5
590.747,2340.6
591.28,2359.1
591.814,2347.4
592.347,2343.8
592.881,2360.9
593.414,2353.1
593.947,2367.5
594.48,2371.3
595.014,2377.7
595.547,2403.0
596.079,2406.4
596.612,2402.9
597.145,2421.8
597.678,2414.4
598.21,2440.1
598.743,2463.0
599.275,2449.5
599.807,2463.5
600.34,2445.0
600.872,2445.4
601.404,2447.5
601.936,2463.3
602.468,2474.2
603.0,2497.8
603.532,2498.4
604.063,2500.4
604.595,2526.2
605.126,2504.5
605.658,2499.5
606.189,2497.6
606.721,2505.8
607.252,2523.6
607.783,2538.2
608.314,2566.9
608.845,2580.4
609.376,2617.3
609.907,2617.5
610.438,2616.2
610.968,2620.3
611.499,2663.9
612.03,2681.9
612.56,2718.8
613.091,2753.0
613.621,2772.2
614.151,2798.7
614.681,2826.0
615.212,2826.7
615.742,2852.0
616.272,2853.9
616.802,2896.6
617.332,2940.5
617.861,2951.7
618.391,2988.2
618.921,3000.9
619.45,3006.8
619.98,3022.0
620.509,3013.0
621.039,3054.7
621.568,3083.0
622.097,3124.1
622.627,3137.3
623.156,3170.4
623.685,3223.8
624.214,3239.6
624.743,3260.2
625.272,3292.9
625.801,3316.4
626.33,3311.1
626.858,3335.0
627.387,3345.4
627.916,3372.1
628.444,3416.8
628.973,3451.5
629.501,3493.3
630.029,3539.6
630.558,3536.1
631.086,3589.8
631.614,3715.2
632.142,3766.5
632.67,3716.6
633.198,3681.7
633.726,3692.1
634.254,3661.0
634.782,3688.2
635.31,3722.6
635.838,3824.1
636.365,4039.1
636.893,4025.3
637.421,3838.3
637.948,3802.0
638.476,3809.2
639.003,3851.2
639.531,3855.7
640.058,3845.2
640.585,3882.0
641.113,3890.0
641.64,3923.2
642.167,3938.7
642.694,3928.7
643.221,3927.1
643.748,3928.2
644.275,3915.7
644.802,3902.4
645.329,3936.2
645.856,3930.2
646.382,3956.1
646.909,3981.1
647.436,3994.6
647.962,3989.5
648.489,4002.8
649.016,3986.2
649.542,3995.3
650.069,3986.6
650.595,3990.8
651.121,4000.9
651.648,4044.9
652.174,4029.7
652.7,4021.8
653.227,4045.8
653.753,4060.6
654.279,4073.7
654.805,4051.0
655.331,4080.9
655.857,4071.5
656.383,4074.8
656.909,4082.1
657.435,4105.7
657.961,4087.9
658.487,4113.3
659.013,4104.7
659.538,4133.9
660.064,4133.8
660.59,4137.6
661.116,4127.2
661.641,4105.1
662.167,4071.9
662.692,4103.9
663.087,4062.0

File: VLFR_09-PET_bio_Raman_570a1bca.csv
nm,Intensity
526.547,833.35
527.095,832.85
527.642,832.2
528.189,834.1
528.736,832.1
529.283,832.0
529.829,832.55
530.376,832.05
530.922,834.15
531.468,833.8
532.014,837.15
532.56,833.4
533.106,832.75
533.651,858.25
534.196,2616.45
534.742,2401.3
535.287,2129.05
535.832,2038.9
536.376,1932.6
536.921,1903.15
537.465,1880.75
538.01,1884.25
538.554,1899.0
539.098,1903.5
539.642,1947.65
540.186,1971.05
540.729,1949.5
541.273,1949.5
541.816,1964.9
542.36,1975.65
542.903,2000.45
543.446,2022.45
543.988,2034.35
544.531,2038.5
545.074,2066.95
545.616,2083.0
546.158,2092.15
546.701,2121.15
547.243,2121.8
547.785,2140.6
548.326,2150.25
548.868,2190.3
549.41,2193.5
549.951,2193.45
550.492,2255.7
551.034,2246.0
551.575,2248.25
552.116,2266.45
552.656,2279.3
553.197,2298.1
553.738,2305.95
554.278,2326.45
554.819,2335.8
555.359,2360.3
555.899,2403.7
556.439,2425.85
556.979,2456.3
557.519,2758.1
558.058,2528.55
558.598,2481.3
559.137,2464.75
559.677,2477.55
560.216,2498.25
560.755,2511.5
561.294,2535.3
561.833,2574.8
562.371,2613.15
562.91,2608.7
563.449,2621.45
563.987,2656.5
564.525,2711.7
565.064,2918.45
565.602,2862.9
566.14,2844.15
566.678,2747.8
567.216,2727.5
567.753,2853.25
568.291,2805.15
568.828,2791.5
569.366,2833.9
569.903,2856.45
570.44,2936.6
570.977,3160.55
571.514,3395.75
572.051,3094.2
572.588,2972.85
573.125,2969.15
573.661,2976.9
574.198,3008.0
574.734,3017.3
575.271,3080.35
575.807,3058.35
576.343,3082.95
576.879,3124.2
577.415,3139.85
577.951,3100.6
578.486,3118.3
579.022,3143.5
579.557,3142.65
580.093,3162.65
580.628,3172.9
581.164,3220.8
581.699,3418.65
582.234,5381.6
582.769,3320.95
583.304,3276.3
583.838,3267.0
584.373,3300.65
584.908,3320.45
585.442,3470.1
585.977,4392.65
586.511,3904.8
587.045,3452.75
587.58,3416.65
588.114,3384.95
588.648,3367.15
589.182,3366.9
589.715,3369.3
590.249,3381.5
590.783,3414.3
591.316,3429.65
591.85,3429.6
592.383,3417.75
592.917,3416.95
593.45,3418.55
593.983,3432.5
594.516,3454.15
595.049,3484.65
595.582,3499.5
596.115,3511.9
596.648,3515.85
597.18,3546.3
597.713,3538.8
598.245,3572.5
598.778,3586.2
599.31,3623.45
599.842,3612.8
600.375,3610.2
600.907,3603.55
601.439,3625.85
601.971,3622.55
602.503,3639.8
603.034,3673.85
603.566,3690.85
604.098,3706.85
604.629,3699.9
605.161,3688.95
605.692,3677.7
606.224,3671.8
606.755,3698.35
607.286,3727.85
607.817,3760.15
608.348,3799.8
608.879,3834.5
609.41,3840.95
609.941,3865.5
610.472,3875.85
611.002,3900.7
611.533,3937.9
612.063,3997.85
612.594,4060.3
613.124,4112.65
613.655,4172.9
614.185,4188.45
614.715,4230.3
615.245,4242.25
615.775,4267.15
616.305,4287.15
616.835,4355.65
617.365,4411.55
617.895,4464.55
618.425,4506.6
618.954,4526.4
619.484,4556.55
620.013,4558.35
620.543,4611.45
621.072,4646.7
621.602,4662.4
622.131,4707.95
622.66,4772.1
623.189,4837.0
623.718,4869.0
624.247,4937.95
624.776,4979.55
625.305,5010.2
625.834,5034.9
626.363,5053.95
626.891,5090.3
627.42,5108.4
627.949,5151.65
628.477,5222.05
629.006,5250.95
629.534,5330.85
630.062,5340.75
630.591,5412.3
631.119,5467.15
631.647,5595.5
632.175,5660.15
632.703,5567.6
633.231,5579.05
633.759,5596.35
634.287,5573.3
634.815,5591.95
635.343,5646.1
635.871,5790.35
636.398,6052.7
636.926,6002.85
637.454,5802.9
637.981,5794.55
638.509,5816.3
639.036,5825.85
639.564,5872.8
640.091,5880.8
640.618,5909.65
641.146,5949.8
641.673,5962.95
642.2,5990.6
642.727,5986.4
643.254,5976.2
643.781,5942.65
644.308,5937.2
644.835,5958.15
645.362,5956.8
645.889,5971.3
646.416,6006.3
646.942,6012.6
647.469,6054.9
647.996,6075.35
648.522,6048.4
649.049,6044.25
649.576,6053.3
650.102,6048.0
650.629,6040.75
651.155,6043.1
651.682,6101.4
652.208,6094.95
652.734,6096.3
653.261,6125.4
653.787,6138.25
654.313,6148.45
654.839,6133.1
655.365,6138.0
655.892,6162.35
656.418,6133.65
656.944,6175.6
657.47,6177.65
657.996,6191.95
658.522,6201.7
659.048,6199.0
659.574,6243.6
660.099,6224.2
660.625,6207.35
661.151,6154.65
661.677,6147.3
662.203,6157.15
662.728,6148.05
663.123,6112.6

File: VLFR_09-PET_bio_Raman_04402ea5.csv
nm,Intensity
526.493,829.85
527.039,829.05
527.586,829.35
528.133,829.55
528.679,829.25
529.225,829.0
529.771,829.05
530.317,829.45
530.863,829.4
531.409,829.9
531.955,830.15
532.5,829.8
533.046,829.05
533.591,836.25
534.136,1832.85
534.681,1681.1
535.226,1503.95
535.771,1425.95
536.315,1350.6
536.86,1325.85
537.404,1305.25
537.948,1296.55
538.493,1305.45
539.037,1311.35
539.58,1318.0
540.124,1348.25
540.668,1324.4
541.211,1320.7
541.755,1316.9
542.298,1321.65
542.841,1334.4
543.384,1338.05
543.927,1347.75
544.47,1348.15
545.013,1361.0
545.555,1356.55
546.098,1366.9
546.64,1371.9
547.182,1377.4
547.724,1375.1
548.266,1392.45
548.808,1401.75
549.35,1401.85
549.892,1402.2
550.433,1426.25
550.974,1435.8
551.516,1424.35
552.057,1434.5
552.598,1438.65
553.139,1449.65
553.68,1439.95
554.22,1449.5
554.761,1459.45
555.301,1468.6
555.842,1493.05
556.382,1509.45
556.922,1520.05
557.462,1684.1
558.002,1584.0
558.542,1523.1
559.082,1504.2
559.621,1500.1
560.161,1512.7
560.7,1517.75
561.239,1533.15
561.778,1562.15
562.317,1593.4
562.856,1560.35
563.395,1559.65
563.934,1578.65
564.472,1617.0
565.011,1748.2
565.549,1706.7
566.088,1700.45
566.626,1618.15
567.164,1600.9
567.702,1680.4
568.24,1646.65
568.777,1631.2
569.315,1646.15
569.853,1669.35
570.39,1706.2
570.927,1875.5
571.465,2150.5
572.002,1856.8
572.539,1733.05
573.076,1712.85
573.612,1709.5
574.149,1722.6
574.686,1719.05
575.222,1761.95
575.759,1782.8
576.295,1750.3
576.831,1795.85
577.367,1779.5
577.903,1757.3
578.439,1760.55
578.975,1763.4
579.511,1766.95
580.046,1774.0
580.582,1787.7
581.117,1829.0
581.653,1953.85
582.188,3723.3
582.723,1934.05
583.258,1835.4
583.793,1813.35
584.328,1819.0
584.863,1836.85
585.398,1910.75
585.932,2631.1
586.467,2341.6
587.001,1913.5
587.535,1857.75
588.07,1844.15
588.604,1842.6
589.138,1833.05
589.672,1836.85
590.206,1836.85
590.739,1845.35
591.273,1843.55
591.807,1851.05
592.34,1849.4
592.873,1845.8
593.407,1852.6
593.94,1852.45
594.473,1862.4
595.006,1865.8
595.539,1877.65
596.072,1882.6
596.605,1885.9
597.138,1899.55
597.67,1897.9
598.203,1912.45
598.735,1908.75
599.268,1924.65
599.8,1928.0
600.332,1925.25
600.865,1920.2
601.397,1928.25
601.929,1920.85
602.46,1938.5
602.992,1946.5
603.524,1955.15
604.056,1963.1
604.587,1955.85
605.119,1946.45
605.65,1940.65
606.182,1947.25
606.713,1946.25
607.244,1969.65
607.775,1988.85
608.306,1987.4
608.837,2001.0
609.368,2010.35
609.899,2021.1
610.43,2012.55
610.961,2012.45
611.491,2027.8
612.022,2042.6
612.552,2066.45
613.083,2086.25
613.613,2104.5
614.143,2125.7
614.673,2138.85
615.203,2128.05
615.734,2140.45
616.263,2151.45
616.793,2163.9
617.323,2182.55
617.853,2206.05
618.383,2217.1
618.912,2218.4
619.442,2221.35
619.971,2233.4
620.501,2240.05
621.03,2235.3
621.56,2251.75
622.089,2274.6
622.618,2293.45
623.147,2310.85
623.676,2318.0
624.205,2333.2
624.734,2360.25
625.263,2362.45
625.792,2358.1
626.321,2371.8
626.849,2385.4
627.378,2385.8
627.906,2398.55
628.435,2429.0
628.963,2449.05
629.492,2476.2
630.02,2492.9
630.548,2481.4
631.077,2520.05
631.605,2578.15
632.133,2624.95
632.661,2571.8
633.189,2554.45
633.717,2554.45
634.245,2532.8
634.773,2528.5
635.3,2547.05
635.828,2608.25
636.356,2723.15
636.883,2713.55
637.411,2591.95
637.938,2583.05
638.466,2579.05
638.993,2570.7
639.521,2582.05
640.048,2590.85
640.575,2597.85
641.103,2596.75
641.63,2612.0
642.157,2620.2
642.684,2618.6
643.211,2581.3
643.738,2580.2
644.265,2569.6
644.792,2564.55
645.319,2572.4
645.845,2575.0
646.372,2572.65
646.899,2567.6
647.425,2581.05
647.952,2581.55
648.479,2565.7
649.005,2557.2
649.532,2554.7
650.058,2554.4
650.585,2539.65
651.111,2542.95
651.637,2536.7
652.164,2551.4
652.69,2554.55
653.216,2543.8
653.742,2547.6
654.268,2540.3
654.794,2531.05
655.32,2526.85
655.846,2522.85
656.372,2518.35
656.898,2527.35
657.424,2523.5
657.95,2510.8
658.476,2516.2
659.002,2507.6
659.528,2522.05
660.053,2506.1
660.579,2500.15
661.105,2486.15
661.63,2475.95
662.156,2459.6
662.681,2460.15
663.076,2462.35

File: VLFR_09-PET_bio_Raman_066249d6.csv
nm,Intensity
528.635,1850.6
529.14,1852.0
529.645,1852.4
530.151,1850.1
530.656,1851.1
531.161,1852.6
531.666,1898.8
532.171,4408.9
532.676,1861.0
533.181,1872.2
533.686,4140.9
534.191,10301.8
534.696,9091.4
535.201,7911.5
535.705,7193.5
536.21,6490.2
536.715,6283.9
537.219,6137.8
537.724,6081.5
538.228,6084.4
538.733,6170.9
539.237,6323.6
539.741,6642.8
540.246,6573.7
540.75,6576.4
541.254,6474.2
541.758,6488.2
542.262,6670.1
542.766,6780.5
543.27,6847.9
543.774,6914.1
544.278,6961.5
544.781,7004.5
545.285,7071.3
545.789,7041.5
546.292,7308.1
546.796,7391.6
547.299,7273.3
547.803,7361.5
548.306,7612.9
548.809,7880.9
549.313,7681.1
549.816,7778.2
550.319,8172.7
550.822,8912.6
551.325,8161.5
551.828,8280.8
552.331,8248.3
552.834,8913.2
553.337,8459.5
553.839,8564.2
554.342,8704.0
554.845,8837.3
555.347,9056.6
555.85,9453.2
556.352,9432.1
556.854,9743.1
557.357,11155.3
557.859,11066.4
558.361,10046.3
558.863,9908.2
559.365,9743.1
559.867,9779.3
560.369,9778.9
560.871,10002.6
561.373,10314.7
561.875,10834.1
562.377,10806.6
562.878,10555.0
563.38,10559.3
563.881,10538.6
564.383,10812.5
564.884,12207.5
565.386,12402.0
565.887,12497.2
566.388,11337.0
566.889,11132.7
567.391,11505.3
567.892,11906.2
568.393,11417.0
568.893,11350.0
569.394,11807.4
569.895,11920.8
570.396,12517.0
570.897,14750.6
571.397,16439.6
571.898,13845.2
572.398,12793.2
572.899,12385.8
573.399,12305.0
573.899,12196.3
574.399,12102.5
574.9,12533.5
575.4,13419.8
575.9,12733.2
576.4,13004.1
576.899,13164.8
577.399,12968.4
577.899,12801.7
578.399,12714.3
578.898,12570.0
579.398,12897.1
579.897,12903.3
580.397,13363.5
580.896,13692.0
581.396,14263.9
581.895,22989.0
582.394,20883.4
582.893,14247.9
583.392,13426.7
583.891,13681.7
584.39,13667.2
584.889,13688.7
585.387,15327.3
585.886,21926.5
586.385,18436.6
586.883,14669.7
587.382,14225.3
587.88,14132.5
588.379,14098.6
588.877,13714.4
589.375,13901.4
589.873,13957.1
590.371,13979.8
590.869,13769.6
591.367,14185.2
591.865,14205.4
592.363,14050.8
592.86,13745.2
593.358,14074.4
593.856,14300.7
594.353,14207.5
594.851,14143.9
595.348,14460.5
595.845,14282.7
596.342,14600.7
596.84,14378.4
597.337,14765.0
597.834,14750.0
598.331,14531.0
598.827,14766.0
599.324,14550.2
599.821,14574.8
600.318,15006.9
600.814,14876.6
601.311,15036.0
601.807,15189.7
602.303,15029.2
602.8,15099.1
603.296,15074.5
603.792,15252.0
604.288,15521.7
604.784,15354.9
605.28,15049.9
605.776,15830.4
606.272,15454.9
606.767,15904.8
607.263,15767.3
607.758,15904.2
608.254,16075.3
608.749,15652.9
609.244,16584.0
609.74,16093.0
610.235,16194.2
610.73,16348.7
611.225,16368.9
611.72,16663.5
612.215,16694.1
612.709,16684.0
613.204,17007.7
613.699,16988.8
614.193,17361.9
614.688,17543.3
615.182,17483.7
615.676,17414.6
616.171,18071.8
616.665,17947.3
617.159,18183.3
617.653,18203.9
618.147,18499.2
618.641,18766.0
619.134,18572.6
619.628,19212.6
620.122,18971.0
620.615,19249.9
621.109,19141.1
621.602,19755.3
622.095,19311.6
622.588,19893.7
623.082,20123.6
623.575,20257.0
624.068,20027.2
624.56,20654.8
625.053,20894.7
625.546,20300.2
626.039,20867.6
626.531,20910.2
627.024,21321.4
627.516,21424.5
628.008,21561.5
628.501,21654.0
628.993,21930.0
629.485,22286.3
629.977,22087.3
630.469,22128.5
630.961,23009.5
631.452,23811.8
631.944,23782.2
632.436,23729.8
632.927,23563.0
633.418,23279.7
633.91,23837.3
634.401,23242.5
634.892,23680.0
635.383,23314.9
635.874,24475.0
636.365,25857.3
636.856,24622.4
637.347,23537.7
637.837,23488.5
638.328,24087.1
638.818,23977.4
639.309,23817.0
639.799,23822.5
640.289,23622.6
640.78,23358.4
641.27,24209.4
641.76,23995.2
642.249,23868.7
642.739,23748.3
643.229,23260.8
643.719,23069.4
644.208,24023.1
644.698,23489.5
645.187,23481.7
645.676,23273.5
646.165,23530.2
646.655,23882.8
647.144,22793.7
647.633,22620.2
648.121,23630.6
648.61,23475.2
649.099,23019.7
649.587,22982.5
650.076,22274.5
650.564,22795.6
651.053,22387.5
651.541,22254.8
652.029,22345.2
652.517,22304.3
653.005,22411.5
653.493,21239.5
653.981,21600.2
654.468,21659.5
654.956,21003.8
655.444,21206.8
655.931,21522.5
656.418,21135.4
656.906,20766.4
657.393,20272.4
657.88,20068.0
658.367,20063.7
658.854,19538.4
659.341,19420.2
659.827,19484.4
660.314,18803.7
660.8,18664.8
661.044,19157.9