Folder: MPX_specDB/spectra (part 31)

File: VLFR_01-LDPE_nobio_Raman_e2076e4c.csv
cm-1,Intensity
-123.878,1852.5
-105.821,1852.95
-87.8007,1854.25
-69.8161,1853.15
-51.8675,1853.2
-33.9547,1854.8
-16.0776,1870.3
1.76388,2702.25
19.5698,1853.8
37.3403,1855.35
55.0755,1940.15
72.7754,2192.05
90.4402,2212.65
108.07,2221.3
125.665,2233.85
143.225,2217.7
160.75,2231.5
178.241,2218.8
195.697,2245.6
213.119,2243.1
230.506,2236.6
247.859,2253.25
265.178,2265.75
282.463,2253.4
299.713,2259.25
316.93,2268.85
334.113,2277.75
351.263,2285.3
368.379,2290.3
385.461,2280.8
402.51,2293.3
419.526,2289.4
436.508,2302.65
453.458,2299.45
470.374,2302.3
487.257,2326.6
504.107,2321.35
520.925,2301.7
537.71,2319.5
554.462,2337.65
571.182,2342.1
587.87,2331.55
604.525,2336.1
621.148,2338.0
637.739,2340.05
654.297,2354.35
670.824,2361.95
687.319,2367.1
703.782,2344.05
720.213,2368.25
736.613,2394.3
752.981,2370.7
769.317,2390.6
785.623,2388.05
801.897,2386.5
818.139,2408.25
834.351,2395.85
850.532,2413.05
866.681,2430.55
882.8,2435.55
898.888,2422.3
914.945,2440.75
930.972,2453.45
946.968,2455.75
962.934,2455.05
978.869,2467.9
994.774,2475.35
1010.65,2492.95
1026.49,2496.25
1042.31,2497.0
1058.09,2538.4
1073.85,2529.0
1089.57,2547.55
1105.27,2537.05
1120.93,2555.85
1136.57,2571.3
1152.18,2553.0
1167.75,2565.15
1183.3,2584.55
1198.82,2596.85
1214.31,2614.8
1229.77,2608.65
1245.2,2627.25
1260.6,2657.65
1275.97,2645.85
1291.32,2712.25
1306.63,2690.9
1321.92,2707.2
1337.18,2699.45
1352.41,2707.4
1367.61,2688.0
1382.78,2704.05
1397.93,2702.05
1413.05,2731.4
1428.14,2748.6
1443.2,2792.2
1458.23,2783.45
1473.23,2734.75
1488.21,2709.65
1503.16,2721.9
1518.08,2747.7
1532.97,2759.6
1547.84,2774.95
1562.68,2773.4
1577.49,2796.7
1592.27,2808.3
1607.03,2789.0
1621.76,2755.95
1636.46,2750.5
1651.14,2736.05
1665.78,2718.15
1680.41,2740.2
1695.0,2703.75
1709.57,2710.5
1724.11,2716.8
1738.62,2716.55
1753.11,2732.5
1767.57,2728.95
1782.01,2735.7
1796.41,2724.25
1810.8,2741.95
1825.15,2721.75
1839.48,2739.15
1853.79,2760.0
1868.06,2756.25
1882.31,2745.8
1896.54,2770.25
1910.74,2769.8
1924.91,2762.75
1939.06,2777.8
1953.19,2790.95
1967.28,2780.0
1981.35,2784.6
1995.4,2793.7
2009.42,2813.6
2023.42,2834.35
2037.39,2837.0
2051.33,2840.1
2065.25,2830.65
2079.15,2848.75
2093.01,2864.0
2106.86,2864.35
2120.68,2855.95
2134.47,2881.65
2148.24,2880.9
2161.99,2867.35
2175.71,2896.85
2189.41,2907.7
2203.08,2909.15
2216.73,2878.6
2230.35,2895.95
2243.95,2881.6
2257.52,2884.5
2271.07,2897.85
2284.6,2888.4
2298.1,2910.55
2311.58,2922.6
2325.03,2915.0
2338.46,2886.85
2351.87,2890.8
2365.25,2914.05
2378.61,2890.65
2391.94,2890.15
2405.26,2930.75
2418.54,2915.15
2431.81,2944.6
2445.05,2945.1
2458.27,2911.2
2471.46,2940.3
2484.63,2933.9
2497.78,2930.8
2510.9,2943.45
2524.0,2931.05
2537.08,2934.6
2550.14,2961.35
2563.17,2948.15
2576.18,2948.55
2589.17,2948.1
2602.13,2998.45
2615.07,2978.5
2627.99,2963.2
2640.89,2999.95
2653.76,3000.5
2666.61,2972.25
2679.44,2981.15
2692.25,2996.35
2705.03,3045.0
2717.79,3051.9
2730.53,3047.3
2743.25,3017.5
2755.94,2998.7
2768.61,2979.5
2781.27,3016.85
2793.89,3042.25
2806.5,3038.45
2819.09,3056.65
2831.65,3116.0
2844.19,3521.95
2856.71,3574.05
2869.21,3396.2
2881.69,3617.75
2894.14,3509.95
2906.58,3377.45
2918.99,3314.4
2931.38,3324.0
2943.75,3187.75
2956.1,3104.65
2968.42,3060.95
2980.73,3081.8
2993.01,3011.5
3005.28,3071.6
3017.52,3066.9
3029.74,3048.3
3041.94,3085.7
3054.12,3018.85
3066.28,3046.55
3078.42,3048.2
3090.54,3048.0
3102.63,3039.35
3114.71,3075.5
3126.77,3068.9
3138.8,3067.65
3150.82,3050.6
3162.81,3068.05
3174.78,3053.9
3186.74,3026.4
3198.67,3055.6
3210.58,3028.2
3222.47,3029.2
3234.35,3019.35
3246.2,3040.75
3258.03,3045.95
3269.84,3054.3
3281.64,3037.6
3293.41,3009.55
3305.16,3038.65
3316.89,2980.15
3328.61,3013.05
3340.3,3051.1
3351.97,2986.05
3363.63,3048.8
3375.26,2992.45
3386.88,2985.4
3398.47,2990.55
3410.05,2977.7
3421.6,2996.1
3433.14,3011.1
3444.66,2982.35
3456.15,2994.35
3467.63,2981.4
3479.09,2949.7
3490.53,2961.1
3501.96,2939.9
3513.36,2959.3
3524.74,2944.45
3536.11,2970.45
3547.45,2938.55
3558.78,2912.15
3570.09,2911.25
3581.37,2945.15
3592.64,2890.2
3603.9,2874.35
3615.13,2866.55
3626.34,2879.25
3637.54,2869.2
3648.72,2866.5
3659.87,2835.45
3665.45,2875.9

File: VLFR_01-LDPE_nobio_Raman_ea17ea25.csv
nm,Intensity
528.65,1842.95
529.155,1842.1
529.66,1842.15
530.165,1842.9
530.67,1842.45
531.175,1843.0
531.68,1859.85
532.185,2464.45
532.69,1843.85
533.194,1843.15
533.699,1934.6
534.204,2136.0
534.708,2103.0
535.213,2065.3
535.717,2020.45
536.222,2004.25
536.726,1995.15
537.231,1989.1
537.735,2000.65
538.239,1988.2
538.743,1975.15
539.247,1968.55
539.751,1957.95
540.255,1955.5
540.759,1955.75
541.263,1958.4
541.767,1953.95
542.271,1950.75
542.775,1950.95
543.279,1955.6
543.782,1957.9
544.286,1957.75
544.789,1955.15
545.293,1948.7
545.796,1957.25
546.3,1950.5
546.803,1951.75
547.306,1955.4
547.81,1952.75
548.313,1952.9
548.816,1950.9
549.319,1951.15
549.822,1949.7
550.325,1946.85
550.828,1952.05
551.331,1947.15
551.834,1949.65
552.337,1952.55
552.839,1953.65
553.342,1969.05
553.844,1974.0
554.347,1972.7
554.849,1978.75
555.352,1974.2
555.854,1984.8
556.357,1992.45
556.859,1993.5
557.361,2004.9
557.863,2020.1
558.365,2024.9
558.867,2013.2
559.369,2003.05
559.871,1999.2
560.373,1995.65
560.875,1996.2
561.377,1997.4
561.878,2004.5
562.38,2017.15
562.881,2031.05
563.383,2051.9
563.884,2342.5
564.386,2166.9
564.887,2115.15
565.388,2080.8
565.89,2234.6
566.391,2207.6
566.892,2058.5
567.393,2087.55
567.894,2038.25
568.395,2035.75
568.896,2030.35
569.396,2046.9
569.897,2049.85
570.398,2079.15
570.898,2117.7
571.399,2582.3
571.9,2296.35
572.4,2167.8
572.9,2115.05
573.401,2128.8
573.901,2163.85
574.401,2139.05
574.901,2150.8
575.401,2328.55
575.901,2503.45
576.401,2854.05
576.901,2686.4
577.401,2468.45
577.901,2361.45
578.4,2385.1
578.9,2410.4
579.399,2475.55
579.899,2499.95
580.398,2569.65
580.898,2604.75
581.397,2688.4
581.896,2692.05
582.395,2785.9
582.895,2800.9
583.394,2860.45
583.893,2940.2
584.391,2960.9
584.89,3008.1
585.389,3027.9
585.888,3057.5
586.386,3153.1
586.885,3260.05
587.384,3279.15
587.882,3378.5
588.38,3525.35
588.879,3590.3
589.377,3634.65
589.875,3780.75
590.373,3819.75
590.871,3930.7
591.369,3984.4
591.867,4086.0
592.365,4126.3
592.863,4203.3
593.361,4264.55
593.858,4285.25
594.356,4279.15
594.853,4317.55
595.351,4397.95
595.848,4452.8
596.345,4527.35
596.843,4550.1
597.34,4647.9
597.837,4764.15
598.334,4757.75
598.831,4818.55
599.328,4875.85
599.824,4841.25
600.321,4976.75
600.818,4948.65
601.314,4981.85
601.811,4951.7
602.307,4822.95
602.804,4757.15
603.3,4756.2
603.796,4636.15
604.293,4514.05
604.789,4476.8
605.285,4278.85
605.781,4214.65
606.277,4122.7
606.772,4091.35
607.268,3965.1
607.764,3866.45
608.259,3812.0
608.755,3770.65
609.25,3652.85
609.746,3647.2
610.241,3519.1
610.736,3531.7
611.231,3463.2
611.727,3471.0
612.222,3398.7
612.716,3341.05
613.211,3316.05
613.706,3270.8
614.201,3246.75
614.695,3229.45
615.19,3201.3
615.684,3164.65
616.179,3147.15
616.673,3109.4
617.168,3100.45
617.662,3088.85
618.156,3052.35
618.65,3049.35
619.144,3008.65
619.638,3033.05
620.131,2996.7
620.625,2991.75
621.119,2996.65
621.612,3084.05
622.106,3110.0
622.599,3071.45
623.093,2972.4
623.586,2905.25
624.079,2884.0
624.572,2877.55
625.065,2890.45
625.558,2884.6
626.051,2969.4
626.544,3366.5
627.037,5734.5
627.529,5407.2
628.022,4913.0
628.514,6597.15
629.007,5167.45
629.499,4537.55
629.991,4158.65
630.483,4013.55
630.976,3503.1
631.468,3091.35
631.959,2980.85
632.451,2934.05
632.943,2879.65
633.435,2917.15
633.926,2898.3
634.418,2857.9
634.909,2896.1
635.401,2867.0
635.892,2898.0
636.383,2874.95
636.874,2895.85
637.365,2891.4
637.856,2899.45
638.347,2937.4
638.838,2942.35
639.329,2941.25
639.819,2988.5
640.31,3010.1
640.8,2982.7
641.291,3065.7
641.781,3044.2
642.271,3064.1
642.761,3068.85
643.251,3078.9
643.741,3144.05
644.231,3118.0
644.721,3126.3
645.211,3051.8
645.7,3119.75
646.19,3137.8
646.679,3118.7
647.169,3180.75
647.658,3162.05
648.147,3126.75
648.636,3128.25
649.125,3080.25
649.614,3115.95
650.103,3031.3
650.592,3108.05
651.08,3081.85
651.569,3033.4
652.058,3085.75
652.546,3052.8
653.034,3065.8
653.523,3054.85
654.011,3052.1
654.499,2971.45
654.987,2980.75
655.475,3006.7
655.963,2945.35
656.45,2918.85
656.938,2903.05
657.425,2871.5
657.913,2874.6
658.4,2805.9
658.888,2775.65
659.375,2752.0
659.862,2708.15
660.349,2656.5
660.836,2676.05
661.079,2643.55

File: VLFR_01-LDPE_nobio_Raman_ef86294d.csv
nm,Intensity
526.486,829.0
527.033,830.1
527.579,830.1
528.126,830.5
528.672,829.0
529.219,830.3
529.765,829.3
530.311,830.1
530.857,829.7
531.403,829.0
531.948,831.3
532.494,830.5
533.039,829.2
533.585,828.9
534.13,899.1
534.675,887.2
535.22,876.5
535.764,867.0
536.309,864.2
536.854,857.4
537.398,857.3
537.942,859.5
538.486,855.8
539.03,854.8
539.574,851.8
540.118,850.0
540.662,851.7
541.205,852.4
541.749,849.6
542.292,849.1
542.835,849.3
543.378,848.5
543.921,850.0
544.464,849.9
545.006,847.7
545.549,849.1
546.091,847.6
546.634,848.2
547.176,846.8
547.718,845.4
548.26,846.6
548.802,844.3
549.343,848.0
549.885,844.1
550.426,845.4
550.968,846.1
551.509,848.3
552.05,845.0
552.591,847.8
553.132,847.4
553.673,847.9
554.214,847.8
554.754,849.4
555.295,848.1
555.835,848.0
556.375,851.8
556.915,850.8
557.455,853.7
557.995,855.3
558.535,854.3
559.075,852.8
559.614,854.8
560.154,851.3
560.693,851.2
561.232,848.8
561.772,852.6
562.311,854.6
562.85,858.0
563.388,859.6
563.927,893.4
564.466,872.2
565.004,869.2
565.543,861.8
566.081,894.4
566.619,865.7
567.157,860.5
567.695,863.5
568.233,856.3
568.771,856.7
569.309,857.7
569.846,859.4
570.384,859.7
570.921,866.2
571.458,918.6
571.995,891.4
572.532,871.3
573.069,866.1
573.606,865.7
574.143,872.5
574.68,865.6
575.216,869.0
575.753,896.5
576.289,980.9
576.825,940.2
577.361,917.5
577.897,889.3
578.433,883.8
578.969,886.6
579.505,888.5
580.041,888.4
580.576,890.9
581.112,895.4
581.647,898.1
582.183,897.9
582.718,898.9
583.253,902.4
583.788,906.8
584.323,908.5
584.858,908.9
585.392,911.8
585.927,912.7
586.462,914.5
586.996,917.5
587.53,919.6
588.065,922.6
588.599,923.2
589.133,927.6
589.667,926.8
590.201,928.5
590.735,934.5
591.268,931.7
591.802,933.2
592.335,935.2
592.869,939.4
593.402,941.4
593.936,945.9
594.469,949.6
595.002,953.2
595.535,958.3
596.068,959.6
596.601,967.6
597.133,974.8
597.666,971.9
598.199,984.3
598.731,989.6
599.264,993.9
599.796,999.6
600.328,999.0
600.86,995.7
601.393,994.4
601.925,992.8
602.457,994.0
602.988,982.1
603.52,982.8
604.052,978.3
604.583,969.1
605.115,964.7
605.646,951.0
606.178,949.7
606.709,945.3
607.24,942.8
607.771,935.8
608.302,927.9
608.833,927.3
609.364,924.0
609.895,923.4
610.426,919.5
610.957,916.8
611.487,917.9
612.018,912.3
612.548,914.6
613.078,911.6
613.609,910.7
614.139,908.7
614.669,905.8
615.199,904.3
615.729,903.9
616.259,905.5
616.789,904.4
617.319,907.4
617.849,906.2
618.378,907.6
618.908,906.2
619.437,906.4
619.967,906.8
620.496,906.1
621.025,907.6
621.555,920.6
622.084,936.6
622.613,941.1
623.142,912.0
623.671,903.1
624.2,906.6
624.729,904.0
625.258,908.6
625.786,915.2
626.315,930.5
626.844,1126.5
627.372,1571.0
627.901,1306.4
628.429,1458.0
628.957,1339.1
629.486,1251.2
630.014,1146.8
630.542,1122.7
631.07,1019.4
631.598,950.2
632.126,921.8
632.654,910.5
633.182,903.1
633.71,904.8
634.237,898.3
634.765,897.9
635.293,895.2
635.82,897.8
636.348,895.2
636.875,892.5
637.403,891.7
637.93,890.8
638.458,892.0
638.985,890.8
639.512,892.5
640.039,890.8
640.566,889.6
641.093,894.9
641.62,893.8
642.147,890.1
642.674,894.5
643.201,890.2
643.728,894.2
644.255,893.0
644.781,892.5
645.308,891.9
645.835,894.1
646.361,892.2
646.888,891.7
647.414,890.4
647.941,892.9
648.467,892.0
648.993,892.7
649.52,890.2
650.046,894.6
650.572,891.9
651.098,894.8
651.625,897.9
652.151,893.8
652.677,899.0
653.203,894.3
653.729,898.0
654.255,897.1
654.78,897.5
655.306,894.2
655.832,894.7
656.358,896.0
656.884,895.3
657.409,890.5
657.935,891.8
658.461,888.3
658.986,886.6
659.512,883.1
660.037,884.0
660.563,882.2
661.088,879.8
661.614,875.5
662.139,876.9
662.664,874.0
663.058,871.5

File: VLFR_01-LDPE_nobio_Raman_f0b03248.csv
nm,Intensity
526.486,830.0
527.033,830.7
527.579,829.5
528.126,830.7
528.672,830.2
529.219,829.6
529.765,829.7
530.311,830.0
530.857,829.1
531.403,829.1
531.948,830.8
532.494,830.7
533.039,830.7
533.585,830.5
534.13,865.8
534.675,863.2
535.22,858.1
535.764,856.6
536.309,852.6
536.854,851.1
537.398,850.9
537.942,847.3
538.486,846.3
539.03,847.4
539.574,847.0
540.118,846.3
540.662,847.9
541.205,851.1
541.749,854.8
542.292,851.7
542.835,852.2
543.378,850.5
543.921,846.1
544.464,848.5
545.006,852.5
545.549,854.4
546.091,848.0
546.634,849.2
547.176,846.3
547.718,847.6
548.26,846.5
548.802,846.8
549.343,847.0
549.885,849.6
550.426,848.9
550.968,845.6
551.509,848.1
552.05,846.8
552.591,847.5
553.132,846.9
553.673,847.5
554.214,847.7
554.754,848.0
555.295,848.1
555.835,845.9
556.375,848.6
556.915,850.3
557.455,849.4
557.995,849.9
558.535,852.9
559.075,855.5
559.614,849.5
560.154,851.5
560.693,851.7
561.232,851.8
561.772,853.0
562.311,853.4
562.85,856.9
563.388,858.3
563.927,869.3
564.466,867.4
565.004,888.6
565.543,872.0
566.081,879.4
566.619,863.2
567.157,858.1
567.695,858.6
568.233,854.5
568.771,856.8
569.309,857.4
569.846,859.2
570.384,860.0
570.921,863.0
571.458,877.6
571.995,868.0
572.532,866.2
573.069,870.0
573.606,868.6
574.143,871.8
574.68,868.9
575.216,868.9
575.753,874.3
576.289,888.7
576.825,881.1
577.361,874.2
577.897,863.3
578.433,862.7
578.969,858.3
579.505,863.0
580.041,861.5
580.576,861.5
581.112,867.3
581.647,871.1
582.183,866.2
582.718,868.3
583.253,866.4
583.788,868.4
584.323,865.6
584.858,866.7
585.392,869.1
585.927,873.3
586.462,873.9
586.996,876.3
587.53,879.9
588.065,882.7
588.599,882.0
589.133,883.5
589.667,884.5
590.201,889.0
590.735,889.8
591.268,896.1
591.802,897.9
592.335,899.8
592.869,901.0
593.402,908.1
593.936,907.9
594.469,909.5
595.002,914.7
595.535,918.6
596.068,922.6
596.601,929.9
597.133,934.9
597.666,942.1
598.199,944.2
598.731,951.7
599.264,957.7
599.796,964.9
600.328,960.9
600.86,959.6
601.393,969.0
601.925,966.5
602.457,965.6
602.988,966.6
603.52,959.1
604.052,959.1
604.583,957.8
605.115,952.2
605.646,947.2
606.178,939.0
606.709,936.7
607.24,936.9
607.771,935.3
608.302,932.1
608.833,932.9
609.364,928.0
609.895,930.9
610.426,930.5
610.957,927.4
611.487,925.9
612.018,926.4
612.548,932.6
613.078,926.2
613.609,924.1
614.139,927.1
614.669,925.7
615.199,926.5
615.729,918.3
616.259,921.3
616.789,924.9
617.319,924.8
617.849,920.9
618.378,923.7
618.908,919.8
619.437,921.2
619.967,919.3
620.496,921.1
621.025,922.6
621.555,927.0
622.084,926.4
622.613,927.8
623.142,919.7
623.671,916.3
624.2,924.1
624.729,922.6
625.258,923.1
625.786,919.6
626.315,924.1
626.844,966.1
627.372,1044.1
627.901,1004.2
628.429,1031.3
628.957,1020.7
629.486,1001.4
630.014,976.8
630.542,973.6
631.07,951.6
631.598,937.2
632.126,935.3
632.654,924.6
633.182,918.0
633.71,913.8
634.237,910.1
634.765,914.0
635.293,913.8
635.82,910.7
636.348,914.9
636.875,920.0
637.403,915.8
637.93,918.1
638.458,915.5
638.985,912.0
639.512,917.6
640.039,920.7
640.566,915.9
641.093,925.4
641.62,921.8
642.147,926.5
642.674,926.6
643.201,926.1
643.728,925.9
644.255,926.3
644.781,933.9
645.308,929.5
645.835,930.8
646.361,934.0
646.888,938.4
647.414,936.3
647.941,936.1
648.467,939.9
648.993,942.2
649.52,941.1
650.046,948.1
650.572,943.0
651.098,945.6
651.625,948.0
652.151,947.5
652.677,950.8
653.203,951.7
653.729,944.8
654.255,950.1
654.78,947.9
655.306,949.9
655.832,952.6
656.358,957.6
656.884,945.5
657.409,949.8
657.935,950.8
658.461,948.3
658.986,944.5
659.512,951.6
660.037,944.2
660.563,943.9
661.088,941.2
661.614,936.7
662.139,933.3
662.664,938.8
663.058,933.9

File: VLFR_01-LDPE_nobio_Raman_f2fdd988.csv
nm,Intensity
526.532,830.467
527.079,829.8
527.625,829.2
528.172,830.1
528.718,830.033
529.265,830.133
529.811,829.833
530.357,830.367
530.903,830.867
531.449,829.5
531.994,836.7
532.54,829.833
533.085,829.633
533.63,832.3
534.176,920.6
534.721,904.467
535.266,889.033
535.81,878.333
536.355,872.633
536.9,869.333
537.444,868.9
537.988,868.1
538.533,866.133
539.077,866.3
539.621,859.967
540.165,858.233
540.708,858.033
541.252,855.9
541.795,854.4
542.339,857.3
542.882,856.867
543.425,855.367
543.968,854.4
544.511,853.8
545.054,853.767
545.597,852.667
546.139,852.367
546.682,852.3
547.224,853.633
547.766,852.267
548.308,852.3
548.85,850.767
549.392,851.733
549.934,851.067
550.475,851.867
551.017,851.033
551.558,851.333
552.1,852.167
552.641,851.133
553.182,852.9
553.723,855.733
554.264,853.733
554.804,854.267
555.345,856.667
555.885,857.1
556.426,859.133
556.966,861.667
557.506,863.2
558.046,865.4
558.586,866.733
559.126,863.333
559.665,861.133
560.205,860.9
560.745,859.267
561.284,859.7
561.823,861.6
562.362,863.667
562.901,866.833
563.44,871.733
563.979,945.8
564.518,893.633
565.056,884.867
565.595,879.633
566.133,972.367
566.671,880.733
567.21,873.5
567.748,871.1
568.285,866.433
568.823,868.7
569.361,868.7
569.899,870.3
570.436,876.633
570.974,883.667
571.511,1026.1
572.048,912.8
572.585,888.967
573.122,883.333
573.659,882.8
574.196,889.067
574.733,883.567
575.269,889.4
575.806,941.533
576.342,1033.5
576.878,982.5
577.414,940.433
577.951,911.1
578.486,910.033
579.022,916.733
579.558,920.8
580.094,924.6
580.629,931.233
581.165,938.367
581.7,944.9
582.236,951.2
582.771,955.867
583.306,959.9
583.841,964.4
584.376,968.367
584.911,974.6
585.445,981.467
585.98,985.367
586.514,994.333
587.049,995.6
587.583,1006.23
588.117,1010.27
588.651,1012.3
589.186,1017.87
589.72,1022.07
590.253,1026.6
590.787,1037.13
591.321,1040.6
591.854,1045.53
592.388,1045.27
592.921,1047.4
593.455,1048.27
593.988,1049.03
594.521,1051.17
595.054,1058.97
595.587,1058.17
596.12,1063.13
596.653,1065.53
597.186,1072.2
597.718,1071.13
598.251,1084.6
598.783,1089.13
599.316,1093.77
599.848,1097.5
600.38,1092.0
600.912,1092.77
601.444,1089.9
601.976,1091.87
602.508,1088.63
603.04,1078.13
603.572,1075.17
604.103,1065.27
604.635,1052.27
605.167,1043.87
605.698,1035.77
606.229,1023.53
606.761,1019.07
607.292,1010.33
607.823,1005.73
608.354,999.667
608.885,995.233
609.416,988.067
609.947,985.2
610.477,982.533
611.008,980.467
611.539,974.8
612.069,972.3
612.6,971.267
613.13,967.467
613.66,964.033
614.19,961.933
614.721,960.3
615.251,958.6
615.781,951.667
616.311,953.3
616.841,952.033
617.37,955.267
617.9,951.833
618.43,953.167
618.96,953.467
619.489,952.467
620.019,952.067
620.548,950.767
621.077,952.633
621.607,964.3
622.136,985.167
622.665,977.0
623.194,956.733
623.723,948.1
624.252,945.8
624.781,949.1
625.31,949.033
625.839,959.433
626.368,983.867
626.896,1233.63
627.425,1624.87
627.953,1371.07
628.482,1662.8
629.01,1481.0
629.539,1355.8
630.067,1254.23
630.596,1221.3
631.124,1077.67
631.652,1004.93
632.18,975.9
632.708,963.333
633.236,956.733
633.764,951.967
634.292,951.967
634.82,951.633
635.348,949.733
635.876,951.3
636.403,950.533
636.931,950.6
637.459,946.8
637.986,948.467
638.514,947.0
639.041,952.433
639.568,953.433
640.096,953.3
640.623,950.533
641.15,952.333
641.678,953.367
642.205,954.467
642.732,955.1
643.259,953.667
643.786,953.833
644.313,954.367
644.84,953.467
645.367,953.3
645.894,952.233
646.421,951.4
646.948,952.567
647.474,951.6
648.001,953.6
648.528,951.5
649.054,948.533
649.581,948.467
650.108,950.0
650.634,948.433
651.161,949.0
651.687,948.7
652.214,948.167
652.74,950.367
653.266,949.067
653.793,949.933
654.319,949.767
654.845,946.833
655.371,948.967
655.897,945.167
656.424,941.1
656.95,942.033
657.476,939.333
658.002,937.433
658.528,934.633
659.054,932.233
659.58,930.967
660.106,927.967
660.631,924.567
661.157,919.667
661.683,919.0
662.209,913.433
662.735,910.233
663.129,907.567

File: VLFR_01-LDPE_nobio_Raman_f34b1672.csv
nm,Intensity
526.486,829.1
527.033,828.3
527.579,829.5
528.126,828.6
528.672,828.5
529.219,828.3
529.765,828.5
530.311,828.3
530.857,828.6
531.403,830.1
531.948,829.8
532.494,829.5
533.039,829.1
533.585,831.0
534.13,893.0
534.675,886.8
535.22,873.4
535.764,865.9
536.309,861.9
536.854,858.6
537.398,858.0
537.942,857.4
538.486,856.4
539.03,860.0
539.574,856.4
540.118,852.8
540.662,851.4
541.205,852.4
541.749,851.5
542.292,851.3
542.835,851.3
543.378,850.0
543.921,848.1
544.464,849.3
545.006,847.4
545.549,846.3
546.091,847.7
546.634,846.8
547.176,847.6
547.718,846.6
548.26,846.1
548.802,846.7
549.343,847.5
549.885,849.3
550.426,849.0
550.968,847.8
551.509,847.2
552.05,847.3
552.591,846.1
553.132,848.0
553.673,848.6
554.214,849.7
554.754,850.1
555.295,850.3
555.835,853.1
556.375,851.2
556.915,853.0
557.455,852.3
557.995,857.1
558.535,854.8
559.075,851.8
559.614,852.9
560.154,852.7
560.693,852.9
561.232,852.9
561.772,854.2
562.311,855.0
562.85,856.4
563.388,859.9
563.927,889.4
564.466,870.9
565.004,867.0
565.543,861.0
566.081,892.1
566.619,865.3
567.157,860.0
567.695,864.9
568.233,856.6
568.771,857.6
569.309,857.5
569.846,861.4
570.384,861.9
570.921,868.1
571.458,916.2
571.995,888.1
572.532,871.1
573.069,864.4
573.606,865.5
574.143,871.0
574.68,861.4
575.216,863.3
575.753,893.0
576.289,959.4
576.825,922.8
577.361,899.1
577.897,872.9
578.433,868.2
578.969,866.2
579.505,868.9
580.041,865.0
580.576,868.0
581.112,868.6
581.647,869.9
582.183,870.8
582.718,873.9
583.253,878.5
583.788,877.2
584.323,881.7
584.858,885.7
585.392,884.9
585.927,889.4
586.462,895.2
586.996,898.9
587.53,899.4
588.065,908.3
588.599,911.2
589.133,915.5
589.667,919.6
590.201,924.6
590.735,924.4
591.268,930.4
591.802,929.6
592.335,937.3
592.869,937.8
593.402,940.0
593.936,945.4
594.469,954.4
595.002,954.5
595.535,965.6
596.068,964.0
596.601,976.0
597.133,981.9
597.666,988.4
598.199,999.4
598.731,1001.6
599.264,1008.4
599.796,1024.9
600.328,1027.4
600.86,1019.4
601.393,1026.1
601.925,1021.6
602.457,1015.1
602.988,1010.6
603.52,1010.1
604.052,1003.3
604.583,989.7
605.115,982.7
605.646,972.9
606.178,971.8
606.709,956.7
607.24,953.0
607.771,954.1
608.302,949.9
608.833,949.0
609.364,945.0
609.895,937.0
610.426,932.7
610.957,932.5
611.487,930.0
612.018,931.7
612.548,926.4
613.078,926.9
613.609,924.3
614.139,923.0
614.669,920.5
615.199,915.9
615.729,915.5
616.259,913.2
616.789,915.2
617.319,919.0
617.849,916.4
618.378,915.1
618.908,910.0
619.437,916.3
619.967,918.1
620.496,912.7
621.025,918.3
621.555,926.3
622.084,941.2
622.613,943.2
623.142,919.1
623.671,910.8
624.2,911.6
624.729,912.5
625.258,913.9
625.786,914.7
626.315,936.1
626.844,1114.2
627.372,1535.6
627.901,1282.5
628.429,1435.2
628.957,1320.7
629.486,1233.0
630.014,1141.2
630.542,1116.7
631.07,1012.2
631.598,943.2
632.126,922.5
632.654,908.5
633.182,900.9
633.71,897.6
634.237,896.8
634.765,895.0
635.293,894.0
635.82,893.9
636.348,896.5
636.875,895.2
637.403,893.4
637.93,894.3
638.458,895.5
638.985,895.5
639.512,898.2
640.039,899.8
640.566,899.9
641.093,898.8
641.62,902.0
642.147,904.3
642.674,907.4
643.201,908.4
643.728,905.3
644.255,907.4
644.781,908.4
645.308,909.7
645.835,907.5
646.361,913.4
646.888,913.1
647.414,912.6
647.941,913.1
648.467,910.5
648.993,915.9
649.52,916.3
650.046,912.2
650.572,914.7
651.098,917.8
651.625,917.2
652.151,915.6
652.677,920.1
653.203,920.8
653.729,926.3
654.255,921.2
654.78,918.3
655.306,920.5
655.832,920.5
656.358,918.4
656.884,920.9
657.409,919.0
657.935,918.5
658.461,915.4
658.986,910.5
659.512,907.8
660.037,910.3
660.563,905.9
661.088,903.9
661.614,896.7
662.139,896.2
662.664,892.1
663.058,890.1