Folder: MPX_specDB/spectra (part 122)

File: VLFR_07-PET_nobio_Raman_c629f37e.csv
nm,Intensity
791.588,7283.0
792.685,7122.3
793.781,6987.0
794.878,6970.6
795.975,6948.0
797.071,6933.8
798.168,6858.6
799.264,6866.3
800.36,6816.7
801.456,6760.4
802.552,6744.1
803.648,6758.2
804.744,6710.2
805.84,6705.3
806.936,6721.4
808.031,6612.2
809.127,6615.1
810.222,6562.2
811.317,6568.3
812.412,6488.8
813.507,6455.2
814.602,6416.9
815.697,6330.0
816.792,6323.6
817.887,6311.5
818.981,6230.0
820.076,6202.5
821.17,6129.5
822.265,6128.6
823.359,6100.0
824.453,6081.9
825.547,6031.0
826.641,5925.0
827.735,5958.1
828.828,5878.0
829.922,5832.7
831.016,5810.7
832.109,5759.0
833.202,5722.8
834.295,5730.7
835.388,5643.8
836.481,5653.1
837.574,5671.6
838.667,5677.3
839.76,5581.6
840.852,5651.8
841.945,5627.8
843.037,5548.7
844.129,5513.2
845.221,5506.3
846.314,5434.2
847.405,5401.2
848.497,5369.0
849.589,5375.2
850.681,5359.5
851.772,5327.5
852.863,5329.0
853.955,5308.6
855.046,5275.5
856.137,5313.5
857.228,5227.8
858.318,5271.0
859.409,5279.0
860.5,5272.3
861.59,5212.0
862.681,5160.4
863.771,5168.1
864.861,5166.8
865.951,5118.3
867.041,5083.1
868.131,5071.4
869.22,5080.3
870.31,5079.5
871.399,5112.4
872.488,5115.5
873.578,5109.7
874.667,5056.8
875.756,5031.5
876.845,4979.9
877.933,4928.6
879.022,4932.6
880.11,4934.6
881.199,4917.2
882.287,4914.8
883.375,4908.5
884.463,4874.8
885.551,4874.3
886.639,4828.9
887.726,4823.9
888.814,4801.5
889.901,4768.8
890.988,4793.0
892.075,4777.5
893.162,4725.1
894.249,4713.5
895.336,4692.9
896.423,4698.3
897.509,4748.5
898.595,4823.3
899.682,4740.6
900.768,4631.4
901.854,4600.7
902.94,4584.5
904.025,4564.8
905.111,4571.0
906.196,4579.4
907.282,4640.3
908.367,4608.2
909.452,4561.4
910.537,4476.6
911.622,4476.1
912.706,4428.6
913.791,4423.6
914.875,4422.1
915.959,4407.3
917.044,4370.0
918.128,4389.9
919.211,4341.6
920.295,4319.0
921.379,4320.3
922.462,4307.9
923.546,4287.9
924.629,4279.5
925.712,4266.2
926.795,4243.6
927.877,4236.1
928.96,4219.3
930.043,4215.4
931.125,4196.4
932.207,4185.8
933.289,4176.4
934.371,4154.7
935.453,4140.9
936.535,4137.0
937.616,4109.9
938.697,4111.3
939.779,4091.6
940.86,4094.0
941.941,4077.5
943.022,4081.7
944.102,4060.9
945.183,4057.2
946.263,4031.0
947.343,4037.3
948.423,4017.3
949.503,4022.0
950.583,4008.9
951.663,4002.5
952.742,3995.2
953.822,3982.0
954.901,3976.1
955.98,3977.5
957.059,3961.8
958.137,3966.9
959.216,3958.8
960.294,3952.1
961.373,3947.7
962.451,3939.2
963.529,3931.6
964.607,3927.9
965.684,3916.7
966.762,3917.8
967.839,3908.5
968.917,3896.2
969.994,3900.0
971.071,3895.4
972.147,3884.7
973.224,3888.8
974.3,3888.1
975.377,3876.7
976.453,3879.5
977.529,3872.1
978.605,3866.0
979.68,3860.8
980.756,3862.0
981.831,3857.4
982.907,3857.1
983.982,3851.2
985.057,3844.3
986.131,3845.7
987.206,3846.1
988.28,3845.3
989.355,3838.1
990.429,3832.1
991.503,3834.4
992.576,3830.5
993.65,3826.3
994.723,3824.4
995.797,3823.7
996.87,3816.9
997.943,3817.2
999.016,3814.8
1000.09,3818.7
1001.16,3810.9
1002.23,3809.5
1003.31,3811.2
1004.38,3806.3
1005.45,3806.2
1006.52,3799.7
1007.59,3799.4
1008.66,3801.6
1009.73,3795.5
1010.81,3797.7
1011.88,3797.5
1012.95,3793.7
1014.02,3793.4
1015.09,3794.0
1016.16,3789.1
1017.23,3791.8
1018.3,3789.0
1019.37,3786.4
1020.44,3789.9
1021.51,3788.5
1022.58,3785.6
1023.64,3788.1
1024.71,3785.5
1025.78,3781.5
1026.85,3782.0
1027.92,3780.3
1028.99,3781.4
1030.05,3778.4
1031.12,3775.8
1032.19,3776.6
1033.26,3774.0
1034.32,3777.7
1035.39,3775.9
1036.46,3777.5
1037.52,3772.1
1038.59,3774.5
1039.66,3772.8
1040.72,3770.9
1041.79,3770.7
1042.86,3772.1
1043.92,3771.0
1044.99,3770.8
1046.05,3768.8
1047.12,3769.3
1048.18,3767.8
1049.25,3769.2
1050.31,3764.2
1051.37,3767.5
1052.44,3767.4
1053.5,3767.1
1054.57,3767.1
1055.63,3768.7
1056.69,3768.2
1057.76,3767.5
1058.82,3765.8
1059.88,3764.9
1060.95,3766.5
1062.01,3765.0
1063.07,3764.2
1064.13,3765.9
1065.19,3763.7
1066.26,3765.8
1067.32,3765.2
1068.11,3763.4

File: VLFR_07-PET_nobio_Raman_cb252e98.csv
nm,Intensity
791.377,11550.5
792.477,10632.3
793.576,10041.2
794.676,9814.68
795.775,9691.94
796.874,9609.7
797.973,9538.88
799.072,9569.08
800.171,9457.32
801.27,9383.44
802.368,9430.56
803.467,9210.94
804.565,8993.36
805.664,8896.46
806.762,8844.62
807.86,8759.58
808.958,8722.84
810.056,8640.62
811.153,8593.78
812.251,8496.72
813.349,8322.88
814.446,8387.06
815.543,8303.42
816.64,8268.54
817.737,8178.74
818.834,8124.86
819.931,8118.52
821.028,7971.48
822.125,7888.6
823.221,7866.7
824.317,7756.9
825.414,7927.86
826.51,7745.8
827.606,7526.18
828.702,7566.54
829.797,7535.38
830.893,7551.18
831.988,7397.16
833.084,7351.04
834.179,7267.82
835.274,7160.32
836.369,7314.14
837.464,7298.66
838.559,7234.32
839.654,7081.02
840.748,7378.62
841.843,7392.68
842.937,7169.76
844.031,6999.7
845.125,6814.02
846.219,6809.4
847.313,6659.98
848.407,6768.22
849.5,6605.8
850.593,6651.26
851.687,6701.24
852.78,6640.32
853.873,6604.24
854.966,6544.22
856.059,6546.5
857.151,6443.62
858.244,6579.0
859.336,6698.9
860.428,6606.46
861.52,6499.34
862.612,6353.34
863.704,6374.88
864.796,6340.42
865.888,6293.42
866.979,6192.64
868.07,6200.4
869.162,6144.82
870.253,6216.72
871.344,6290.0
872.434,6521.82
873.525,6523.02
874.615,6248.8
875.706,6116.3
876.796,5987.38
877.886,5904.38
878.976,5988.34
880.066,5841.98
881.156,5913.8
882.245,5816.78
883.335,5879.84
884.424,5777.32
885.513,5790.92
886.602,5749.08
887.691,5663.42
888.78,5621.16
889.868,5550.74
890.957,5588.18
892.045,5581.42
893.133,5528.98
894.221,5474.56
895.309,5384.6
896.397,5426.82
897.484,5697.26
898.571,6174.34
899.659,5681.66
900.746,5312.26
901.833,5222.28
902.92,5253.6
904.006,5179.74
905.093,5193.78
906.179,5284.6
907.266,5615.16
908.352,5603.82
909.438,5321.76
910.523,5079.32
911.609,4929.02
912.695,4964.82
913.78,4915.92
914.865,4854.24
915.95,4832.78
917.035,4825.86
918.12,4791.6
919.204,4811.12
920.289,4741.0
921.373,4711.46
922.457,4667.76
923.541,4641.4
924.625,4639.72
925.709,4636.34
926.792,4566.52
927.876,4571.88
928.959,4529.74
930.042,4524.56
931.125,4480.46
932.208,4461.32
933.29,4456.6
934.373,4414.02
935.455,4384.94
936.537,4383.06
937.619,4374.58
938.701,4327.54
939.782,4335.14
940.864,4300.82
941.945,4291.34
943.026,4287.76
944.107,4251.24
945.188,4241.3
946.269,4234.14
947.349,4202.98
948.43,4204.14
949.51,4180.7
950.59,4164.98
951.67,4159.9
952.75,4133.92
953.829,4142.24
954.909,4119.08
955.988,4094.96
957.067,4106.26
958.146,4080.12
959.224,4074.58
960.303,4054.8
961.381,4055.4
962.459,4041.84
963.537,4037.06
964.615,4026.12
965.693,4019.92
966.771,4001.78
967.848,3990.2
968.925,3991.42
970.002,3980.98
971.079,3967.64
972.156,3965.84
973.232,3951.78
974.309,3946.88
975.385,3943.82
976.461,3932.26
977.537,3924.14
978.612,3917.16
979.688,3915.16
980.763,3905.16
981.838,3902.26
982.913,3897.56
983.988,3896.54
985.063,3883.66
986.137,3877.74
987.211,3879.36
988.285,3875.46
989.359,3870.72
990.433,3859.16
991.506,3861.02
992.58,3847.8
993.653,3846.44
994.726,3842.52
995.799,3840.98
996.872,3836.12
997.944,3832.22
999.016,3825.5
1000.09,3825.6
1001.16,3817.2
1002.23,3815.94
1003.3,3814.98
1004.38,3811.04
1005.45,3810.02
1006.52,3803.96
1007.59,3799.62
1008.66,3798.28
1009.73,3793.56
1010.8,3790.92
1011.87,3791.58
1012.94,3789.08
1014.01,3786.74
1015.08,3784.48
1016.15,3784.0
1017.22,3782.52
1018.29,3780.88
1019.36,3776.62
1020.42,3777.66
1021.49,3782.58
1022.56,3786.94
1023.63,3783.96
1024.7,3778.48
1025.76,3772.62
1026.83,3770.16
1027.9,3763.26
1028.97,3760.6
1030.03,3760.02
1031.1,3757.46
1032.17,3757.32
1033.23,3759.04
1034.3,3761.58
1035.36,3762.68
1036.43,3760.38
1037.5,3755.42
1038.56,3750.2
1039.63,3749.2
1040.69,3748.22
1041.76,3745.96
1042.82,3745.64
1043.89,3744.88
1044.95,3744.02
1046.01,3741.36
1047.08,3742.8
1048.14,3742.08
1049.2,3741.12
1050.27,3741.2
1051.33,3741.38
1052.39,3740.04
1053.46,3741.56
1054.52,3739.72
1055.58,3739.24
1056.64,3739.48
1057.7,3738.68
1058.77,3737.96
1059.83,3738.74
1060.89,3738.22
1061.95,3739.22
1063.01,3737.62
1064.07,3738.32
1065.13,3737.54
1066.19,3736.74
1067.25,3736.92
1068.05,3736.04

File: VLFR_07-PET_nobio_Raman_cb905d4a.csv
nm,Intensity
791.377,11560.4
792.477,10454.6
793.576,9936.94
794.676,9592.36
795.775,9324.04
796.874,9336.46
797.973,9268.26
799.072,9201.54
800.171,9176.66
801.27,9091.06
802.368,9163.44
803.467,8841.02
804.565,8864.96
805.664,8622.12
806.762,8622.64
807.86,8542.64
808.958,8419.52
810.056,8394.52
811.153,8313.7
812.251,8264.86
813.349,8099.78
814.446,8045.38
815.543,8020.72
816.64,7873.24
817.737,7835.12
818.834,7763.8
819.931,7774.08
821.028,7744.0
822.125,7599.1
823.221,7553.44
824.317,7459.28
825.414,7639.78
826.51,7519.76
827.606,7320.12
828.702,7353.06
829.797,7259.24
830.893,7332.38
831.988,7161.58
833.084,7078.12
834.179,7059.44
835.274,6983.58
836.369,7019.18
837.464,7046.6
838.559,7060.96
839.654,6993.9
840.748,7085.26
841.843,7261.22
842.937,6893.54
844.031,6812.1
845.125,6627.54
846.219,6515.74
847.313,6549.34
848.407,6452.16
849.5,6470.06
850.593,6434.84
851.687,6450.72
852.78,6370.08
853.873,6328.44
854.966,6278.74
856.059,6268.0
857.151,6199.66
858.244,6293.96
859.336,6345.14
860.428,6384.84
861.52,6237.58
862.612,6066.6
863.704,6028.88
864.796,6154.62
865.888,6025.78
866.979,5968.3
868.07,5896.36
869.162,5971.12
870.253,5940.36
871.344,6103.22
872.434,6257.76
873.525,6259.66
874.615,6018.32
875.706,5831.34
876.796,5772.66
877.886,5745.24
878.976,5717.72
880.066,5656.32
881.156,5643.72
882.245,5652.84
883.335,5585.26
884.424,5589.94
885.513,5605.38
886.602,5508.48
887.691,5392.28
888.78,5446.88
889.868,5405.78
890.957,5338.14
892.045,5380.32
893.133,5309.22
894.221,5226.48
895.309,5235.98
896.397,5231.9
897.484,5463.44
898.571,5899.7
899.659,5542.28
900.746,5095.0
901.833,5033.14
902.92,5033.52
904.006,5029.94
905.093,4952.54
906.179,5097.26
907.266,5399.8
908.352,5472.56
909.438,5091.14
910.523,4922.76
911.609,4819.6
912.695,4766.66
913.78,4743.8
914.865,4709.82
915.95,4689.8
917.035,4665.1
918.12,4651.76
919.204,4639.24
920.289,4588.92
921.373,4586.82
922.457,4561.08
923.541,4524.08
924.625,4520.6
925.709,4468.44
926.792,4482.1
927.876,4440.88
928.959,4420.52
930.042,4367.56
931.125,4350.48
932.208,4344.36
933.29,4334.76
934.373,4324.22
935.455,4303.3
936.537,4271.56
937.619,4238.9
938.701,4235.94
939.782,4226.66
940.864,4205.42
941.945,4206.76
943.026,4178.18
944.107,4165.68
945.188,4145.42
946.269,4143.48
947.349,4134.42
948.43,4118.2
949.51,4096.78
950.59,4095.12
951.67,4079.46
952.75,4069.2
953.829,4070.7
954.909,4055.54
955.988,4037.38
957.067,4035.34
958.146,4017.64
959.224,4013.68
960.303,3998.44
961.381,3991.4
962.459,3993.38
963.537,3979.1
964.615,3965.6
965.693,3967.06
966.771,3948.52
967.848,3952.28
968.925,3944.28
970.002,3935.0
971.079,3930.26
972.156,3922.38
973.232,3921.74
974.309,3912.32
975.385,3906.7
976.461,3899.34
977.537,3893.1
978.612,3887.46
979.688,3882.88
980.763,3877.44
981.838,3873.0
982.913,3869.44
983.988,3864.2
985.063,3857.72
986.137,3853.46
987.211,3852.24
988.285,3855.5
989.359,3841.02
990.433,3840.14
991.506,3834.5
992.58,3829.6
993.653,3826.82
994.726,3821.44
995.799,3821.2
996.872,3815.38
997.944,3810.44
999.016,3806.56
1000.09,3806.86
1001.16,3803.04
1002.23,3797.2
1003.3,3798.34
1004.38,3793.38
1005.45,3787.84
1006.52,3789.32
1007.59,3784.88
1008.66,3781.84
1009.73,3778.34
1010.8,3775.96
1011.87,3777.26
1012.94,3775.42
1014.01,3773.06
1015.08,3772.94
1016.15,3769.18
1017.22,3768.88
1018.29,3767.76
1019.36,3766.66
1020.42,3766.0
1021.49,3769.92
1022.56,3772.54
1023.63,3773.62
1024.7,3768.3
1025.76,3762.16
1026.83,3756.74
1027.9,3754.9
1028.97,3751.76
1030.03,3748.76
1031.1,3747.98
1032.17,3746.92
1033.23,3748.64
1034.3,3751.04
1035.36,3752.1
1036.43,3750.36
1037.5,3746.74
1038.56,3742.56
1039.63,3740.58
1040.69,3739.44
1041.76,3737.8
1042.82,3737.68
1043.89,3736.08
1044.95,3735.36
1046.01,3733.8
1047.08,3734.14
1048.14,3733.0
1049.2,3733.36
1050.27,3732.06
1051.33,3732.96
1052.39,3733.46
1053.46,3732.44
1054.52,3731.84
1055.58,3732.36
1056.64,3731.8
1057.7,3731.92
1058.77,3730.84
1059.83,3730.3
1060.89,3729.94
1061.95,3730.12
1063.01,3729.74
1064.07,3730.12
1065.13,3729.92
1066.19,3730.32
1067.25,3729.04
1068.05,3728.24

File: VLFR_07-PET_nobio_Raman_ce72a2e1.csv
nm,Intensity
791.588,8153.8
792.685,7736.4
793.781,7709.6
794.878,7598.0
795.975,7560.9
797.071,7549.1
798.168,7506.9
799.264,7552.8
800.36,7510.4
801.456,7451.8
802.552,7479.4
803.648,7315.3
804.744,7342.4
805.84,7286.2
806.936,7240.4
808.031,7199.1
809.127,7193.7
810.222,7132.0
811.317,7078.7
812.412,7060.8
813.507,7022.6
814.602,6996.3
815.697,6907.1
816.792,6848.5
817.887,6820.3
818.981,6815.3
820.076,6709.6
821.17,6663.6
822.265,6687.2
823.359,6589.7
824.453,6564.7
825.547,6519.8
826.641,6501.4
827.735,6454.9
828.828,6376.4
829.922,6328.5
831.016,6332.5
832.109,6262.3
833.202,6199.2
834.295,6151.4
835.388,6176.8
836.481,6141.6
837.574,6126.0
838.667,6105.6
839.76,6070.3
840.852,6125.5
841.945,6129.6
843.037,6043.2
844.129,5956.1
845.221,5894.1
846.314,5916.7
847.405,5867.0
848.497,5836.7
849.589,5811.3
850.681,5789.7
851.772,5789.6
852.863,5796.5
853.955,5736.6
855.046,5704.1
856.137,5745.3
857.228,5710.5
858.318,5650.7
859.409,5730.8
860.5,5689.0
861.59,5620.2
862.681,5579.2
863.771,5587.3
864.861,5591.7
865.951,5530.3
867.041,5489.3
868.131,5428.5
869.22,5473.9
870.31,5492.4
871.399,5479.7
872.488,5559.9
873.578,5527.7
874.667,5479.6
875.756,5385.1
876.845,5371.1
877.933,5302.6
879.022,5315.3
880.11,5298.0
881.199,5261.1
882.287,5248.1
883.375,5245.5
884.463,5248.6
885.551,5217.1
886.639,5154.8
887.726,5189.8
888.814,5139.0
889.901,5107.1
890.988,5073.7
892.075,5077.6
893.162,5035.2
894.249,4999.0
895.336,4971.4
896.423,4989.2
897.509,5072.2
898.595,5226.7
899.682,5061.8
900.768,4913.4
901.854,4822.0
902.94,4837.2
904.025,4836.4
905.111,4802.9
906.196,4848.8
907.282,4980.8
908.367,4931.4
909.452,4851.6
910.537,4720.0
911.622,4673.5
912.706,4663.8
913.791,4626.8
914.875,4604.8
915.959,4603.9
917.044,4560.6
918.128,4548.2
919.211,4528.3
920.295,4526.9
921.379,4484.2
922.462,4486.0
923.546,4464.4
924.629,4432.5
925.712,4408.2
926.795,4411.0
927.877,4374.2
928.96,4358.5
930.043,4337.2
931.125,4320.1
932.207,4307.6
933.289,4301.8
934.371,4271.2
935.453,4249.5
936.535,4259.2
937.616,4216.3
938.697,4215.7
939.779,4219.4
940.86,4191.9
941.941,4181.3
943.022,4163.2
944.102,4144.1
945.183,4142.3
946.263,4127.8
947.343,4123.2
948.423,4104.8
949.503,4093.9
950.583,4089.7
951.663,4079.0
952.742,4055.8
953.822,4057.6
954.901,4042.9
955.98,4045.4
957.059,4022.4
958.137,4019.2
959.216,4015.1
960.294,3999.7
961.373,3991.7
962.451,3985.3
963.529,3980.1
964.607,3978.0
965.684,3962.1
966.762,3969.1
967.839,3953.4
968.917,3949.8
969.994,3945.3
971.071,3939.1
972.147,3928.8
973.224,3924.8
974.3,3913.7
975.377,3913.3
976.453,3907.7
977.529,3902.7
978.605,3894.3
979.68,3893.4
980.756,3886.0
981.831,3888.6
982.907,3885.0
983.982,3880.1
985.057,3876.7
986.131,3874.4
987.206,3864.4
988.28,3863.1
989.355,3859.7
990.429,3856.2
991.503,3850.7
992.576,3850.3
993.65,3840.7
994.723,3840.5
995.797,3839.0
996.87,3836.5
997.943,3834.5
999.016,3831.0
1000.09,3832.9
1001.16,3823.3
1002.23,3825.7
1003.31,3817.3
1004.38,3815.1
1005.45,3815.8
1006.52,3813.9
1007.59,3814.9
1008.66,3806.9
1009.73,3808.7
1010.81,3807.4
1011.88,3801.6
1012.95,3804.0
1014.02,3799.6
1015.09,3793.9
1016.16,3799.3
1017.23,3793.6
1018.3,3796.5
1019.37,3790.6
1020.44,3793.3
1021.51,3791.0
1022.58,3798.1
1023.64,3793.8
1024.71,3786.7
1025.78,3786.6
1026.85,3783.7
1027.92,3783.7
1028.99,3779.5
1030.05,3775.9
1031.12,3778.7
1032.19,3774.6
1033.26,3776.7
1034.32,3778.4
1035.39,3778.4
1036.46,3777.4
1037.52,3773.2
1038.59,3773.1
1039.66,3772.1
1040.72,3770.3
1041.79,3766.4
1042.86,3767.3
1043.92,3766.8
1044.99,3766.6
1046.05,3765.8
1047.12,3765.0
1048.18,3766.4
1049.25,3766.9
1050.31,3764.9
1051.37,3764.8
1052.44,3765.0
1053.5,3762.9
1054.57,3761.8
1055.63,3763.6
1056.69,3763.0
1057.76,3760.7
1058.82,3762.2
1059.88,3761.3
1060.95,3763.0
1062.01,3761.6
1063.07,3761.8
1064.13,3762.0
1065.19,3760.6
1066.26,3759.4
1067.32,3760.8
1068.11,3761.8

File: VLFR_07-PET_nobio_Raman_cf448416.csv
nm,Intensity
791.377,12557.1
792.477,11253.8
793.576,10635.0
794.676,10201.3
795.775,10132.9
796.874,10056.2
797.973,10024.8
799.072,9944.62
800.171,9874.78
801.27,9797.64
802.368,9865.36
803.467,9618.3
804.565,9540.16
805.664,9440.96
806.762,9353.62
807.86,9169.92
808.958,9292.18
810.056,9104.22
811.153,9059.52
812.251,9001.46
813.349,8960.0
814.446,8738.36
815.543,8766.48
816.64,8650.5
817.737,8580.38
818.834,8558.04
819.931,8460.58
821.028,8456.98
822.125,8318.1
823.221,8204.92
824.317,8163.96
825.414,8227.58
826.51,8276.02
827.606,7997.16
828.702,7953.64
829.797,7794.3
830.893,7893.12
831.988,7730.86
833.084,7676.46
834.179,7561.36
835.274,7494.08
836.369,7475.32
837.464,7693.86
838.559,7548.16
839.654,7465.66
840.748,7520.74
841.843,7734.66
842.937,7352.24
844.031,7348.26
845.125,7167.18
846.219,6938.74
847.313,6971.44
848.407,6944.52
849.5,6914.98
850.593,6808.18
851.687,6899.4
852.78,6840.78
853.873,6845.22
854.966,6759.22
856.059,6643.02
857.151,6691.7
858.244,6734.86
859.336,6845.58
860.428,6867.22
861.52,6654.8
862.612,6455.8
863.704,6482.54
864.796,6554.84
865.888,6388.7
866.979,6371.6
868.07,6288.84
869.162,6385.56
870.253,6306.86
871.344,6483.44
872.434,6635.12
873.525,6633.68
874.615,6429.54
875.706,6230.72
876.796,6159.98
877.886,6117.18
878.976,5979.98
880.066,5992.86
881.156,5985.56
882.245,5976.76
883.335,5924.52
884.424,5960.56
885.513,5874.76
886.602,5823.94
887.691,5765.16
888.78,5740.98
889.868,5670.16
890.957,5630.08
892.045,5645.2
893.133,5574.92
894.221,5571.22
895.309,5498.72
896.397,5445.76
897.484,5597.46
898.571,6214.8
899.659,5936.08
900.746,5405.7
901.833,5307.52
902.92,5303.86
904.006,5245.62
905.093,5239.72
906.179,5296.62
907.266,5590.12
908.352,5699.66
909.438,5421.92
910.523,5167.56
911.609,5043.1
912.695,4983.3
913.78,4943.1
914.865,4955.22
915.95,4894.08
917.035,4843.2
918.12,4838.84
919.204,4809.58
920.289,4779.14
921.373,4759.22
922.457,4750.24
923.541,4689.12
924.625,4653.6
925.709,4626.24
926.792,4627.64
927.876,4588.26
928.959,4561.2
930.042,4529.26
931.125,4506.28
932.208,4475.74
933.29,4472.68
934.373,4440.2
935.455,4405.2
936.537,4389.98
937.619,4355.62
938.701,4371.6
939.782,4347.3
940.864,4323.62
941.945,4302.76
943.026,4281.1
944.107,4278.76
945.188,4250.74
946.269,4220.08
947.349,4212.44
948.43,4200.58
949.51,4195.34
950.59,4167.2
951.67,4159.3
952.75,4147.48
953.829,4128.04
954.909,4122.22
955.988,4103.8
957.067,4095.22
958.146,4088.04
959.224,4075.46
960.303,4057.82
961.381,4051.34
962.459,4051.74
963.537,4029.96
964.615,4016.84
965.693,4007.06
966.771,3992.18
967.848,4002.4
968.925,3985.84
970.002,3985.14
971.079,3970.24
972.156,3959.14
973.232,3956.86
974.309,3943.5
975.385,3934.32
976.461,3931.1
977.537,3919.12
978.612,3920.1
979.688,3906.12
980.763,3904.64
981.838,3891.9
982.913,3888.78
983.988,3888.94
985.063,3878.26
986.137,3874.58
987.211,3870.82
988.285,3865.54
989.359,3859.38
990.433,3852.2
991.506,3851.14
992.58,3842.24
993.653,3841.02
994.726,3830.66
995.799,3827.78
996.872,3826.36
997.944,3820.7
999.016,3818.88
1000.09,3819.34
1001.16,3811.2
1002.23,3805.78
1003.3,3802.88
1004.38,3800.16
1005.45,3794.44
1006.52,3793.68
1007.59,3789.16
1008.66,3787.76
1009.73,3782.2
1010.8,3777.92
1011.87,3777.18
1012.94,3776.66
1014.01,3775.76
1015.08,3772.72
1016.15,3770.24
1017.22,3768.04
1018.29,3766.82
1019.36,3764.5
1020.42,3763.04
1021.49,3768.0
1022.56,3769.3
1023.63,3769.72
1024.7,3764.44
1025.76,3759.12
1026.83,3754.02
1027.9,3752.38
1028.97,3749.0
1030.03,3746.18
1031.1,3744.08
1032.17,3742.44
1033.23,3742.84
1034.3,3747.12
1035.36,3747.68
1036.43,3745.94
1037.5,3741.64
1038.56,3736.34
1039.63,3734.2
1040.69,3733.1
1041.76,3730.78
1042.82,3731.1
1043.89,3730.34
1044.95,3728.24
1046.01,3727.1
1047.08,3727.46
1048.14,3726.36
1049.2,3726.4
1050.27,3726.2
1051.33,3725.84
1052.39,3725.44
1053.46,3724.46
1054.52,3724.16
1055.58,3724.44
1056.64,3723.36
1057.7,3723.34
1058.77,3723.5
1059.83,3723.16
1060.89,3722.96
1061.95,3723.06
1063.01,3722.4
1064.07,3722.3
1065.13,3722.2
1066.19,3720.88
1067.25,3721.02
1068.05,3720.9

File: VLFR_07-PET_nobio_Raman_d33fc9a1.csv
nm,Intensity
791.377,11844.0
792.477,10693.2
793.576,9944.06
794.676,9759.72
795.775,9511.24
796.874,9385.0
797.973,9533.44
799.072,9416.6
800.171,9407.72
801.27,9226.32
802.368,9243.18
803.467,9062.5
804.565,8923.12
805.664,8804.04
806.762,8865.82
807.86,8679.48
808.958,8631.84
810.056,8500.24
811.153,8492.22
812.251,8412.6
813.349,8314.76
814.446,8188.74
815.543,8150.9
816.64,8026.5
817.737,7986.7
818.834,7807.24
819.931,7882.64
821.028,7737.6
822.125,7679.04
823.221,7651.7
824.317,7565.66
825.414,7753.72
826.51,7582.28
827.606,7456.98
828.702,7428.78
829.797,7278.52
830.893,7432.28
831.988,7239.18
833.084,7182.84
834.179,7064.02
835.274,7079.94
836.369,7090.74
837.464,7136.38
838.559,7162.34
839.654,7116.84
840.748,7212.3
841.843,7306.88
842.937,7034.58
844.031,6994.8
845.125,6693.38
846.219,6621.76
847.313,6605.6
848.407,6614.8
849.5,6513.92
850.593,6449.36
851.687,6522.56
852.78,6469.32
853.873,6459.58
854.966,6365.88
856.059,6284.04
857.151,6226.34
858.244,6301.12
859.336,6488.7
860.428,6437.54
861.52,6292.34
862.612,6087.18
863.704,6136.06
864.796,6116.02
865.888,6096.68
866.979,5944.8
868.07,5947.06
869.162,5915.78
870.253,6012.86
871.344,6138.48
872.434,6298.4
873.525,6318.94
874.615,6037.04
875.706,5900.6
876.796,5784.52
877.886,5752.72
878.976,5752.74
880.066,5673.5
881.156,5664.84
882.245,5625.7
883.335,5643.72
884.424,5580.9
885.513,5658.9
886.602,5536.7
887.691,5520.6
888.78,5468.04
889.868,5435.8
890.957,5416.5
892.045,5411.82
893.133,5376.78
894.221,5346.58
895.309,5287.9
896.397,5292.14
897.484,5531.98
898.571,6043.62
899.659,5560.02
900.746,5189.34
901.833,5143.72
902.92,5080.76
904.006,5094.04
905.093,5091.66
906.179,5185.48
907.266,5559.12
908.352,5526.62
909.438,5180.62
910.523,4945.26
911.609,4886.82
912.695,4844.64
913.78,4824.96
914.865,4783.06
915.95,4733.62
917.035,4711.24
918.12,4703.8
919.204,4676.36
920.289,4645.9
921.373,4622.1
922.457,4606.52
923.541,4568.46
924.625,4551.16
925.709,4520.88
926.792,4492.78
927.876,4465.34
928.959,4458.42
930.042,4429.22
931.125,4405.08
932.208,4380.58
933.29,4363.82
934.373,4350.5
935.455,4311.68
936.537,4314.86
937.619,4290.36
938.701,4271.7
939.782,4258.14
940.864,4249.32
941.945,4235.82
943.026,4196.02
944.107,4192.78
945.188,4184.14
946.269,4180.14
947.349,4147.44
948.43,4148.56
949.51,4134.68
950.59,4122.8
951.67,4096.58
952.75,4097.26
953.829,4076.82
954.909,4072.92
955.988,4061.7
957.067,4048.28
958.146,4037.7
959.224,4028.8
960.303,4015.68
961.381,4013.24
962.459,3999.76
963.537,3993.88
964.615,3986.9
965.693,3980.3
966.771,3970.68
967.848,3963.78
968.925,3960.5
970.002,3942.08
971.079,3938.66
972.156,3942.52
973.232,3923.24
974.309,3925.98
975.385,3918.34
976.461,3916.28
977.537,3901.6
978.612,3900.8
979.688,3892.1
980.763,3888.08
981.838,3888.68
982.913,3877.36
983.988,3875.56
985.063,3870.04
986.137,3867.44
987.211,3861.62
988.285,3861.08
989.359,3851.44
990.433,3843.9
991.506,3844.46
992.58,3836.64
993.653,3834.1
994.726,3830.12
995.799,3830.04
996.872,3825.1
997.944,3821.32
999.016,3820.34
1000.09,3816.18
1001.16,3811.9
1002.23,3808.66
1003.3,3805.8
1004.38,3804.82
1005.45,3799.92
1006.52,3799.16
1007.59,3796.98
1008.66,3791.96
1009.73,3790.02
1010.8,3787.86
1011.87,3783.4
1012.94,3785.2
1014.01,3784.66
1015.08,3783.24
1016.15,3782.9
1017.22,3779.92
1018.29,3776.52
1019.36,3775.24
1020.42,3777.78
1021.49,3782.6
1022.56,3784.04
1023.63,3783.22
1024.7,3777.52
1025.76,3773.06
1026.83,3767.46
1027.9,3765.32
1028.97,3761.38
1030.03,3759.56
1031.1,3756.18
1032.17,3757.08
1033.23,3758.18
1034.3,3762.56
1035.36,3763.06
1036.43,3762.42
1037.5,3756.16
1038.56,3750.84
1039.63,3749.28
1040.69,3747.76
1041.76,3747.86
1042.82,3747.14
1043.89,3745.28
1044.95,3744.4
1046.01,3743.9
1047.08,3744.38
1048.14,3742.14
1049.2,3743.58
1050.27,3742.32
1051.33,3741.36
1052.39,3743.3
1053.46,3741.82
1054.52,3741.56
1055.58,3741.14
1056.64,3740.06
1057.7,3740.68
1058.77,3739.26
1059.83,3740.36
1060.89,3740.4
1061.95,3739.46
1063.01,3740.12
1064.07,3738.24
1065.13,3738.8
1066.19,3739.38
1067.25,3738.96
1068.05,3737.74