Folder: MPX_specDB/spectra (part 120)

File: VLFR_07-PET_nobio_Raman_a67ef11d.csv
nm,Intensity
791.75,14968.3
792.846,13957.0
793.942,13290.5
795.037,12989.8
796.133,12858.3
797.228,12799.5
798.324,12918.0
799.419,12913.8
800.514,12862.0
801.61,12830.5
802.705,12907.3
803.8,12562.0
804.894,12334.8
805.989,12479.4
807.084,12144.5
808.178,12208.5
809.273,11984.3
810.367,12000.2
811.461,11740.6
812.556,11897.3
813.65,11319.0
814.744,11622.5
815.837,11324.9
816.931,11233.2
818.025,11010.2
819.118,11058.2
820.212,10921.3
821.305,10599.1
822.398,10553.0
823.491,10517.5
824.585,10294.3
825.677,10600.9
826.77,10297.0
827.863,10105.6
828.956,10097.5
830.048,10004.7
831.14,9974.65
832.233,9774.25
833.325,9914.85
834.417,9558.5
835.509,9507.05
836.601,9619.55
837.692,9554.1
838.784,9469.45
839.876,9479.5
840.967,9971.75
842.058,9399.2
843.149,9358.7
844.24,9110.95
845.331,8790.2
846.422,8715.25
847.513,8640.7
848.604,8528.25
849.694,8516.6
850.784,8457.8
851.875,8415.5
852.965,8463.15
854.055,8360.0
855.145,8149.4
856.235,8078.15
857.324,8172.7
858.414,8223.0
859.503,8336.25
860.593,8012.85
861.682,7879.4
862.771,7791.95
863.86,7816.15
864.949,7902.25
866.038,7601.9
867.126,7573.85
868.215,7577.65
869.303,7533.4
870.391,7543.45
871.479,7733.75
872.567,7940.2
873.655,7607.3
874.743,7541.4
875.831,7384.4
876.918,7226.9
878.006,7195.7
879.093,7120.25
880.18,7125.65
881.267,7150.6
882.354,6983.75
883.441,6971.1
884.527,7022.95
885.614,6943.2
886.7,6771.55
887.786,6758.85
888.872,6687.7
889.958,6778.65
891.044,6657.8
892.13,6652.9
893.216,6519.35
894.301,6549.1
895.386,6381.1
896.472,6589.7
897.557,7212.45
898.642,7204.3
899.726,6455.15
900.811,6217.4
901.896,6146.9
902.98,6128.85
904.064,6115.6
905.148,6073.65
906.232,6455.45
907.316,6657.1
908.4,6495.1
909.484,6024.2
910.567,5874.35
911.65,5766.0
912.734,5693.35
913.817,5639.5
914.9,5628.25
915.982,5561.85
917.065,5482.75
918.147,5489.45
919.23,5407.95
920.312,5397.8
921.394,5305.4
922.476,5279.5
923.558,5273.65
924.639,5178.75
925.721,5174.65
926.802,5097.3
927.884,5112.55
928.965,5012.0
930.046,4958.45
931.126,4940.65
932.207,4874.5
933.288,4854.9
934.368,4820.35
935.448,4764.25
936.528,4767.2
937.608,4715.65
938.688,4698.6
939.767,4648.05
940.847,4644.65
941.926,4597.1
943.005,4573.15
944.084,4542.25
945.163,4518.35
946.242,4484.95
947.321,4481.35
948.399,4451.5
949.477,4420.65
950.556,4401.55
951.634,4350.0
952.711,4343.95
953.789,4329.6
954.867,4302.35
955.944,4292.6
957.021,4266.65
958.098,4263.3
959.175,4246.55
960.252,4216.7
961.328,4195.7
962.405,4206.4
963.481,4173.8
964.557,4140.5
965.633,4150.1
966.709,4128.15
967.785,4114.05
968.86,4091.2
969.936,4084.55
971.011,4071.1
972.086,4052.85
973.161,4052.7
974.235,4045.7
975.31,4031.4
976.384,4005.85
977.459,4006.45
978.533,3992.5
979.607,3996.85
980.68,3966.15
981.754,3965.35
982.827,3963.8
983.901,3949.6
984.974,3949.5
986.047,3933.2
987.119,3927.0
988.192,3924.95
989.264,3909.85
990.337,3906.5
991.409,3893.1
992.481,3892.05
993.553,3881.25
994.624,3875.9
995.696,3867.25
996.767,3868.0
997.838,3859.05
998.909,3845.55
999.98,3847.75
1001.05,3843.0
1002.12,3839.1
1003.19,3837.2
1004.26,3822.4
1005.33,3818.85
1006.4,3813.85
1007.47,3811.45
1008.54,3799.9
1009.61,3803.7
1010.68,3800.95
1011.75,3797.6
1012.82,3791.55
1013.88,3790.15
1014.95,3790.2
1016.02,3785.2
1017.09,3782.55
1018.16,3775.7
1019.22,3775.95
1020.29,3775.15
1021.36,3786.4
1022.43,3781.9
1023.49,3775.3
1024.56,3770.95
1025.63,3760.75
1026.69,3759.05
1027.76,3751.35
1028.83,3747.0
1029.89,3745.7
1030.96,3742.4
1032.02,3742.6
1033.09,3745.25
1034.15,3749.55
1035.22,3747.45
1036.28,3742.4
1037.35,3736.05
1038.41,3731.75
1039.48,3729.75
1040.54,3728.2
1041.6,3726.4
1042.67,3724.35
1043.73,3723.45
1044.79,3723.4
1045.86,3719.9
1046.92,3719.0
1047.98,3718.05
1049.05,3719.8
1050.11,3717.75
1051.17,3716.9
1052.23,3717.45
1053.29,3716.75
1054.36,3716.25
1055.42,3715.65
1056.48,3713.9
1057.54,3713.25
1058.6,3711.85
1059.66,3713.65
1060.72,3712.55
1061.78,3712.3
1062.84,3713.85
1063.9,3713.0
1064.96,3711.3
1066.02,3710.65
1067.08,3712.0
1067.88,3710.7

File: VLFR_07-PET_nobio_Raman_a388145e.csv
nm,Intensity
791.588,14679.6
792.685,13317.0
793.781,12622.2
794.878,12175.2
795.975,12049.7
797.071,11873.5
798.168,11829.1
799.264,11768.2
800.36,11810.0
801.456,11764.9
802.552,11648.3
803.648,11464.3
804.744,11390.4
805.84,11287.4
806.936,11099.3
808.031,11099.7
809.127,11008.9
810.222,10910.5
811.317,10821.6
812.412,10690.3
813.507,10531.9
814.602,10451.4
815.697,10329.0
816.792,10199.6
817.887,10205.3
818.981,10076.7
820.076,10113.0
821.17,9790.7
822.265,9816.1
823.359,9715.0
824.453,9591.9
825.547,9750.9
826.641,9538.8
827.735,9282.8
828.828,9266.2
829.922,9180.1
831.016,9255.2
832.109,8926.1
833.202,8957.6
834.295,8828.6
835.388,8769.8
836.481,8781.0
837.574,8887.7
838.667,8738.8
839.76,8616.7
840.852,8824.0
841.945,8884.9
843.037,8496.6
844.129,8344.4
845.221,8247.4
846.314,8048.0
847.405,8071.2
848.497,7947.9
849.589,7881.9
850.681,7837.0
851.772,7880.6
852.863,7849.8
853.955,7768.2
855.046,7664.8
856.137,7655.7
857.228,7562.1
858.318,7674.9
859.409,7769.0
860.5,7700.1
861.59,7450.7
862.681,7352.0
863.771,7330.7
864.861,7361.2
865.951,7290.0
867.041,7094.7
868.131,7105.3
869.22,7168.4
870.31,7171.4
871.399,7294.2
872.488,7490.5
873.578,7482.9
874.667,7138.2
875.756,6963.9
876.845,6931.4
877.933,6786.0
879.022,6756.9
880.11,6764.1
881.199,6649.9
882.287,6683.0
883.375,6634.2
884.463,6580.0
885.551,6645.7
886.639,6534.0
887.726,6372.7
888.814,6350.7
889.901,6340.8
890.988,6284.4
892.075,6306.1
893.162,6252.3
894.249,6186.8
895.336,6071.4
896.423,6150.7
897.509,6448.2
898.595,6909.4
899.682,6423.5
900.768,5951.9
901.854,5813.3
902.94,5798.9
904.025,5774.0
905.111,5769.1
906.196,5893.5
907.282,6263.9
908.367,6217.8
909.452,5886.3
910.537,5599.5
911.622,5466.3
912.706,5431.0
913.791,5370.2
914.875,5365.9
915.959,5346.9
917.044,5272.8
918.128,5249.1
919.211,5190.0
920.295,5146.9
921.379,5113.1
922.462,5085.9
923.546,5067.0
924.629,5011.2
925.712,4989.5
926.795,4928.6
927.877,4913.2
928.96,4840.1
930.043,4824.1
931.125,4802.8
932.207,4741.5
933.289,4728.9
934.371,4679.3
935.453,4664.4
936.535,4641.7
937.616,4598.8
938.697,4572.7
939.779,4565.7
940.86,4518.7
941.941,4513.9
943.022,4469.3
944.102,4454.9
945.183,4432.5
946.263,4407.9
947.343,4399.5
948.423,4365.2
949.503,4357.0
950.583,4324.8
951.663,4317.8
952.742,4290.5
953.822,4281.7
954.901,4249.1
955.98,4249.3
957.059,4224.0
958.137,4206.8
959.216,4202.3
960.294,4182.6
961.373,4159.7
962.451,4159.6
963.529,4133.2
964.607,4128.2
965.684,4102.2
966.762,4108.7
967.839,4104.0
968.917,4071.5
969.994,4075.6
971.071,4049.4
972.147,4082.5
973.224,4044.3
974.3,4025.0
975.377,4011.7
976.453,4012.6
977.529,3996.5
978.605,3993.9
979.68,3981.2
980.756,3970.3
981.831,3979.7
982.907,3965.0
983.982,3950.4
985.057,3955.0
986.131,3942.8
987.206,3935.9
988.28,3937.8
989.355,3928.3
990.429,3915.5
991.503,3909.7
992.576,3903.5
993.65,3898.1
994.723,3888.2
995.797,3895.3
996.87,3880.8
997.943,3878.7
999.016,3871.7
1000.09,3868.1
1001.16,3860.9
1002.23,3859.6
1003.31,3855.3
1004.38,3848.9
1005.45,3844.2
1006.52,3847.5
1007.59,3839.6
1008.66,3835.6
1009.73,3830.4
1010.81,3829.3
1011.88,3822.3
1012.95,3825.4
1014.02,3819.5
1015.09,3820.6
1016.16,3815.8
1017.23,3812.2
1018.3,3811.3
1019.37,3812.3
1020.44,3813.0
1021.51,3814.0
1022.58,3812.6
1023.64,3812.7
1024.71,3803.9
1025.78,3801.0
1026.85,3796.9
1027.92,3797.2
1028.99,3790.0
1030.05,3790.1
1031.12,3788.3
1032.19,3785.1
1033.26,3786.4
1034.32,3793.9
1035.39,3791.0
1036.46,3786.2
1037.52,3784.7
1038.59,3777.4
1039.66,3776.5
1040.72,3774.7
1041.79,3772.2
1042.86,3773.0
1043.92,3769.2
1044.99,3772.4
1046.05,3768.8
1047.12,3770.8
1048.18,3767.2
1049.25,3767.3
1050.31,3767.7
1051.37,3767.8
1052.44,3767.0
1053.5,3764.8
1054.57,3765.3
1055.63,3765.2
1056.69,3764.5
1057.76,3765.7
1058.82,3765.6
1059.88,3764.1
1060.95,3761.9
1062.01,3761.7
1063.07,3762.0
1064.13,3763.0
1065.19,3763.1
1066.26,3760.8
1067.32,3761.6
1068.11,3760.8

File: VLFR_07-PET_nobio_Raman_b6fd04f1.csv
nm,Intensity
791.588,12796.9
792.685,11683.1
793.781,11029.9
794.878,10631.3
795.975,10632.2
797.071,10714.7
798.168,10617.0
799.264,10683.9
800.36,10510.6
801.456,10613.7
802.552,10495.5
803.648,10420.5
804.744,10228.4
805.84,10187.5
806.936,10014.7
808.031,9956.5
809.127,9831.9
810.222,9850.0
811.317,9662.0
812.412,9633.8
813.507,9541.2
814.602,9400.7
815.697,9373.6
816.792,9299.5
817.887,9119.9
818.981,9143.6
820.076,9131.2
821.17,8999.8
822.265,8942.1
823.359,8861.8
824.453,8932.8
825.547,9054.2
826.641,8780.3
827.735,8636.2
828.828,8658.1
829.922,8531.3
831.016,8616.7
832.109,8363.8
833.202,8378.8
834.295,8304.1
835.388,8260.7
836.481,8166.0
837.574,8305.2
838.667,8172.0
839.76,8137.4
840.852,8371.1
841.945,8219.6
843.037,8056.6
844.129,7884.2
845.221,7702.9
846.314,7536.1
847.405,7541.9
848.497,7443.5
849.589,7415.0
850.681,7321.4
851.772,7376.0
852.863,7277.2
853.955,7264.0
855.046,7210.9
856.137,7088.0
857.228,7071.5
858.318,7191.1
859.409,7282.9
860.5,7245.6
861.59,7097.8
862.681,6908.9
863.771,6934.0
864.861,6950.2
865.951,6818.7
867.041,6768.8
868.131,6685.2
869.22,6788.7
870.31,6737.9
871.399,6955.9
872.488,7041.5
873.578,7093.9
874.667,6791.6
875.756,6631.6
876.845,6594.2
877.933,6519.4
879.022,6452.9
880.11,6467.7
881.199,6391.3
882.287,6425.6
883.375,6351.3
884.463,6342.4
885.551,6335.2
886.639,6228.0
887.726,6162.8
888.814,6137.0
889.901,6117.3
890.988,6067.1
892.075,6056.6
893.162,5978.3
894.249,5973.7
895.336,5859.3
896.423,5885.0
897.509,6149.6
898.595,6622.3
899.682,6171.5
900.768,5701.8
901.854,5648.3
902.94,5643.0
904.025,5565.1
905.111,5599.0
906.196,5696.0
907.282,5988.0
908.367,5994.4
909.452,5683.8
910.537,5438.9
911.622,5275.5
912.706,5248.6
913.791,5190.3
914.875,5156.5
915.959,5144.3
917.044,5072.5
918.128,5063.8
919.211,5007.5
920.295,4978.8
921.379,4932.8
922.462,4920.1
923.546,4863.1
924.629,4853.0
925.712,4801.1
926.795,4761.7
927.877,4753.1
928.96,4709.5
930.043,4694.0
931.125,4661.7
932.207,4614.9
933.289,4596.9
934.371,4577.9
935.453,4561.9
936.535,4514.3
937.616,4483.1
938.697,4475.9
939.779,4466.2
940.86,4421.1
941.941,4404.1
943.022,4381.4
944.102,4361.4
945.183,4356.1
946.263,4333.3
947.343,4321.6
948.423,4301.8
949.503,4283.5
950.583,4262.2
951.663,4253.9
952.742,4240.7
953.822,4217.0
954.901,4201.8
955.98,4189.9
957.059,4176.2
958.137,4175.0
959.216,4146.0
960.294,4131.4
961.373,4132.3
962.451,4114.5
963.529,4102.2
964.607,4087.7
965.684,4081.0
966.762,4078.0
967.839,4056.8
968.917,4047.6
969.994,4039.5
971.071,4031.6
972.147,4031.4
973.224,4013.8
974.3,4008.5
975.377,3995.8
976.453,3982.8
977.529,3981.9
978.605,3967.2
979.68,3966.4
980.756,3956.1
981.831,3948.5
982.907,3949.0
983.982,3944.7
985.057,3933.3
986.131,3931.0
987.206,3926.3
988.28,3920.3
989.355,3910.8
990.429,3907.7
991.503,3895.1
992.576,3894.8
993.65,3889.1
994.723,3878.2
995.797,3882.9
996.87,3875.3
997.943,3869.3
999.016,3866.1
1000.09,3860.6
1001.16,3858.4
1002.23,3848.8
1003.31,3853.4
1004.38,3846.8
1005.45,3846.3
1006.52,3840.9
1007.59,3833.5
1008.66,3834.7
1009.73,3828.9
1010.81,3824.3
1011.88,3824.5
1012.95,3821.4
1014.02,3821.5
1015.09,3818.5
1016.16,3817.8
1017.23,3816.7
1018.3,3812.7
1019.37,3809.2
1020.44,3810.4
1021.51,3810.8
1022.58,3817.8
1023.64,3811.3
1024.71,3808.2
1025.78,3808.2
1026.85,3798.9
1027.92,3796.9
1028.99,3790.5
1030.05,3789.2
1031.12,3787.5
1032.19,3787.1
1033.26,3788.6
1034.32,3790.9
1035.39,3791.4
1036.46,3787.2
1037.52,3784.2
1038.59,3779.0
1039.66,3779.6
1040.72,3778.2
1041.79,3773.4
1042.86,3775.9
1043.92,3776.5
1044.99,3771.5
1046.05,3770.9
1047.12,3771.6
1048.18,3771.5
1049.25,3770.0
1050.31,3768.6
1051.37,3770.1
1052.44,3771.7
1053.5,3767.9
1054.57,3767.4
1055.63,3770.6
1056.69,3767.2
1057.76,3768.1
1058.82,3769.7
1059.88,3768.0
1060.95,3768.5
1062.01,3766.8
1063.07,3766.5
1064.13,3765.9
1065.19,3765.5
1066.26,3765.1
1067.32,3765.9
1068.11,3763.6

File: VLFR_07-PET_nobio_Raman_b7ec95bb.csv
nm,Intensity
791.588,13032.1
792.685,11924.4
793.781,11139.5
794.878,10751.4
795.975,10676.4
797.071,10537.4
798.168,10593.3
799.264,10589.4
800.36,10489.3
801.456,10368.2
802.552,10457.3
803.648,10109.3
804.744,9982.2
805.84,9981.1
806.936,9920.3
808.031,9800.4
809.127,9706.5
810.222,9565.3
811.317,9531.8
812.412,9666.0
813.507,9504.3
814.602,9248.0
815.697,9276.7
816.792,9162.3
817.887,9064.4
818.981,9006.7
820.076,9001.8
821.17,8878.3
822.265,8733.0
823.359,8682.3
824.453,8547.0
825.547,8764.5
826.641,8654.9
827.735,8378.8
828.828,8286.9
829.922,8245.2
831.016,8342.1
832.109,8095.3
833.202,8089.4
834.295,7995.2
835.388,7959.1
836.481,8002.1
837.574,8032.1
838.667,8017.2
839.76,7917.0
840.852,8131.1
841.945,8224.8
843.037,7883.9
844.129,7808.9
845.221,7554.5
846.314,7445.6
847.405,7398.5
848.497,7360.9
849.589,7327.5
850.681,7217.9
851.772,7268.8
852.863,7326.5
853.955,7171.3
855.046,7079.6
856.137,7015.6
857.228,6999.4
858.318,7085.7
859.409,7200.7
860.5,7147.0
861.59,6918.7
862.681,6834.6
863.771,6808.5
864.861,6846.6
865.951,6680.1
867.041,6619.7
868.131,6526.7
869.22,6598.6
870.31,6643.7
871.399,6771.1
872.488,6913.8
873.578,6837.1
874.667,6674.2
875.756,6480.5
876.845,6359.9
877.933,6248.9
879.022,6272.5
880.11,6178.6
881.199,6160.7
882.287,6175.2
883.375,6160.4
884.463,6111.2
885.551,6114.7
886.639,6011.9
887.726,5956.7
888.814,5914.7
889.901,5867.0
890.988,5863.3
892.075,5845.5
893.162,5753.8
894.249,5725.4
895.336,5687.3
896.423,5664.3
897.509,5984.1
898.595,6406.5
899.682,6023.6
900.768,5591.0
901.854,5448.6
902.94,5400.7
904.025,5405.8
905.111,5352.5
906.196,5550.4
907.282,5873.6
908.367,5868.4
909.452,5549.7
910.537,5264.4
911.622,5144.3
912.706,5107.2
913.791,5134.6
914.875,5028.6
915.959,5014.2
917.044,4960.7
918.128,4941.1
919.211,4906.6
920.295,4897.7
921.379,4894.9
922.462,4821.8
923.546,4783.5
924.629,4740.6
925.712,4734.4
926.795,4715.9
927.877,4675.1
928.96,4653.0
930.043,4603.2
931.125,4599.5
932.207,4574.0
933.289,4526.2
934.371,4523.4
935.453,4496.2
936.535,4453.6
937.616,4449.3
938.697,4423.3
939.779,4415.4
940.86,4396.2
941.941,4364.5
943.022,4336.5
944.102,4326.8
945.183,4306.4
946.263,4310.9
947.343,4249.5
948.423,4254.4
949.503,4251.6
950.583,4217.2
951.663,4203.6
952.742,4198.8
953.822,4187.4
954.901,4161.9
955.98,4149.8
957.059,4144.1
958.137,4123.2
959.216,4103.5
960.294,4101.4
961.373,4085.6
962.451,4075.1
963.529,4065.1
964.607,4053.2
965.684,4040.9
966.762,4040.4
967.839,4023.2
968.917,4003.3
969.994,4011.4
971.071,4009.4
972.147,3996.3
973.224,3984.0
974.3,3979.8
975.377,3964.8
976.453,3959.4
977.529,3957.3
978.605,3948.4
979.68,3948.9
980.756,3935.6
981.831,3925.3
982.907,3924.7
983.982,3920.7
985.057,3909.6
986.131,3906.0
987.206,3901.0
988.28,3892.0
989.355,3894.9
990.429,3893.6
991.503,3879.4
992.576,3874.6
993.65,3869.5
994.723,3861.9
995.797,3861.5
996.87,3854.9
997.943,3848.7
999.016,3846.7
1000.09,3844.0
1001.16,3848.5
1002.23,3837.0
1003.31,3836.7
1004.38,3826.6
1005.45,3831.0
1006.52,3824.8
1007.59,3822.0
1008.66,3817.7
1009.73,3814.8
1010.81,3811.1
1011.88,3809.5
1012.95,3810.1
1014.02,3812.7
1015.09,3806.9
1016.16,3805.1
1017.23,3802.2
1018.3,3800.9
1019.37,3802.7
1020.44,3799.9
1021.51,3805.8
1022.58,3808.0
1023.64,3805.1
1024.71,3797.0
1025.78,3797.4
1026.85,3791.8
1027.92,3786.1
1028.99,3782.3
1030.05,3779.1
1031.12,3780.8
1032.19,3782.9
1033.26,3780.2
1034.32,3781.9
1035.39,3781.5
1036.46,3781.4
1037.52,3774.1
1038.59,3770.6
1039.66,3771.5
1040.72,3766.4
1041.79,3764.7
1042.86,3766.3
1043.92,3763.9
1044.99,3764.1
1046.05,3763.4
1047.12,3764.1
1048.18,3762.5
1049.25,3760.0
1050.31,3762.1
1051.37,3760.7
1052.44,3760.9
1053.5,3759.3
1054.57,3760.9
1055.63,3757.9
1056.69,3758.8
1057.76,3758.9
1058.82,3758.2
1059.88,3759.4
1060.95,3757.7
1062.01,3759.2
1063.07,3759.0
1064.13,3757.6
1065.19,3758.0
1066.26,3758.6
1067.32,3758.7
1068.11,3757.2

File: VLFR_07-PET_nobio_Raman_b211c6d3.csv
nm,Intensity
791.75,13232.8
792.846,12476.5
793.942,12016.8
795.037,11916.3
796.133,11619.5
797.228,11645.0
798.324,11686.8
799.419,11591.0
800.514,11470.2
801.61,11520.0
802.705,11235.5
803.8,10886.0
804.894,11048.3
805.989,10701.5
807.084,10648.0
808.178,10551.8
809.273,10479.7
810.367,10288.2
811.461,10313.9
812.556,10254.0
813.65,10252.3
814.744,10136.3
815.837,10063.5
816.931,9941.9
818.025,9957.9
819.118,9758.7
820.212,9636.0
821.305,9626.4
822.398,9596.35
823.491,9434.7
824.585,9379.8
825.677,9627.95
826.77,9151.9
827.863,9106.5
828.956,9062.85
830.048,8876.1
831.14,8841.95
832.233,8689.55
833.325,8715.2
834.417,8475.6
835.509,8382.3
836.601,8531.6
837.692,8468.25
838.784,8353.65
839.876,8431.6
840.967,8710.95
842.058,8377.4
843.149,8173.5
844.24,8060.2
845.331,7829.25
846.422,7742.05
847.513,7692.25
848.604,7603.4
849.694,7622.0
850.784,7632.35
851.875,7602.5
852.965,7574.35
854.055,7471.3
855.145,7457.2
856.235,7321.25
857.324,7506.8
858.414,7458.75
859.503,7637.1
860.593,7367.8
861.682,7208.75
862.771,7185.15
863.86,7183.1
864.949,7184.95
866.038,6935.25
867.126,6959.4
868.215,6983.65
869.303,6905.5
870.391,7083.2
871.479,7210.55
872.567,7405.7
873.655,7177.9
874.743,6848.35
875.831,6801.85
876.918,6721.95
878.006,6604.35
879.093,6647.2
880.18,6589.1
881.267,6564.8
882.354,6500.55
883.441,6484.45
884.527,6520.4
885.614,6348.75
886.7,6378.5
887.786,6209.85
888.872,6210.9
889.958,6188.6
891.044,6113.4
892.13,6164.95
893.216,6033.15
894.301,5973.7
895.386,5959.15
896.472,5979.4
897.557,6618.55
898.642,6745.25
899.726,5954.55
900.811,5727.2
901.896,5658.95
902.98,5681.25
904.064,5570.0
905.148,5655.65
906.232,5899.25
907.316,6211.1
908.4,5910.35
909.484,5546.75
910.567,5418.8
911.65,5345.35
912.734,5257.05
913.817,5252.1
914.9,5226.05
915.982,5139.15
917.065,5134.05
918.147,5074.8
919.23,5055.95
920.312,5035.0
921.394,4946.75
922.476,4910.4
923.558,4926.1
924.639,4874.4
925.721,4828.2
926.802,4805.05
927.884,4784.2
928.965,4737.95
930.046,4713.8
931.126,4688.7
932.207,4643.15
933.288,4639.45
934.368,4573.8
935.448,4581.7
936.528,4537.75
937.608,4528.4
938.688,4491.05
939.767,4466.25
940.847,4450.8
941.926,4434.6
943.005,4403.4
944.084,4382.05
945.163,4361.6
946.242,4347.45
947.321,4328.1
948.399,4297.55
949.477,4278.2
950.556,4289.95
951.634,4246.45
952.711,4230.4
953.789,4208.75
954.867,4187.2
955.944,4194.55
957.021,4164.5
958.098,4160.1
959.175,4131.55
960.252,4128.75
961.328,4105.55
962.405,4090.0
963.481,4085.9
964.557,4060.4
965.633,4054.6
966.709,4049.45
967.785,4039.0
968.86,4017.25
969.936,4005.25
971.011,3997.3
972.086,3983.95
973.161,3985.75
974.235,3964.55
975.31,3960.45
976.384,3953.15
977.459,3943.5
978.533,3927.75
979.607,3933.0
980.68,3916.25
981.754,3915.5
982.827,3894.95
983.901,3895.6
984.974,3890.45
986.047,3885.65
987.119,3871.9
988.192,3872.15
989.264,3859.6
990.337,3856.95
991.409,3853.9
992.481,3837.35
993.553,3830.1
994.624,3834.15
995.696,3826.35
996.767,3816.55
997.838,3816.65
998.909,3814.75
999.98,3799.2
1001.05,3800.3
1002.12,3796.15
1003.19,3791.0
1004.26,3791.0
1005.33,3784.05
1006.4,3780.8
1007.47,3777.0
1008.54,3769.2
1009.61,3766.65
1010.68,3762.3
1011.75,3760.95
1012.82,3758.85
1013.88,3757.8
1014.95,3757.65
1016.02,3752.55
1017.09,3750.1
1018.16,3746.6
1019.22,3745.7
1020.29,3749.45
1021.36,3753.15
1022.43,3754.6
1023.49,3751.7
1024.56,3743.35
1025.63,3736.05
1026.69,3731.1
1027.76,3730.05
1028.83,3723.85
1029.89,3723.35
1030.96,3720.55
1032.02,3722.25
1033.09,3723.9
1034.15,3726.7
1035.22,3725.55
1036.28,3720.2
1037.35,3716.85
1038.41,3711.55
1039.48,3709.75
1040.54,3709.6
1041.6,3706.35
1042.67,3706.8
1043.73,3704.25
1044.79,3702.9
1045.86,3702.4
1046.92,3702.45
1047.98,3702.95
1049.05,3701.2
1050.11,3699.25
1051.17,3700.25
1052.23,3701.75
1053.29,3700.7
1054.36,3698.35
1055.42,3699.9
1056.48,3698.1
1057.54,3698.45
1058.6,3698.95
1059.66,3698.0
1060.72,3698.8
1061.78,3697.25
1062.84,3696.7
1063.9,3698.4
1064.96,3696.45
1066.02,3697.05
1067.08,3695.95
1067.88,3693.9

File: VLFR_07-PET_nobio_Raman_b6443e02.csv
nm,Intensity
782.722,3748.06
783.822,3756.26
784.922,5678.86
786.022,3979.98
787.122,3764.46
788.222,6820.38
789.321,13262.7
790.421,12158.1
791.52,10832.0
792.619,9923.8
793.718,9277.16
794.817,8980.06
795.916,8909.6
797.015,8827.18
798.114,8824.8
799.212,8738.8
800.311,8728.06
801.409,8702.52
802.507,8674.52
803.605,8410.0
804.703,8423.32
805.801,8286.68
806.899,8155.66
807.997,8091.54
809.094,8050.0
810.191,8008.8
811.289,7910.6
812.386,7882.5
813.483,7828.16
814.58,7798.82
815.677,7704.2
816.774,7546.56
817.87,7634.0
818.967,7544.96
820.063,7420.1
821.159,7505.04
822.255,7318.56
823.351,7332.64
824.447,7281.62
825.543,7415.36
826.639,7324.22
827.734,7098.84
828.83,7089.46
829.925,7021.36
831.02,7127.62
832.115,6974.66
833.21,6869.48
834.305,6831.28
835.4,6718.8
836.494,6796.06
837.589,6912.34
838.683,6814.02
839.777,6789.12
840.871,6963.48
841.965,6951.32
843.059,6696.04
844.152,6637.28
845.246,6462.72
846.339,6394.08
847.433,6359.92
848.526,6286.24
849.619,6224.72
850.712,6239.22
851.804,6239.0
852.897,6315.48
853.989,6165.68
855.082,6134.88
856.174,6044.18
857.266,6062.94
858.358,6187.34
859.45,6238.2
860.542,6256.88
861.633,6135.54
862.725,5998.12
863.816,5968.12
864.907,6072.22
865.998,5910.0
867.089,5792.38
868.18,5858.92
869.27,5876.18
870.361,5896.48
871.451,5958.46
872.541,6227.7
873.631,6253.84
874.721,6002.5
875.811,5807.2
876.901,5743.52
877.99,5641.42
879.08,5708.1
880.169,5610.66
881.258,5580.94
882.347,5613.48
883.436,5600.5
884.524,5559.1
885.613,5596.26
886.701,5479.64
887.79,5428.84
888.878,5413.6
889.966,5326.94
891.053,5367.02
892.141,5306.16
893.229,5304.38
894.316,5241.88
895.403,5210.0
896.49,5207.0
897.577,5375.1
898.664,6028.04
899.751,5533.58
900.837,5097.72
901.923,5005.54
903.01,5035.48
904.096,5006.76
905.181,4974.04
906.267,5107.16
907.353,5403.02
908.438,5459.14
909.523,5181.12
910.609,4936.3
911.694,4826.28
912.778,4790.72
913.863,4755.78
914.948,4695.42
916.032,4703.46
917.116,4666.8
918.2,4674.28
919.284,4608.58
920.368,4618.92
921.452,4598.62
922.535,4579.58
923.618,4535.9
924.701,4497.52
925.784,4501.76
926.867,4480.88
927.95,4448.2
929.032,4430.56
930.115,4400.24
931.197,4370.06
932.279,4346.92
933.361,4340.48
934.442,4323.88
935.524,4302.98
936.605,4284.76
937.687,4265.68
938.768,4247.5
939.849,4255.42
940.929,4234.42
942.01,4206.26
943.09,4200.1
944.171,4183.84
945.251,4178.06
946.331,4166.56
947.41,4142.88
948.49,4129.6
949.569,4122.86
950.649,4106.72
951.728,4112.98
952.807,4092.22
953.885,4073.9
954.964,4070.32
956.042,4064.82
957.121,4051.82
958.199,4050.84
959.277,4034.42
960.354,4027.42
961.432,4019.56
962.509,4014.9
963.587,3998.74
964.664,3989.78
965.741,3978.36
966.817,3981.66
967.894,3972.44
968.97,3971.26
970.047,3961.38
971.123,3951.26
972.198,3949.58
973.274,3946.58
974.35,3937.58
975.425,3927.54
976.5,3924.14
977.575,3919.76
978.65,3913.04
979.725,3907.92
980.799,3902.12
981.873,3899.5
982.947,3896.46
984.021,3888.16
985.095,3884.04
986.169,3880.96
987.242,3880.34
988.315,3874.34
989.388,3869.42
990.461,3859.84
991.534,3854.82
992.607,3854.02
993.679,3850.0
994.751,3847.56
995.823,3841.28
996.895,3840.78
997.966,3832.76
999.038,3829.44
1000.11,3824.52
1001.18,3827.48
1002.25,3823.84
1003.32,3821.5
1004.39,3817.64
1005.46,3816.12
1006.53,3809.74
1007.6,3809.42
1008.67,3803.38
1009.74,3802.84
1010.81,3801.36
1011.88,3799.06
1012.95,3796.96
1014.02,3797.74
1015.09,3795.4
1016.16,3793.5
1017.22,3791.36
1018.29,3787.9
1019.36,3786.56
1020.43,3787.9
1021.49,3793.3
1022.56,3794.7
1023.63,3795.92
1024.7,3787.92
1025.76,3786.1
1026.83,3781.92
1027.9,3778.34
1028.96,3773.44
1030.03,3770.52
1031.09,3770.08
1032.16,3769.38
1033.22,3769.28
1034.29,3773.2
1035.35,3772.88
1036.42,3771.74
1037.48,3767.72
1038.55,3765.42
1039.61,3761.44
1040.68,3760.72
1041.74,3759.78
1042.8,3758.68
1043.87,3757.32
1044.93,3757.18
1045.99,3756.04
1047.06,3756.48
1048.12,3755.46
1049.18,3755.62
1050.24,3755.14
1051.31,3754.86
1052.37,3754.16
1053.43,3754.14
1054.49,3753.6
1055.55,3753.02
1056.61,3753.02
1057.67,3753.42
1058.73,3751.56
1059.53,3751.9