Folder: MPX_specDB/spectra (part 130)

File: VLFR_08-PLA_bio_Raman_25f413bb.csv
nm,Intensity
526.508,830.3
527.055,831.6
527.602,829.9
528.149,831.7
528.695,830.8
529.241,829.7
529.787,829.4
530.334,831.4
530.879,829.7
531.425,830.7
531.971,837.4
532.516,830.7
533.062,830.3
533.607,832.1
534.152,1085.3
534.697,1029.9
535.242,984.5
535.786,964.1
536.331,959.5
536.876,958.9
537.42,948.5
537.964,946.8
538.508,933.6
539.052,931.7
539.596,925.4
540.14,924.5
540.683,945.5
541.227,946.5
541.77,931.4
542.313,927.0
542.856,926.0
543.399,956.6
543.942,966.3
544.485,938.9
545.027,929.1
545.57,921.9
546.112,924.9
546.654,925.4
547.196,928.6
547.738,930.0
548.28,932.8
548.822,931.5
549.363,933.7
549.905,934.7
550.446,934.5
550.988,940.0
551.529,946.2
552.07,946.8
552.611,948.9
553.152,948.3
553.692,950.5
554.233,954.4
554.773,945.2
555.314,942.1
555.854,943.8
556.394,936.5
556.934,944.8
557.474,964.6
558.014,1093.4
558.553,981.3
559.093,959.6
559.632,958.2
560.172,950.3
560.711,947.3
561.25,946.8
561.789,942.9
562.328,945.2
562.867,959.1
563.406,994.2
563.944,969.3
564.483,958.7
565.021,991.2
565.559,979.6
566.098,1015.4
566.636,982.0
567.174,956.1
567.711,960.7
568.249,964.9
568.787,961.2
569.324,965.8
569.862,960.0
570.399,959.4
570.936,966.3
571.474,989.0
572.011,983.3
572.548,978.0
573.084,979.7
573.621,987.0
574.158,979.2
574.694,993.9
575.231,967.7
575.767,966.8
576.303,990.7
576.84,1061.5
577.376,997.4
577.912,972.2
578.447,972.8
578.983,968.1
579.519,966.7
580.054,967.1
580.59,967.2
581.125,968.2
581.661,966.0
582.196,968.5
582.731,966.7
583.266,969.9
583.801,970.7
584.336,974.1
584.87,974.5
585.405,971.5
585.94,981.6
586.474,989.1
587.008,1028.2
587.543,1061.0
588.077,1002.2
588.611,972.0
589.145,968.8
589.679,971.3
590.213,973.3
590.747,966.3
591.28,969.1
591.814,968.5
592.347,967.5
592.881,968.3
593.414,968.9
593.947,969.9
594.48,972.0
595.014,966.4
595.547,971.4
596.079,970.5
596.612,970.9
597.145,970.6
597.678,968.8
598.21,969.8
598.743,973.1
599.275,976.4
599.807,973.6
600.34,969.3
600.872,968.3
601.404,965.2
601.936,969.7
602.468,965.0
603.0,970.9
603.532,966.0
604.063,963.2
604.595,965.3
605.126,960.9
605.658,962.0
606.189,966.3
606.721,963.4
607.252,963.0
607.783,961.4
608.314,961.1
608.845,964.4
609.376,968.9
609.907,960.5
610.438,960.8
610.968,961.9
611.499,964.3
612.03,959.5
612.56,962.9
613.091,960.9
613.621,965.2
614.151,965.2
614.681,964.4
615.212,964.7
615.742,961.1
616.272,964.1
616.802,964.0
617.332,961.1
617.861,962.6
618.391,964.3
618.921,961.0
619.45,956.5
619.98,958.1
620.509,960.0
621.039,957.5
621.568,962.1
622.097,961.4
622.627,968.0
623.156,980.5
623.685,970.3
624.214,967.0
624.743,966.5
625.272,960.1
625.801,955.7
626.33,960.2
626.858,962.3
627.387,962.6
627.916,971.7
628.444,1059.6
628.973,1040.7
629.501,1034.4
630.029,1042.0
630.558,1113.2
631.086,1557.1
631.614,1262.6
632.142,1112.2
632.67,1092.1
633.198,1195.2
633.726,1158.6
634.254,1036.4
634.782,978.6
635.31,959.3
635.838,954.2
636.365,949.8
636.893,947.3
637.421,945.1
637.948,943.0
638.476,949.7
639.003,943.5
639.531,943.8
640.058,945.3
640.585,946.3
641.113,945.4
641.64,948.3
642.167,944.3
642.694,941.2
643.221,940.7
643.748,936.8
644.275,941.1
644.802,938.2
645.329,936.2
645.856,931.2
646.382,935.4
646.909,932.4
647.436,932.4
647.962,927.6
648.489,928.5
649.016,930.2
649.542,930.8
650.069,925.2
650.595,926.0
651.121,925.1
651.648,926.0
652.174,930.8
652.7,927.3
653.227,927.6
653.753,928.0
654.279,926.7
654.805,923.0
655.331,923.3
655.857,923.1
656.383,925.0
656.909,926.7
657.435,923.2
657.961,924.8
658.487,925.6
659.013,920.9
659.538,923.4
660.064,919.5
660.59,921.8
661.116,917.6
661.641,916.8
662.167,917.3
662.692,917.7
663.087,917.3

File: VLFR_08-PLA_bio_Raman_26a04790.csv
nm,Intensity
526.508,832.2
527.055,830.4
527.602,829.9
528.149,829.1
528.695,828.7
529.241,829.8
529.787,830.1
530.334,830.5
530.879,831.5
531.425,829.9
531.971,836.4
532.516,830.2
533.062,830.6
533.607,833.7
534.152,1081.4
534.697,1027.7
535.242,988.5
535.786,955.9
536.331,947.0
536.876,948.9
537.42,937.2
537.964,934.8
538.508,922.8
539.052,918.6
539.596,917.4
540.14,904.8
540.683,925.2
541.227,925.7
541.77,918.3
542.313,912.9
542.856,914.4
543.399,939.6
543.942,956.9
544.485,926.6
545.027,911.7
545.57,911.4
546.112,904.6
546.654,909.9
547.196,913.8
547.738,909.7
548.28,913.2
548.822,914.0
549.363,914.8
549.905,916.6
550.446,912.1
550.988,921.7
551.529,921.8
552.07,925.4
552.611,927.9
553.152,926.8
553.692,924.2
554.233,932.5
554.773,925.6
555.314,918.7
555.854,919.2
556.394,916.4
556.934,920.2
557.474,941.2
558.014,1089.6
558.553,966.8
559.093,934.9
559.632,933.4
560.172,925.9
560.711,920.9
561.25,922.5
561.789,923.6
562.328,924.6
562.867,935.3
563.406,980.9
563.944,948.6
564.483,934.1
565.021,967.5
565.559,958.3
566.098,998.7
566.636,953.8
567.174,931.7
567.711,937.8
568.249,938.3
568.787,940.1
569.324,940.2
569.862,936.6
570.399,937.3
570.936,940.1
571.474,960.2
572.011,957.6
572.548,955.3
573.084,955.8
573.621,961.9
574.158,951.9
574.694,968.0
575.231,942.6
575.767,938.2
576.303,963.0
576.84,1037.6
577.376,971.5
577.912,941.9
578.447,942.2
578.983,944.9
579.519,941.1
580.054,939.8
580.59,936.0
581.125,941.3
581.661,943.4
582.196,942.1
582.731,942.0
583.266,941.3
583.801,941.1
584.336,943.0
584.87,941.9
585.405,942.5
585.94,947.8
586.474,960.1
587.008,1002.2
587.543,1033.7
588.077,971.0
588.611,948.3
589.145,945.5
589.679,945.2
590.213,941.9
590.747,944.5
591.28,944.5
591.814,938.3
592.347,940.8
592.881,940.0
593.414,942.8
593.947,938.9
594.48,937.8
595.014,941.2
595.547,947.0
596.079,938.4
596.612,941.8
597.145,942.2
597.678,946.7
598.21,940.9
598.743,939.3
599.275,942.3
599.807,938.8
600.34,944.6
600.872,940.4
601.404,939.0
601.936,944.4
602.468,944.4
603.0,937.6
603.532,941.3
604.063,938.9
604.595,941.1
605.126,937.2
605.658,934.6
606.189,938.0
606.721,939.2
607.252,936.6
607.783,933.6
608.314,935.8
608.845,936.8
609.376,939.6
609.907,935.0
610.438,934.4
610.968,932.5
611.499,936.0
612.03,934.2
612.56,937.4
613.091,941.3
613.621,940.7
614.151,933.0
614.681,943.0
615.212,939.9
615.742,938.8
616.272,938.5
616.802,936.0
617.332,936.0
617.861,933.2
618.391,939.4
618.921,936.8
619.45,936.0
619.98,932.7
620.509,932.5
621.039,931.6
621.568,934.3
622.097,937.4
622.627,947.7
623.156,952.4
623.685,950.5
624.214,940.3
624.743,934.7
625.272,936.9
625.801,937.9
626.33,937.7
626.858,934.6
627.387,938.6
627.916,953.9
628.444,1034.2
628.973,1018.8
629.501,1020.8
630.029,1024.5
630.558,1096.3
631.086,1570.9
631.614,1259.4
632.142,1100.3
632.67,1065.9
633.198,1182.1
633.726,1144.2
634.254,1023.9
634.782,957.9
635.31,940.1
635.838,936.8
636.365,932.1
636.893,928.5
637.421,920.5
637.948,930.2
638.476,924.7
639.003,926.3
639.531,925.2
640.058,922.6
640.585,923.0
641.113,923.0
641.64,925.7
642.167,927.5
642.694,924.0
643.221,918.8
643.748,918.9
644.275,917.0
644.802,915.6
645.329,912.7
645.856,914.4
646.382,911.8
646.909,913.6
647.436,912.1
647.962,913.4
648.489,914.2
649.016,906.7
649.542,906.2
650.069,910.1
650.595,909.2
651.121,906.7
651.648,905.7
652.174,908.2
652.7,912.0
653.227,910.6
653.753,907.6
654.279,906.7
654.805,905.6
655.331,904.9
655.857,909.7
656.383,906.3
656.909,905.2
657.435,910.8
657.961,906.0
658.487,906.4
659.013,904.5
659.538,905.8
660.064,903.4
660.59,906.4
661.116,900.1
661.641,900.0
662.167,901.4
662.692,897.5
663.087,898.9

File: VLFR_08-PLA_bio_Raman_27fbbdc9.csv
nm,Intensity
528.626,1862.0
529.132,1862.8
529.637,1863.8
530.143,1864.3
530.648,1862.7
531.153,1867.3
531.658,1933.4
532.164,4616.1
532.669,1866.0
533.174,1867.3
533.679,2075.4
534.184,2660.6
534.689,2521.7
535.194,2422.2
535.699,2375.6
536.203,2336.2
536.708,2373.3
537.213,2325.7
537.717,2342.7
538.222,2295.3
538.726,2272.6
539.231,2277.2
539.735,2232.0
540.239,2291.5
540.744,2352.3
541.248,2323.3
541.752,2293.2
542.256,2273.1
542.76,2297.1
543.264,2379.1
543.768,2427.5
544.272,2371.9
544.776,2292.5
545.28,2275.0
545.784,2285.1
546.287,2276.5
546.791,2284.0
547.294,2289.8
547.798,2289.3
548.301,2312.4
548.805,2316.4
549.308,2328.6
549.811,2326.0
550.315,2331.0
550.818,2358.2
551.321,2356.6
551.824,2393.4
552.327,2394.7
552.83,2387.7
553.333,2385.8
553.835,2439.6
554.338,2419.8
554.841,2391.6
555.343,2387.3
555.846,2355.5
556.349,2354.4
556.851,2373.1
557.353,2447.5
557.856,2877.3
558.358,2738.1
558.86,2458.2
559.362,2459.4
559.864,2420.0
560.366,2425.0
560.868,2413.2
561.37,2410.0
561.872,2406.5
562.374,2415.0
562.876,2488.3
563.377,2635.2
563.879,2526.7
564.38,2482.0
564.882,2572.9
565.383,2585.7
565.885,2677.9
566.386,2656.4
566.887,2497.6
567.388,2456.0
567.889,2536.3
568.391,2496.9
568.892,2535.2
569.392,2528.9
569.893,2491.8
570.394,2495.2
570.895,2508.5
571.395,2621.5
571.896,2634.8
572.397,2599.9
572.897,2602.1
573.397,2620.7
573.898,2607.9
574.398,2641.7
574.898,2551.9
575.398,2524.1
575.898,2548.3
576.398,2748.3
576.898,2911.6
577.398,2610.3
577.898,2545.4
578.398,2534.1
578.897,2536.7
579.397,2543.4
579.896,2531.0
580.396,2519.5
580.895,2524.9
581.395,2526.4
581.894,2525.4
582.393,2545.8
582.892,2532.1
583.391,2535.3
583.89,2543.1
584.389,2519.7
584.888,2528.3
585.387,2539.6
585.886,2529.1
586.384,2608.5
586.883,2784.4
587.381,2908.7
587.88,2765.1
588.378,2582.5
588.876,2519.0
589.375,2530.0
589.873,2538.6
590.371,2553.0
590.869,2560.8
591.367,2547.0
591.865,2534.5
592.363,2559.8
592.86,2565.8
593.358,2561.3
593.856,2520.0
594.353,2545.8
594.851,2532.3
595.348,2565.5
595.845,2553.8
596.342,2580.4
596.84,2554.4
597.337,2574.5
597.834,2544.6
598.331,2573.3
598.828,2572.1
599.324,2579.8
599.821,2579.2
600.318,2584.6
600.814,2585.2
601.311,2586.5
601.807,2586.2
602.304,2577.2
602.8,2620.3
603.296,2589.1
603.792,2624.7
604.288,2605.0
604.784,2630.5
605.28,2607.9
605.776,2620.9
606.272,2638.2
606.767,2630.3
607.263,2637.6
607.759,2616.0
608.254,2632.3
608.749,2640.5
609.245,2649.0
609.74,2647.6
610.235,2664.3
610.73,2652.0
611.225,2688.8
611.72,2664.1
612.215,2683.3
612.71,2676.2
613.204,2674.6
613.699,2682.9
614.194,2691.1
614.688,2697.1
615.182,2682.2
615.677,2734.5
616.171,2704.0
616.665,2712.8
617.159,2710.0
617.653,2725.1
618.147,2703.6
618.641,2692.5
619.135,2727.3
619.628,2731.1
620.122,2702.6
620.615,2739.8
621.109,2692.7
621.602,2698.1
622.095,2718.2
622.589,2793.9
623.082,2784.3
623.575,2766.4
624.068,2731.1
624.561,2723.2
625.053,2721.6
625.546,2701.9
626.039,2724.9
626.531,2701.1
627.024,2715.5
627.516,2722.4
628.008,2867.9
628.501,3199.2
628.993,3078.8
629.485,3134.0
629.977,3150.1
630.469,3472.9
630.96,5633.1
631.452,4686.4
631.944,3579.6
632.435,3359.7
632.927,3660.0
633.418,3931.8
633.91,3394.1
634.401,2929.2
634.892,2752.8
635.383,2696.8
635.874,2627.3
636.365,2609.4
636.856,2622.3
637.346,2602.1
637.837,2592.3
638.327,2584.5
638.818,2559.4
639.308,2558.9
639.799,2569.0
640.289,2569.9
640.779,2527.3
641.269,2525.6
641.759,2510.6
642.249,2545.7
642.738,2529.7
643.228,2498.9
643.718,2476.3
644.207,2488.0
644.697,2467.7
645.186,2463.1
645.675,2451.3
646.164,2454.6
646.653,2458.5
647.142,2444.7
647.631,2423.5
648.12,2442.3
648.609,2412.9
649.098,2398.5
649.586,2405.0
650.075,2397.7
650.563,2382.3
651.051,2405.6
651.539,2346.8
652.027,2357.1
652.515,2378.0
653.003,2362.3
653.491,2358.2
653.979,2337.6
654.467,2332.2
654.954,2312.9
655.442,2320.0
655.929,2315.5
656.416,2291.4
656.904,2295.4
657.391,2316.3
657.878,2277.9
658.365,2294.5
658.851,2265.2
659.338,2249.7
659.825,2281.3
660.311,2258.9
660.798,2234.2
661.041,2255.9

File: VLFR_08-PLA_bio_Raman_33d4e9f3.csv
nm,Intensity
526.508,831.4
527.055,830.7
527.602,829.7
528.149,831.2
528.695,830.5
529.241,831.1
529.787,830.5
530.334,830.7
530.879,829.9
531.425,829.3
531.971,836.5
532.516,831.6
533.062,829.6
533.607,829.6
534.152,941.4
534.697,922.9
535.242,920.4
535.786,912.1
536.331,902.4
536.876,895.4
537.42,893.4
537.964,897.4
538.508,895.8
539.052,894.6
539.596,897.2
540.14,895.7
540.683,897.1
541.227,900.4
541.77,899.2
542.313,898.8
542.856,903.9
543.399,905.3
543.942,903.2
544.485,901.7
545.027,905.7
545.57,906.9
546.112,907.3
546.654,911.4
547.196,909.2
547.738,914.2
548.28,910.2
548.822,915.3
549.363,913.3
549.905,912.2
550.446,921.2
550.988,920.5
551.529,921.0
552.07,919.2
552.611,919.8
553.152,917.3
553.692,918.4
554.233,914.5
554.773,917.8
555.314,921.8
555.854,914.8
556.394,917.6
556.934,920.0
557.474,920.8
558.014,925.9
558.553,921.6
559.093,921.2
559.632,922.2
560.172,920.8
560.711,923.6
561.25,922.2
561.789,922.8
562.328,926.5
562.867,922.6
563.406,928.4
563.944,929.3
564.483,924.6
565.021,924.4
565.559,928.0
566.098,931.6
566.636,932.1
567.174,928.2
567.711,929.2
568.249,929.1
568.787,932.0
569.324,934.0
569.862,932.9
570.399,932.4
570.936,930.6
571.474,931.9
572.011,933.9
572.548,938.0
573.084,933.3
573.621,937.1
574.158,936.3
574.694,940.3
575.231,938.3
575.767,933.6
576.303,938.9
576.84,943.3
577.376,936.9
577.912,941.7
578.447,942.9
578.983,938.7
579.519,939.1
580.054,935.0
580.59,942.8
581.125,936.7
581.661,941.1
582.196,938.5
582.731,939.1
583.266,949.1
583.801,942.6
584.336,939.8
584.87,943.4
585.405,938.9
585.94,941.0
586.474,939.0
587.008,945.9
587.543,944.1
588.077,942.5
588.611,940.5
589.145,939.5
589.679,940.0
590.213,940.0
590.747,936.2
591.28,938.9
591.814,943.3
592.347,938.0
592.881,939.8
593.414,938.0
593.947,938.9
594.48,939.0
595.014,942.1
595.547,940.2
596.079,939.9
596.612,937.1
597.145,942.7
597.678,935.0
598.21,941.1
598.743,938.5
599.275,942.4
599.807,937.2
600.34,936.3
600.872,933.5
601.404,939.8
601.936,933.1
602.468,934.6
603.0,935.2
603.532,937.4
604.063,939.6
604.595,931.1
605.126,934.7
605.658,933.7
606.189,929.0
606.721,928.6
607.252,928.5
607.783,930.1
608.314,930.8
608.845,928.7
609.376,929.1
609.907,926.9
610.438,928.5
610.968,924.4
611.499,926.5
612.03,928.5
612.56,927.8
613.091,928.7
613.621,929.2
614.151,926.7
614.681,928.3
615.212,925.4
615.742,929.6
616.272,920.9
616.802,927.3
617.332,924.9
617.861,923.9
618.391,926.3
618.921,921.7
619.45,925.2
619.98,922.9
620.509,922.0
621.039,924.4
621.568,921.6
622.097,919.4
622.627,920.3
623.156,922.7
623.685,920.0
624.214,920.4
624.743,920.5
625.272,922.6
625.801,921.2
626.33,917.2
626.858,917.8
627.387,915.4
627.916,919.7
628.444,919.6
628.973,920.2
629.501,914.7
630.029,920.0
630.558,921.7
631.086,940.7
631.614,927.1
632.142,922.6
632.67,923.0
633.198,922.6
633.726,920.3
634.254,914.0
634.782,915.2
635.31,910.8
635.838,913.0
636.365,911.3
636.893,907.3
637.421,909.3
637.948,913.1
638.476,910.3
639.003,908.4
639.531,908.4
640.058,909.3
640.585,911.1
641.113,912.2
641.64,905.9
642.167,907.5
642.694,911.0
643.221,914.5
643.748,910.4
644.275,910.0
644.802,909.7
645.329,906.2
645.856,910.6
646.382,913.5
646.909,916.3
647.436,919.4
647.962,923.7
648.489,931.8
649.016,937.9
649.542,955.5
650.069,963.8
650.595,968.4
651.121,985.8
651.648,975.0
652.174,960.5
652.7,946.2
653.227,930.8
653.753,927.4
654.279,919.8
654.805,915.6
655.331,911.2
655.857,906.0
656.383,906.3
656.909,905.6
657.435,900.7
657.961,895.8
658.487,893.5
659.013,895.2
659.538,887.9
660.064,888.0
660.59,891.9
661.116,888.2
661.641,884.9
662.167,886.2
662.692,885.9
663.087,887.6

File: VLFR_08-PLA_bio_Raman_36dac0e4.csv
nm,Intensity
528.65,1838.1
529.155,1838.4
529.66,1837.0
530.165,1837.6
530.67,1838.35
531.175,1839.05
531.68,1870.4
532.185,3549.7
532.69,1840.8
533.194,1839.85
533.699,2149.0
534.204,2906.95
534.708,2826.05
535.213,2773.6
535.717,2726.15
536.222,2671.2
536.726,2709.05
537.231,2693.7
537.735,2703.65
538.239,2677.95
538.743,2667.25
539.247,2673.25
539.751,2652.75
540.255,2673.6
540.759,2741.6
541.263,2758.75
541.767,2733.1
542.271,2763.45
542.775,2758.65
543.279,2873.6
543.782,2895.0
544.286,2835.85
544.789,2807.05
545.293,2769.75
545.796,2801.7
546.3,2802.0
546.803,2814.35
547.306,2818.8
547.81,2825.1
548.313,2833.15
548.816,2842.05
549.319,2849.55
549.822,2851.35
550.325,2873.65
550.828,2914.4
551.331,2931.2
551.834,2965.4
552.337,2969.4
552.839,2983.1
553.342,2948.8
553.844,3003.25
554.347,3026.25
554.849,2996.6
555.352,2997.15
555.854,3002.95
556.357,3019.45
556.859,3032.95
557.361,3102.15
557.863,3526.15
558.365,3357.25
558.867,3166.65
559.369,3154.55
559.871,3100.6
560.373,3084.65
560.875,3089.55
561.377,3115.3
561.878,3170.25
562.38,3150.55
562.881,3194.25
563.383,3301.7
563.884,3211.45
564.386,3166.75
564.887,3258.2
565.388,3298.75
565.89,3347.2
566.391,3346.05
566.892,3162.2
567.393,3157.25
567.894,3233.65
568.395,3223.7
568.896,3243.0
569.396,3221.75
569.897,3203.1
570.398,3206.2
570.898,3241.3
571.399,3297.6
571.9,3349.95
572.4,3305.05
572.9,3275.4
573.401,3318.35
573.901,3249.3
574.401,3321.0
574.901,3275.4
575.401,3248.2
575.901,3247.95
576.401,3469.05
576.901,3553.6
577.401,3336.5
577.901,3259.35
578.4,3224.55
578.9,3241.7
579.399,3240.55
579.899,3263.4
580.398,3290.5
580.898,3288.35
581.397,3258.4
581.896,3286.1
582.395,3267.85
582.895,3285.8
583.394,3304.4
583.893,3267.05
584.391,3291.75
584.89,3258.6
585.389,3289.65
585.888,3286.3
586.386,3299.9
586.885,3471.8
587.384,3581.9
587.882,3507.55
588.38,3326.35
588.879,3296.45
589.377,3287.2
589.875,3258.25
590.373,3265.75
590.871,3279.3
591.369,3280.1
591.867,3283.95
592.365,3288.3
592.863,3259.95
593.361,3268.4
593.858,3235.3
594.356,3240.7
594.853,3251.05
595.351,3287.45
595.848,3297.55
596.345,3275.35
596.843,3273.05
597.34,3239.15
597.837,3272.3
598.334,3257.0
598.831,3245.8
599.328,3238.35
599.824,3243.9
600.321,3242.65
600.818,3229.85
601.314,3245.25
601.811,3220.7
602.307,3248.6
602.804,3230.7
603.3,3216.45
603.796,3214.15
604.293,3222.25
604.789,3177.85
605.285,3217.7
605.781,3169.7
606.277,3184.65
606.772,3182.75
607.268,3167.3
607.764,3149.9
608.259,3182.0
608.755,3134.35
609.25,3133.15
609.746,3142.0
610.241,3156.25
610.736,3139.7
611.231,3143.45
611.727,3123.05
612.222,3098.5
612.716,3101.55
613.211,3100.5
613.706,3097.4
614.201,3078.05
614.695,3058.85
615.19,3053.05
615.684,3057.85
616.179,3057.15
616.673,3036.65
617.168,3060.45
617.662,3037.6
618.156,3033.55
618.65,3044.15
619.144,3056.3
619.638,3040.6
620.131,3012.05
620.625,3049.65
621.119,3031.15
621.612,3020.8
622.106,3005.05
622.599,3012.15
623.093,3084.85
623.586,3026.8
624.079,3024.85
624.572,2991.0
625.065,2972.35
625.558,2965.25
626.051,2964.95
626.544,2953.2
627.037,2944.0
627.529,3002.45
628.022,3043.85
628.514,3269.7
629.007,3204.05
629.499,3198.3
629.991,3213.25
630.483,3465.4
630.976,4714.4
631.468,4118.75
631.959,3456.65
632.451,3337.8
632.943,3592.6
633.435,3657.8
633.926,3410.25
634.418,3064.65
634.909,2935.7
635.401,2893.35
635.892,2854.05
636.383,2887.6
636.874,2808.2
637.365,2828.3
637.856,2788.7
638.347,2853.85
638.838,2817.15
639.329,2828.5
639.819,2811.9
640.31,2832.35
640.8,2785.0
641.291,2791.3
641.781,2797.3
642.271,2805.5
642.761,2780.2
643.251,2766.3
643.741,2769.45
644.231,2742.6
644.721,2751.3
645.211,2750.7
645.7,2726.35
646.19,2735.6
646.679,2715.85
647.169,2706.7
647.658,2735.75
648.147,2727.3
648.636,2684.45
649.125,2699.2
649.614,2665.55
650.103,2633.35
650.592,2666.0
651.08,2654.65
651.569,2607.8
652.058,2624.35
652.546,2631.5
653.034,2608.85
653.523,2575.1
654.011,2552.55
654.499,2575.0
654.987,2537.5
655.475,2532.95
655.963,2519.75
656.45,2544.0
656.938,2488.85
657.425,2470.9
657.913,2488.9
658.4,2469.1
658.888,2458.35
659.375,2418.3
659.862,2411.3
660.349,2408.85
660.836,2408.75
661.079,2419.15

File: VLFR_08-PLA_bio_Raman_40ca4d60.csv
nm,Intensity
528.626,1866.4
529.132,1869.2
529.637,1868.2
530.143,1867.3
530.648,1867.1
531.153,1870.7
531.658,1925.7
532.164,4675.5
532.669,1869.3
533.174,1871.8
533.679,2203.7
534.184,3376.8
534.689,3495.0
535.194,3595.1
535.699,3697.5
536.203,3732.8
536.708,3792.5
537.213,3820.5
537.717,3949.2
538.222,3989.5
538.726,4045.4
539.231,4154.5
539.735,4205.8
540.239,4248.9
540.744,4427.5
541.248,4393.8
541.752,4493.3
542.256,4595.1
542.76,4720.1
543.264,4682.8
543.768,4837.5
544.272,4853.5
544.776,4983.6
545.28,4942.0
545.784,5070.7
546.287,5163.8
546.791,5310.9
547.294,5257.4
547.798,5357.7
548.301,5434.3
548.805,5568.3
549.308,5591.0
549.811,5618.7
550.315,5687.7
550.818,5880.5
551.321,5831.9
551.824,6004.5
552.327,6041.9
552.83,5992.7
553.333,6080.9
553.835,6267.6
554.338,6236.1
554.841,6353.6
555.343,6347.6
555.846,6471.4
556.349,6411.0
556.851,6404.2
557.353,6521.1
557.856,6593.4
558.358,6767.3
558.86,6782.5
559.362,6895.9
559.864,6859.5
560.366,6874.1
560.868,6964.5
561.37,6988.7
561.872,7059.6
562.374,7118.1
562.876,7062.4
563.377,7077.4
563.879,7079.1
564.38,7271.3
564.882,7301.5
565.383,7275.2
565.885,7429.3
566.386,7390.0
566.887,7384.9
567.388,7484.8
567.889,7522.7
568.391,7482.6
568.892,7482.3
569.392,7654.4
569.893,7629.0
570.394,7630.9
570.895,7603.9
571.395,7675.5
571.896,7691.5
572.397,7630.7
572.897,7711.9
573.397,7881.8
573.898,7700.1
574.398,7808.6
574.898,7848.4
575.398,7781.2
575.898,7840.9
576.398,7766.0
576.898,7995.4
577.398,7785.5
577.898,7877.3
578.398,7805.1
578.897,7722.3
579.397,7841.9
579.896,7854.3
580.396,7945.6
580.895,7928.3
581.395,7915.4
581.894,7834.5
582.393,7812.9
582.892,7888.5
583.391,7878.4
583.89,7888.7
584.389,7959.5
584.888,7845.2
585.387,7849.7
585.886,7943.0
586.384,7947.8
586.883,7923.6
587.381,8060.6
587.88,7959.0
588.378,7989.2
588.876,7999.7
589.375,7840.6
589.873,7877.9
590.371,8068.1
590.869,8028.3
591.367,8026.0
591.865,8065.1
592.363,8180.3
592.86,8195.2
593.358,8156.1
593.856,8097.4
594.353,8190.2
594.851,8152.2
595.348,8269.9
595.845,8366.9
596.342,8455.4
596.84,8532.6
597.337,8511.0
597.834,8514.3
598.331,8554.1
598.828,8622.4
599.324,8648.6
599.821,8727.7
600.318,8895.9
600.814,8883.8
601.311,8918.1
601.807,9066.0
602.304,9094.6
602.8,9054.8
603.296,9169.7
603.792,9213.6
604.288,9337.6
604.784,9405.2
605.28,9324.0
605.776,9514.2
606.272,9745.6
606.767,9696.1
607.263,9816.0
607.759,9864.6
608.254,9932.4
608.749,10126.2
609.245,10158.1
609.74,10118.5
610.235,10226.0
610.73,10365.1
611.225,10557.9
611.72,10488.3
612.215,10492.9
612.71,10783.5
613.204,11013.6
613.699,10893.3
614.194,11150.4
614.688,11207.1
615.182,11265.3
615.677,11186.2
616.171,11543.5
616.665,11502.3
617.159,11593.5
617.653,11462.1
618.147,11767.9
618.641,11921.2
619.135,11944.5
619.628,11926.2
620.122,12179.4
620.615,12080.2
621.109,12229.9
621.602,12095.7
622.095,12266.9
622.589,12372.8
623.082,12563.8
623.575,12572.1
624.068,12642.1
624.561,12719.7
625.053,12846.8
625.546,12637.6
626.039,12653.1
626.531,12776.1
627.024,12764.7
627.516,12737.8
628.008,13314.1
628.501,13107.5
628.993,12999.3
629.485,13055.2
629.977,12972.6
630.469,13097.4
630.96,13123.5
631.452,13306.9
631.944,13246.0
632.435,13235.8
632.927,13294.5
633.418,13366.0
633.91,13170.1
634.401,13336.1
634.892,13192.4
635.383,13123.9
635.874,13171.9
636.365,13110.6
636.856,12961.1
637.346,13280.7
637.837,13168.0
638.327,13084.7
638.818,13101.8
639.308,13048.4
639.799,12891.0
640.289,13245.0
640.779,12748.4
641.269,12989.1
641.759,12866.3
642.249,12836.9
642.738,12661.3
643.228,12570.0
643.718,12505.8
644.207,12504.3
644.697,12384.6
645.186,12616.0
645.675,12573.3
646.164,12233.0
646.653,12273.1
647.142,12249.4
647.631,11926.2
648.12,12098.4
648.609,11940.5
649.098,11802.7
649.586,11828.8
650.075,11579.1
650.563,11415.1
651.051,11706.1
651.539,11473.7
652.027,11560.8
652.515,11122.9
653.003,10965.7
653.491,10744.4
653.979,10752.3
654.467,10586.6
654.954,10717.0
655.442,10524.3
655.929,10485.0
656.416,10794.6
656.904,10302.8
657.391,10281.3
657.878,10105.4
658.365,9913.2
658.851,9849.1
659.338,9719.6
659.825,9660.7
660.311,9527.4
660.798,9577.6
661.041,9417.8