Folder: MPX_specDB/spectra (part 92)

File: VLFR_06-PET_nobio_Raman_fbbd0e56.csv
cm-1,Intensity
-123.878,1851.6
-105.821,1851.45
-87.8007,1852.0
-69.8161,1851.9
-51.8675,1852.95
-33.9547,1853.6
-16.0776,1870.0
1.76388,2866.7
19.5698,1854.8
37.3403,1855.55
55.0755,2040.35
72.7754,2540.1
90.4402,2530.3
108.07,2518.3
125.665,2504.5
143.225,2499.2
160.75,2502.6
178.241,2516.3
195.697,2548.2
213.119,2574.5
230.506,2597.95
247.859,2613.75
265.178,2630.75
282.463,2665.25
299.713,2671.9
316.93,2718.9
334.113,2708.7
351.263,2737.45
368.379,2780.5
385.461,2781.0
402.51,2809.35
419.526,2809.9
436.508,2879.25
453.458,2867.25
470.374,2904.1
487.257,2910.7
504.107,2964.15
520.925,2966.25
537.71,2989.15
554.462,3035.85
571.182,3078.3
587.87,3081.35
604.525,3119.4
621.148,3149.4
637.739,3206.5
654.297,3186.65
670.824,3229.6
687.319,3248.85
703.782,3276.2
720.213,3306.9
736.613,3346.4
752.981,3371.75
769.317,3431.15
785.623,3428.1
801.897,3452.9
818.139,3489.4
834.351,3528.65
850.532,3560.5
866.681,3570.1
882.8,3626.95
898.888,3625.55
914.945,3661.0
930.972,3682.1
946.968,3752.85
962.934,3800.6
978.869,3842.15
994.774,3865.9
1010.65,3885.4
1026.49,3926.0
1042.31,3969.75
1058.09,3984.4
1073.85,4019.0
1089.57,4110.2
1105.27,4128.7
1120.93,4242.95
1136.57,4148.75
1152.18,4238.15
1167.75,4266.7
1183.3,4291.2
1198.82,4293.4
1214.31,4379.95
1229.77,4419.5
1245.2,4431.0
1260.6,4454.35
1275.97,4479.2
1291.32,4679.1
1306.63,4637.55
1321.92,4605.3
1337.18,4591.35
1352.41,4641.25
1367.61,4623.9
1382.78,4625.75
1397.93,4661.45
1413.05,4679.3
1428.14,4761.75
1443.2,4734.45
1458.23,4754.65
1473.23,4747.2
1488.21,4803.25
1503.16,4698.1
1518.08,4761.2
1532.97,4833.45
1547.84,4708.2
1562.68,4863.85
1577.49,4813.4
1592.27,4860.0
1607.03,4989.0
1621.76,4928.0
1636.46,4850.3
1651.14,4826.05
1665.78,4904.65
1680.41,4826.0
1695.0,4867.75
1709.57,4808.7
1724.11,5012.55
1738.62,4946.95
1753.11,4814.6
1767.57,4799.4
1782.01,4863.3
1796.41,4891.45
1810.8,4814.6
1825.15,4756.0
1839.48,4850.05
1853.79,4798.6
1868.06,4815.3
1882.31,4870.5
1896.54,4849.8
1910.74,4827.9
1924.91,4869.25
1939.06,4757.35
1953.19,4788.8
1967.28,4884.25
1981.35,4749.9
1995.4,4851.8
2009.42,4884.15
2023.42,4904.45
2037.39,4895.1
2051.33,4810.4
2065.25,4889.3
2079.15,4901.65
2093.01,4912.0
2106.86,4831.85
2120.68,4974.05
2134.47,4955.75
2148.24,4966.55
2161.99,4971.45
2175.71,4962.85
2189.41,4968.45
2203.08,5011.65
2216.73,5028.05
2230.35,4953.8
2243.95,5013.45
2257.52,5024.25
2271.07,5059.2
2284.6,5032.75
2298.1,5076.35
2311.58,5105.9
2325.03,5113.05
2338.46,5074.4
2351.87,5115.2
2365.25,5141.6
2378.61,5131.75
2391.94,5169.4
2405.26,5240.7
2418.54,5172.15
2431.81,5258.85
2445.05,5260.8
2458.27,5237.8
2471.46,5264.0
2484.63,5186.8
2497.78,5270.95
2510.9,5321.0
2524.0,5292.75
2537.08,5301.95
2550.14,5344.6
2563.17,5313.55
2576.18,5239.2
2589.17,5258.85
2602.13,5336.95
2615.07,5322.55
2627.99,5369.15
2640.89,5325.35
2653.76,5387.8
2666.61,5393.75
2679.44,5428.45
2692.25,5511.35
2705.03,5399.75
2717.79,5428.55
2730.53,5461.65
2743.25,5418.6
2755.94,5506.6
2768.61,5446.8
2781.27,5367.85
2793.89,5456.0
2806.5,5443.0
2819.09,5395.2
2831.65,5473.85
2844.19,5438.25
2856.71,5453.1
2869.21,5427.8
2881.69,5389.45
2894.14,5455.4
2906.58,5520.2
2918.99,5479.1
2931.38,5463.4
2943.75,5360.75
2956.1,5453.75
2968.42,5453.75
2980.73,5508.05
2993.01,5311.35
3005.28,5517.4
3017.52,5321.75
3029.74,5409.35
3041.94,5424.3
3054.12,5345.25
3066.28,5318.25
3078.42,5363.25
3090.54,5378.65
3102.63,5238.0
3114.71,5227.25
3126.77,5186.95
3138.8,5322.3
3150.82,5185.0
3162.81,5166.15
3174.78,5207.25
3186.74,5117.7
3198.67,5094.4
3210.58,5072.3
3222.47,5128.3
3234.35,5058.0
3246.2,4991.05
3258.03,5096.05
3269.84,4987.5
3281.64,4987.95
3293.41,4887.0
3305.16,4910.55
3316.89,4870.05
3328.61,4864.5
3340.3,4774.9
3351.97,4784.25
3363.63,4898.2
3375.26,4806.9
3386.88,4669.6
3398.47,4743.65
3410.05,4621.75
3421.6,4716.1
3433.14,4596.5
3444.66,4610.0
3456.15,4594.95
3467.63,4534.65
3479.09,4503.15
3490.53,4502.15
3501.96,4442.25
3513.36,4383.1
3524.74,4449.0
3536.11,4428.95
3547.45,4275.45
3558.78,4294.05
3570.09,4244.65
3581.37,4321.85
3592.64,4171.65
3603.9,4250.05
3615.13,4130.8
3626.34,4086.5
3637.54,4053.5
3648.72,4101.25
3659.87,4049.45
3665.45,3987.6

File: VLFR_06-PET_nobio_Raman_feb2fdcc.csv
nm,Intensity
526.532,834.35
527.079,834.25
527.625,832.5
528.172,832.9
528.718,833.65
529.265,833.45
529.811,834.0
530.357,832.45
530.903,832.95
531.449,834.15
531.994,840.45
532.54,834.55
533.085,833.7
533.63,858.15
534.176,2302.1
534.721,1862.4
535.266,1463.7
535.81,1232.9
536.355,1090.2
536.9,1035.5
537.444,1014.55
537.988,1004.6
538.533,1016.5
539.077,1005.95
539.621,1028.15
540.165,1032.25
540.708,987.8
541.252,972.4
541.795,968.45
542.339,969.85
542.882,972.5
543.425,969.4
543.968,983.0
544.511,975.25
545.054,978.85
545.597,979.75
546.139,981.85
546.682,985.6
547.224,986.5
547.766,992.4
548.308,992.95
548.85,993.45
549.392,997.25
549.934,999.0
550.475,1033.85
551.017,1016.75
551.558,1010.9
552.1,1018.3
552.641,1033.4
553.182,1038.65
553.723,1029.85
554.264,1027.8
554.804,1030.75
555.345,1047.8
555.885,1102.3
556.426,1120.05
556.966,1131.05
557.506,1315.6
558.046,1152.4
558.586,1147.7
559.126,1095.75
559.665,1071.5
560.205,1073.4
560.745,1075.25
561.284,1087.25
561.823,1088.4
562.362,1106.15
562.901,1124.95
563.44,1126.4
563.979,1115.65
564.518,1131.15
565.056,1190.05
565.595,1273.25
566.133,1257.2
566.671,1152.05
567.21,1138.9
567.748,1237.75
568.285,1155.55
568.823,1146.3
569.361,1161.1
569.899,1199.85
570.436,1264.9
570.974,1415.2
571.511,1523.4
572.048,1346.55
572.585,1222.65
573.122,1198.6
573.659,1207.2
574.196,1236.9
574.733,1220.85
575.269,1266.85
575.806,1228.0
576.342,1269.95
576.878,1282.4
577.414,1247.75
577.951,1240.45
578.486,1249.75
579.022,1246.3
579.558,1250.0
580.094,1259.05
580.629,1265.2
581.165,1292.95
581.7,1419.1
582.236,2782.1
582.771,1344.75
583.306,1300.85
583.841,1299.95
584.376,1310.05
584.911,1334.0
585.445,1479.65
585.98,2066.1
586.514,1711.35
587.049,1384.3
587.583,1340.8
588.117,1327.85
588.651,1329.35
589.186,1327.9
589.72,1330.5
590.253,1330.0
590.787,1333.7
591.321,1336.8
591.854,1343.25
592.388,1338.35
592.921,1335.8
593.455,1340.75
593.988,1352.2
594.521,1354.35
595.054,1353.1
595.587,1360.0
596.12,1361.5
596.653,1362.9
597.186,1369.6
597.718,1372.15
598.251,1376.05
598.783,1384.5
599.316,1375.45
599.848,1380.85
600.38,1374.9
600.912,1379.15
601.444,1379.4
601.976,1378.4
602.508,1380.0
603.04,1391.15
603.572,1383.5
604.103,1382.5
604.635,1385.3
605.167,1379.7
605.698,1381.05
606.229,1375.0
606.761,1373.7
607.292,1383.0
607.823,1388.25
608.354,1392.25
608.885,1398.95
609.416,1394.3
609.947,1390.65
610.477,1399.4
611.008,1397.45
611.539,1400.1
612.069,1406.3
612.6,1415.15
613.13,1420.45
613.66,1429.65
614.19,1430.1
614.721,1434.35
615.251,1441.2
615.781,1434.55
616.311,1439.8
616.841,1444.75
617.37,1453.35
617.9,1465.65
618.43,1464.9
618.96,1462.65
619.489,1464.0
620.019,1457.05
620.548,1461.95
621.077,1464.4
621.607,1461.3
622.136,1478.15
622.665,1475.8
623.194,1488.3
623.723,1495.45
624.252,1510.0
624.781,1524.0
625.31,1520.4
625.839,1515.7
626.368,1516.65
626.896,1522.7
627.425,1527.05
627.953,1536.25
628.482,1553.45
629.01,1583.85
629.539,1588.8
630.067,1578.45
630.596,1585.4
631.124,1662.75
631.652,1809.15
632.18,1773.35
632.708,1696.45
633.236,1688.65
633.764,1664.2
634.292,1642.5
634.82,1632.75
635.348,1644.8
635.876,1718.85
636.403,1853.5
636.931,1820.0
637.459,1697.35
637.986,1665.45
638.514,1667.35
639.041,1663.95
639.568,1673.6
640.096,1674.8
640.623,1684.7
641.15,1674.65
641.678,1692.35
642.205,1694.95
642.732,1703.05
643.259,1690.35
643.786,1688.05
644.313,1692.65
644.84,1688.05
645.367,1676.7
645.894,1702.35
646.421,1699.7
646.948,1709.3
647.474,1712.15
648.001,1709.35
648.528,1713.6
649.054,1703.5
649.581,1707.15
650.108,1705.05
650.634,1704.35
651.161,1707.5
651.687,1708.95
652.214,1716.9
652.74,1715.9
653.266,1717.85
653.793,1721.85
654.319,1719.6
654.845,1708.05
655.371,1717.5
655.897,1716.25
656.424,1720.25
656.95,1724.8
657.476,1716.75
658.002,1712.85
658.528,1724.0
659.054,1715.6
659.58,1715.8
660.106,1713.15
660.631,1711.0
661.157,1698.2
661.683,1702.25
662.209,1688.1
662.735,1696.45
663.129,1686.45

File: VLFR_07-PET_bio_Raman_0f5d2bb8.csv
nm,Intensity
791.588,10978.6
792.685,10237.5
793.781,10027.5
794.878,9872.4
795.975,9756.5
797.071,9730.4
798.168,9780.1
799.264,9814.9
800.36,9745.4
801.456,9705.3
802.552,9718.1
803.648,9533.2
804.744,9418.2
805.84,9326.6
806.936,9311.9
808.031,9189.9
809.127,9166.1
810.222,8938.3
811.317,8930.0
812.412,8858.4
813.507,8691.7
814.602,8618.4
815.697,8532.9
816.792,8549.7
817.887,8495.8
818.981,8386.5
820.076,8306.5
821.17,8238.1
822.265,8170.0
823.359,8127.9
824.453,8014.8
825.547,8097.2
826.641,8069.1
827.735,7951.4
828.828,7819.6
829.922,7761.9
831.016,7804.7
832.109,7621.2
833.202,7603.0
834.295,7572.0
835.388,7461.6
836.481,7480.1
837.574,7475.8
838.667,7473.1
839.76,7411.6
840.852,7406.3
841.945,7427.1
843.037,7237.8
844.129,7117.9
845.221,7006.0
846.314,6937.7
847.405,6850.0
848.497,6889.3
849.589,6775.9
850.68,6808.2
851.772,6771.8
852.863,6705.7
853.955,6643.0
855.046,6656.9
856.137,6595.4
857.228,6604.7
858.318,6647.0
859.409,6693.1
860.5,6582.2
861.59,6422.1
862.681,6407.6
863.771,6389.8
864.861,6417.8
865.951,6294.0
867.041,6292.4
868.131,6240.9
869.22,6299.8
870.31,6269.4
871.399,6341.6
872.488,6375.9
873.578,6357.2
874.667,6290.1
875.756,6165.2
876.845,6066.2
877.933,6062.6
879.022,6029.2
880.11,5974.0
881.199,5977.9
882.287,5957.9
883.375,5927.2
884.463,5907.6
885.551,5856.0
886.639,5855.2
887.726,5783.4
888.814,5726.7
889.901,5756.0
890.988,5686.0
892.075,5705.7
893.162,5634.1
894.249,5576.3
895.336,5528.7
896.423,5524.9
897.509,5667.8
898.595,5807.8
899.682,5583.7
900.768,5377.5
901.854,5300.5
902.94,5289.2
904.025,5282.9
905.111,5257.4
906.196,5279.5
907.282,5444.0
908.367,5387.3
909.452,5243.0
910.537,5085.7
911.622,5033.4
912.706,4974.9
913.791,4971.6
914.875,4912.8
915.959,4871.2
917.044,4873.3
918.128,4822.6
919.211,4801.6
920.295,4805.6
921.379,4733.1
922.462,4715.5
923.546,4679.3
924.629,4672.5
925.712,4634.1
926.795,4604.8
927.877,4577.7
928.96,4537.4
930.043,4534.9
931.125,4506.8
932.207,4463.9
933.289,4443.5
934.371,4406.3
935.453,4394.3
936.535,4398.5
937.616,4347.4
938.697,4354.5
939.779,4324.8
940.86,4298.6
941.941,4287.2
943.022,4272.1
944.102,4239.5
945.183,4246.5
946.263,4230.5
947.343,4214.6
948.423,4195.1
949.503,4194.7
950.583,4171.6
951.663,4155.1
952.742,4148.4
953.822,4124.1
954.901,4118.5
955.98,4105.5
957.059,4100.6
958.137,4083.5
959.216,4072.2
960.294,4065.9
961.373,4044.2
962.451,4044.4
963.529,4039.5
964.607,4027.9
965.684,4017.8
966.762,4011.7
967.839,4003.3
968.917,4000.5
969.994,3988.1
971.071,3981.0
972.147,3976.7
973.224,3967.0
974.3,3960.5
975.377,3951.9
976.453,3941.9
977.529,3936.3
978.605,3937.6
979.68,3929.5
980.756,3920.3
981.831,3913.4
982.907,3918.9
983.982,3908.4
985.057,3896.5
986.131,3893.3
987.206,3893.5
988.28,3889.5
989.355,3882.8
990.429,3877.7
991.503,3876.4
992.576,3869.7
993.65,3867.2
994.723,3861.1
995.797,3853.4
996.87,3851.3
997.943,3847.3
999.016,3843.5
1000.09,3844.1
1001.16,3843.7
1002.23,3835.6
1003.31,3838.7
1004.38,3826.4
1005.45,3824.4
1006.52,3818.0
1007.59,3819.0
1008.66,3818.1
1009.73,3815.1
1010.81,3810.9
1011.88,3808.0
1012.95,3805.6
1014.02,3810.2
1015.09,3801.2
1016.16,3800.2
1017.23,3799.7
1018.3,3796.3
1019.37,3793.3
1020.44,3796.6
1021.51,3796.8
1022.58,3796.5
1023.64,3789.2
1024.71,3788.7
1025.78,3787.2
1026.85,3782.9
1027.92,3780.4
1028.99,3778.7
1030.05,3778.8
1031.12,3776.1
1032.19,3776.4
1033.26,3776.8
1034.32,3776.5
1035.39,3773.6
1036.46,3775.9
1037.52,3772.0
1038.59,3768.9
1039.66,3766.0
1040.72,3767.5
1041.79,3768.2
1042.86,3768.7
1043.92,3764.3
1044.99,3762.5
1046.05,3763.9
1047.12,3764.0
1048.18,3761.2
1049.25,3761.2
1050.31,3761.6
1051.37,3762.3
1052.44,3761.2
1053.5,3760.0
1054.57,3759.0
1055.63,3762.1
1056.69,3758.1
1057.76,3760.6
1058.82,3759.3
1059.88,3758.7
1060.95,3759.1
1062.01,3758.3
1063.07,3758.4
1064.13,3759.9
1065.19,3759.2
1066.26,3757.2
1067.32,3758.6
1068.11,3755.0

File: VLFR_07-PET_bio_Raman_0f659c4d.csv
nm,Intensity
791.588,10269.6
792.685,9739.5
793.781,9538.2
794.878,9315.2
795.975,9318.6
797.071,9331.9
798.168,9327.4
799.264,9307.2
800.36,9220.4
801.456,9378.8
802.552,9269.4
803.648,9259.5
804.744,9086.6
805.84,9084.0
806.936,8998.4
808.031,8906.6
809.127,8831.0
810.222,8876.1
811.317,8768.5
812.412,8659.9
813.507,8554.4
814.602,8564.0
815.697,8405.6
816.792,8452.1
817.887,8335.9
818.981,8229.4
820.076,8273.0
821.17,8173.4
822.265,8060.3
823.359,8018.3
824.453,7959.2
825.547,8052.9
826.641,7920.5
827.735,7838.1
828.828,7687.1
829.922,7712.1
831.016,7707.1
832.109,7530.2
833.202,7507.9
834.295,7440.2
835.388,7395.8
836.481,7433.0
837.574,7387.7
838.667,7369.7
839.76,7276.1
840.852,7398.8
841.945,7474.7
843.037,7149.9
844.129,7140.4
845.221,6993.7
846.314,6878.0
847.405,6899.9
848.497,6810.4
849.589,6776.4
850.68,6746.8
851.772,6735.8
852.863,6716.6
853.955,6677.3
855.046,6585.7
856.137,6512.1
857.228,6545.4
858.318,6550.9
859.409,6647.7
860.5,6595.2
861.59,6488.1
862.681,6443.3
863.771,6325.6
864.861,6339.5
865.951,6313.3
867.041,6290.8
868.131,6246.5
869.22,6290.5
870.31,6220.5
871.399,6357.7
872.488,6420.6
873.578,6372.7
874.667,6289.4
875.756,6162.9
876.845,6126.4
877.933,6059.7
879.022,5986.4
880.11,6010.4
881.199,5962.7
882.287,5986.6
883.375,5880.6
884.463,5937.1
885.551,5885.1
886.639,5877.6
887.726,5756.9
888.814,5714.6
889.901,5697.8
890.988,5678.2
892.075,5657.9
893.162,5624.8
894.249,5617.9
895.336,5525.7
896.423,5500.8
897.509,5684.1
898.595,5903.4
899.682,5621.2
900.768,5404.3
901.854,5338.7
902.94,5310.1
904.025,5284.9
905.111,5285.7
906.196,5350.8
907.282,5468.2
908.367,5435.3
909.452,5279.3
910.537,5127.3
911.622,5084.6
912.706,5034.0
913.791,4995.6
914.875,4924.5
915.959,4907.9
917.044,4898.4
918.128,4863.9
919.211,4868.6
920.295,4785.2
921.379,4796.6
922.462,4744.5
923.546,4712.9
924.629,4723.3
925.712,4670.7
926.795,4639.2
927.877,4605.4
928.96,4577.1
930.043,4548.2
931.125,4525.4
932.207,4496.3
933.289,4488.1
934.371,4450.5
935.453,4432.7
936.535,4436.6
937.616,4388.4
938.697,4369.9
939.779,4342.3
940.86,4332.9
941.941,4316.3
943.022,4304.4
944.102,4295.2
945.183,4258.1
946.263,4251.0
947.343,4246.6
948.423,4221.3
949.503,4221.0
950.583,4191.4
951.663,4191.5
952.742,4162.0
953.822,4156.1
954.901,4146.9
955.98,4123.4
957.059,4116.0
958.137,4102.8
959.216,4093.0
960.294,4071.9
961.373,4063.1
962.451,4064.9
963.529,4052.6
964.607,4041.8
965.684,4029.6
966.762,4023.4
967.839,4017.3
968.917,4012.1
969.994,3998.3
971.071,3989.0
972.147,3981.4
973.224,3980.4
974.3,3965.7
975.377,3962.6
976.453,3956.9
977.529,3945.2
978.605,3939.8
979.68,3939.2
980.756,3935.2
981.831,3922.9
982.907,3915.5
983.982,3909.9
985.057,3906.9
986.131,3899.6
987.206,3903.5
988.28,3892.5
989.355,3883.2
990.429,3878.9
991.503,3875.4
992.576,3871.8
993.65,3867.3
994.723,3859.7
995.797,3856.8
996.87,3855.0
997.943,3853.9
999.016,3844.9
1000.09,3845.2
1001.16,3841.6
1002.23,3835.7
1003.31,3832.6
1004.38,3833.3
1005.45,3825.2
1006.52,3822.6
1007.59,3822.6
1008.66,3817.6
1009.73,3815.2
1010.81,3811.4
1011.88,3810.4
1012.95,3806.3
1014.02,3804.1
1015.09,3803.2
1016.16,3801.6
1017.23,3802.4
1018.3,3795.5
1019.37,3794.8
1020.44,3792.2
1021.51,3798.0
1022.58,3793.6
1023.64,3790.9
1024.71,3792.5
1025.78,3787.2
1026.85,3786.3
1027.92,3781.0
1028.99,3777.0
1030.05,3778.0
1031.12,3776.9
1032.19,3778.5
1033.26,3777.6
1034.32,3778.1
1035.39,3776.0
1036.46,3772.1
1037.52,3772.6
1038.59,3769.5
1039.66,3768.5
1040.72,3768.7
1041.79,3767.1
1042.86,3764.5
1043.92,3767.1
1044.99,3763.7
1046.05,3764.4
1047.12,3763.1
1048.18,3762.3
1049.25,3760.5
1050.31,3760.7
1051.37,3760.5
1052.44,3762.3
1053.5,3761.5
1054.57,3758.5
1055.63,3758.9
1056.69,3760.9
1057.76,3757.9
1058.82,3758.3
1059.88,3759.0
1060.95,3759.0
1062.01,3759.8
1063.07,3758.7
1064.13,3757.1
1065.19,3757.0
1066.26,3757.8
1067.32,3756.2
1068.11,3758.7

File: VLFR_07-PET_bio_Raman_1a8f7258.csv
nm,Intensity
791.377,13581.5
792.477,12027.0
793.576,11101.2
794.676,10696.7
795.775,10360.2
796.874,10363.0
797.973,10270.5
799.072,10207.6
800.171,10146.0
801.27,10225.5
802.368,10292.4
803.467,10108.7
804.565,9929.4
805.664,9755.04
806.762,9806.02
807.86,9681.58
808.958,9561.56
810.056,9469.68
811.153,9407.7
812.251,9284.76
813.349,9331.36
814.446,9184.88
815.543,9018.94
816.64,8902.92
817.737,8925.58
818.834,8842.98
819.931,8798.54
821.028,8631.16
822.125,8598.36
823.221,8443.52
824.317,8394.04
825.414,8453.9
826.51,8474.16
827.606,8243.6
828.702,8153.46
829.797,8149.04
830.893,8278.3
831.988,7960.88
833.084,7956.54
834.179,7900.42
835.274,7810.78
836.369,7716.2
837.464,7920.4
838.559,7907.34
839.654,7852.76
840.748,7941.22
841.843,8247.12
842.937,7812.5
844.031,7792.64
845.125,7504.18
846.219,7287.12
847.313,7273.24
848.407,7177.14
849.5,7160.84
850.593,7089.32
851.687,7155.94
852.78,7133.56
853.873,7101.86
854.966,7019.14
856.059,6955.96
857.151,6857.38
858.244,6916.64
859.336,7081.8
860.428,7194.86
861.52,6923.06
862.612,6712.7
863.704,6643.54
864.796,6715.76
865.888,6625.98
866.979,6518.38
868.07,6525.98
869.162,6500.22
870.253,6519.56
871.344,6629.1
872.434,6900.86
873.525,6965.62
874.615,6709.42
875.706,6494.5
876.796,6311.74
877.886,6280.46
878.976,6206.76
880.066,6196.06
881.156,6117.9
882.245,6166.04
883.335,6171.1
884.424,6105.6
885.513,6093.66
886.602,6019.74
887.691,5937.04
888.78,5916.28
889.868,5865.44
890.957,5857.36
892.045,5848.94
893.133,5821.28
894.221,5727.52
895.309,5705.76
896.397,5731.68
897.484,5874.98
898.571,6833.1
899.659,6278.46
900.746,5592.46
901.833,5543.96
902.92,5466.46
904.006,5456.06
905.093,5484.68
906.179,5589.86
907.266,6048.5
908.352,6222.12
909.438,5760.24
910.523,5367.44
911.609,5251.3
912.695,5177.38
913.78,5176.42
914.865,5120.12
915.95,5061.02
917.035,5074.12
918.12,5035.58
919.204,5022.2
920.289,4944.36
921.373,4886.88
922.457,4927.96
923.541,4849.28
924.625,4860.46
925.709,4831.02
926.792,4764.74
927.876,4759.24
928.959,4725.38
930.042,4687.76
931.125,4646.02
932.208,4662.02
933.29,4627.1
934.373,4594.48
935.455,4554.86
936.537,4526.4
937.619,4513.22
938.701,4497.86
939.782,4467.28
940.864,4458.06
941.945,4442.76
943.026,4404.08
944.107,4380.96
945.188,4362.0
946.269,4371.4
947.349,4327.58
948.43,4330.98
949.51,4295.8
950.59,4294.98
951.67,4279.5
952.75,4240.06
953.829,4227.98
954.909,4225.4
955.988,4218.36
957.067,4205.88
958.146,4178.4
959.224,4176.54
960.303,4166.12
961.381,4148.82
962.459,4135.72
963.537,4129.92
964.615,4113.42
965.693,4102.88
966.771,4076.46
967.848,4086.08
968.925,4072.7
970.002,4065.08
971.079,4050.72
972.156,4050.94
973.232,4039.26
974.309,4034.76
975.385,4017.34
976.461,4012.44
977.537,4006.48
978.612,3998.66
979.688,3989.2
980.763,3986.72
981.838,3981.36
982.913,3971.1
983.988,3967.32
985.063,3958.26
986.137,3950.74
987.211,3953.02
988.285,3941.64
989.359,3943.58
990.433,3932.44
991.506,3924.42
992.58,3921.22
993.653,3913.46
994.726,3904.68
995.799,3905.26
996.872,3899.8
997.944,3894.94
999.016,3895.3
1000.09,3886.28
1001.16,3882.62
1002.23,3884.2
1003.3,3872.62
1004.38,3869.32
1005.45,3868.04
1006.52,3865.06
1007.59,3860.62
1008.66,3857.68
1009.73,3851.2
1010.8,3852.28
1011.87,3846.62
1012.94,3846.88
1014.01,3846.7
1015.08,3842.2
1016.15,3843.62
1017.22,3841.26
1018.29,3835.8
1019.36,3834.44
1020.42,3835.48
1021.49,3840.52
1022.56,3848.3
1023.63,3844.14
1024.7,3838.12
1025.76,3831.44
1026.83,3828.04
1027.9,3820.78
1028.97,3813.08
1030.03,3813.64
1031.1,3809.9
1032.17,3808.94
1033.23,3809.28
1034.3,3815.98
1035.36,3817.58
1036.43,3814.8
1037.5,3809.1
1038.56,3802.48
1039.63,3800.92
1040.69,3797.58
1041.76,3796.46
1042.82,3795.14
1043.89,3792.92
1044.95,3791.58
1046.01,3791.3
1047.08,3792.96
1048.14,3789.28
1049.2,3791.04
1050.27,3790.16
1051.33,3789.04
1052.39,3788.52
1053.46,3788.48
1054.52,3788.08
1055.58,3788.04
1056.64,3788.2
1057.7,3786.78
1058.77,3786.3
1059.83,3786.54
1060.89,3786.58
1061.95,3784.72
1063.01,3786.22
1064.07,3785.9
1065.13,3786.22
1066.19,3785.0
1067.25,3784.44
1068.05,3784.62

File: VLFR_07-PET_bio_Raman_1ed74288.csv
nm,Intensity
791.588,7969.8
792.685,7779.7
793.781,7639.3
794.878,7629.8
795.975,7680.5
797.071,7686.5
798.168,7680.2
799.264,7666.2
800.36,7641.7
801.456,7671.3
802.552,7650.6
803.648,7563.9
804.744,7540.8
805.84,7477.7
806.936,7433.7
808.031,7332.7
809.127,7307.2
810.222,7288.8
811.317,7212.6
812.412,7122.7
813.507,7090.8
814.602,6982.8
815.697,6983.4
816.792,6926.2
817.887,6893.0
818.981,6870.5
820.076,6890.2
821.17,6857.6
822.265,6787.0
823.359,6741.1
824.453,6784.8
825.547,6725.5
826.641,6703.8
827.735,6592.7
828.828,6605.5
829.922,6506.2
831.016,6529.7
832.109,6391.8
833.202,6432.9
834.295,6437.5
835.388,6278.6
836.481,6332.5
837.574,6346.7
838.667,6245.6
839.76,6222.3
840.852,6275.2
841.945,6303.3
843.037,6127.5
844.129,6117.7
845.221,6027.7
846.314,6017.2
847.405,5958.2
848.497,5906.8
849.589,5880.1
850.68,5851.6
851.772,5863.2
852.863,5844.4
853.955,5811.3
855.046,5774.1
856.137,5732.7
857.228,5711.8
858.318,5764.2
859.409,5795.9
860.5,5804.6
861.59,5707.4
862.681,5657.3
863.771,5611.8
864.861,5652.8
865.951,5617.4
867.041,5617.8
868.131,5526.4
869.22,5602.6
870.31,5612.2
871.399,5607.6
872.488,5653.8
873.578,5658.0
874.667,5531.7
875.756,5544.0
876.845,5497.8
877.933,5468.2
879.022,5448.1
880.11,5404.4
881.199,5400.2
882.287,5397.1
883.375,5419.4
884.463,5372.8
885.551,5351.9
886.639,5365.0
887.726,5263.7
888.814,5246.0
889.901,5267.7
890.988,5249.1
892.075,5202.6
893.162,5195.7
894.249,5151.6
895.336,5121.2
896.423,5102.5
897.509,5171.3
898.595,5339.9
899.682,5153.7
900.768,5021.6
901.854,4953.4
902.94,4938.7
904.025,4953.8
905.111,4926.7
906.196,4932.9
907.282,5049.6
908.367,5038.2
909.452,4925.5
910.537,4800.1
911.622,4746.2
912.706,4738.0
913.791,4726.6
914.875,4678.8
915.959,4645.1
917.044,4635.8
918.128,4605.4
919.211,4606.2
920.295,4561.9
921.379,4567.5
922.462,4511.7
923.546,4491.1
924.629,4480.6
925.712,4444.8
926.795,4442.5
927.877,4405.7
928.96,4393.6
930.043,4380.7
931.125,4350.3
932.207,4333.9
933.289,4317.6
934.371,4301.5
935.453,4272.9
936.535,4277.0
937.616,4256.6
938.697,4221.4
939.779,4218.1
940.86,4206.0
941.941,4194.0
943.022,4189.6
944.102,4163.2
945.183,4143.6
946.263,4134.3
947.343,4125.3
948.423,4108.8
949.503,4111.7
950.583,4096.1
951.663,4081.2
952.742,4076.0
953.822,4047.4
954.901,4054.5
955.98,4043.2
957.059,4034.0
958.137,4031.7
959.216,4026.4
960.294,4013.1
961.373,4010.6
962.451,3993.4
963.529,3984.5
964.607,3988.4
965.684,3969.7
966.762,3967.7
967.839,3959.6
968.917,3959.2
969.994,3945.4
971.071,3942.3
972.147,3939.3
973.224,3925.9
974.3,3913.1
975.377,3923.2
976.453,3911.0
977.529,3899.9
978.605,3899.6
979.68,3906.5
980.756,3892.4
981.831,3890.9
982.907,3889.7
983.982,3880.9
985.057,3873.0
986.131,3870.9
987.206,3869.5
988.28,3863.3
989.355,3859.0
990.429,3859.0
991.503,3854.1
992.576,3846.0
993.65,3846.9
994.723,3840.1
995.797,3835.2
996.87,3834.1
997.943,3833.6
999.016,3830.7
1000.09,3827.2
1001.16,3822.6
1002.23,3822.0
1003.31,3814.6
1004.38,3813.8
1005.45,3810.4
1006.52,3810.6
1007.59,3809.9
1008.66,3800.7
1009.73,3800.8
1010.81,3802.8
1011.88,3797.4
1012.95,3797.2
1014.02,3795.8
1015.09,3793.7
1016.16,3789.3
1017.23,3790.8
1018.3,3784.3
1019.37,3787.1
1020.44,3786.0
1021.51,3789.7
1022.58,3785.3
1023.64,3785.6
1024.71,3782.2
1025.78,3777.7
1026.85,3774.5
1027.92,3776.1
1028.99,3769.7
1030.05,3771.0
1031.12,3768.5
1032.19,3769.8
1033.26,3768.5
1034.32,3769.1
1035.39,3768.2
1036.46,3768.5
1037.52,3765.6
1038.59,3763.1
1039.66,3763.7
1040.72,3761.6
1041.79,3760.1
1042.86,3759.5
1043.92,3760.9
1044.99,3758.8
1046.05,3757.4
1047.12,3759.0
1048.18,3759.8
1049.25,3757.2
1050.31,3754.9
1051.37,3756.9
1052.44,3758.2
1053.5,3757.1
1054.57,3756.5
1055.63,3754.1
1056.69,3756.2
1057.76,3755.3
1058.82,3755.2
1059.88,3754.9
1060.95,3756.3
1062.01,3754.6
1063.07,3754.2
1064.13,3752.7
1065.19,3750.7
1066.26,3752.9
1067.32,3753.6
1068.11,3752.7