Folder: MPX_specDB/spectra (part 82)

File: VLFR_06-PET_nobio_Raman_2b26fef9.csv
nm,Intensity
526.486,830.0
527.033,830.3
527.579,830.1
528.126,829.9
528.672,830.5
529.219,831.2
529.765,830.7
530.311,830.0
530.857,829.8
531.403,830.6
531.948,836.0
532.494,833.3
533.039,830.5
533.585,836.2
534.13,1784.5
534.675,1552.3
535.22,1303.2
535.764,1156.5
536.309,1058.9
536.854,1014.7
537.398,1001.1
537.942,992.9
538.486,992.8
539.03,997.8
539.574,1002.4
540.118,1021.8
540.662,989.6
541.205,982.5
541.749,979.0
542.292,981.7
542.835,982.0
543.378,986.8
543.921,993.7
544.464,987.7
545.006,993.5
545.549,999.7
546.091,998.4
546.634,1003.2
547.176,1002.5
547.718,1010.8
548.26,1011.2
548.802,1017.7
549.343,1018.2
549.885,1024.6
550.426,1041.9
550.968,1043.1
551.509,1033.4
552.05,1035.5
552.591,1043.4
553.132,1063.5
553.673,1053.2
554.214,1050.0
554.754,1053.3
555.295,1075.3
555.835,1112.5
556.375,1113.4
556.915,1125.2
557.455,1244.4
557.995,1168.4
558.535,1144.6
559.075,1119.3
559.614,1098.7
560.154,1105.9
560.693,1107.0
561.232,1119.8
561.772,1124.0
562.311,1138.1
562.85,1149.2
563.388,1154.1
563.927,1149.6
564.466,1161.9
565.004,1209.1
565.543,1251.8
566.081,1255.7
566.619,1191.7
567.157,1179.8
567.695,1250.1
568.233,1195.1
568.771,1183.9
569.309,1198.1
569.846,1223.8
570.384,1260.2
570.921,1369.6
571.458,1502.1
571.995,1350.2
572.532,1271.7
573.069,1244.8
573.606,1250.8
574.143,1282.8
574.68,1258.2
575.216,1294.2
575.753,1282.7
576.289,1301.7
576.825,1317.5
577.361,1295.0
577.897,1290.9
578.433,1300.9
578.969,1305.4
579.505,1317.9
580.041,1314.1
580.576,1317.2
581.112,1348.1
581.647,1414.7
582.183,2466.1
582.718,1412.6
583.253,1359.6
583.788,1366.6
584.323,1372.6
584.858,1386.1
585.392,1459.8
585.927,1932.3
586.462,1758.3
586.996,1443.7
587.53,1411.4
588.065,1400.7
588.599,1392.2
589.133,1392.7
589.667,1398.6
590.201,1405.5
590.735,1409.7
591.268,1413.4
591.802,1414.0
592.335,1413.1
592.869,1411.0
593.402,1415.0
593.936,1415.1
594.469,1426.0
595.002,1424.4
595.535,1444.0
596.068,1436.8
596.601,1436.7
597.133,1454.2
597.666,1439.1
598.199,1466.5
598.731,1462.5
599.264,1470.1
599.796,1476.4
600.328,1461.4
600.86,1458.0
601.393,1464.6
601.925,1470.4
602.457,1481.4
602.988,1472.4
603.52,1472.2
604.052,1482.6
604.583,1475.9
605.115,1470.2
605.646,1470.0
606.178,1470.5
606.709,1471.1
607.24,1475.1
607.771,1477.3
608.302,1479.0
608.833,1503.0
609.364,1492.1
609.895,1487.9
610.426,1487.6
610.957,1495.9
611.487,1492.1
612.018,1496.1
612.548,1513.7
613.078,1518.8
613.609,1537.6
614.139,1537.1
614.669,1531.9
615.199,1530.9
615.729,1535.1
616.259,1528.7
616.789,1537.9
617.319,1547.8
617.849,1561.2
618.378,1568.4
618.908,1566.7
619.437,1562.2
619.967,1556.4
620.496,1562.9
621.025,1559.3
621.555,1565.6
622.084,1565.6
622.613,1586.7
623.142,1585.7
623.671,1594.4
624.2,1604.7
624.729,1623.4
625.258,1618.8
625.786,1619.7
626.315,1626.8
626.844,1624.4
627.372,1633.9
627.901,1656.5
628.429,1666.6
628.957,1688.5
629.486,1696.5
630.014,1709.4
630.542,1705.2
631.07,1752.9
631.598,1868.9
632.126,1867.3
632.654,1807.0
633.182,1794.7
633.71,1784.6
634.237,1758.0
634.765,1772.2
635.293,1775.6
635.82,1834.3
636.348,1936.9
636.875,1953.1
637.403,1848.1
637.93,1813.3
638.458,1822.6
638.985,1823.3
639.512,1836.3
640.039,1839.2
640.566,1841.3
641.093,1854.6
641.62,1867.2
642.147,1872.1
642.674,1877.9
643.201,1861.7
643.728,1863.6
644.255,1865.2
644.781,1876.9
645.308,1871.8
645.835,1879.9
646.361,1888.2
646.888,1893.2
647.414,1900.3
647.941,1912.2
648.467,1900.5
648.993,1888.4
649.52,1914.4
650.046,1906.0
650.572,1913.2
651.098,1920.1
651.625,1914.9
652.151,1919.8
652.677,1922.5
653.203,1919.0
653.729,1927.3
654.255,1927.3
654.78,1943.5
655.306,1921.6
655.832,1932.2
656.358,1933.2
656.884,1929.7
657.409,1934.3
657.935,1931.5
658.461,1942.2
658.986,1945.9
659.512,1941.6
660.037,1945.6
660.563,1939.6
661.088,1919.7
661.614,1920.4
662.139,1918.8
662.664,1923.9
663.058,1910.0

File: VLFR_06-PET_nobio_Raman_2c7260cc.csv
nm,Intensity
526.5,830.6
527.047,829.7
527.594,829.7
528.14,830.5
528.687,829.1
529.233,828.8
529.779,829.5
530.325,829.2
530.871,828.6
531.417,829.1
531.962,838.4
532.508,831.3
533.053,830.9
533.599,838.7
534.144,1981.1
534.689,1661.2
535.234,1350.5
535.778,1162.5
536.323,1041.2
536.867,998.7
537.412,975.3
537.956,973.2
538.5,978.0
539.044,976.8
539.588,995.0
540.132,995.2
540.675,958.0
541.219,950.7
541.762,945.5
542.305,946.1
542.848,945.2
543.391,944.0
543.934,955.3
544.477,948.2
545.02,950.9
545.562,954.1
546.105,955.3
546.647,956.9
547.189,959.3
547.731,962.8
548.273,965.8
548.815,966.6
549.356,967.5
549.898,976.2
550.439,985.9
550.981,991.1
551.522,982.4
552.063,982.5
552.604,992.4
553.145,1004.1
553.686,995.4
554.226,988.1
554.767,998.7
555.307,1010.0
555.848,1055.4
556.388,1059.8
556.928,1067.8
557.468,1200.5
558.008,1102.0
558.547,1096.7
559.087,1056.0
559.626,1028.2
560.166,1026.6
560.705,1032.6
561.244,1038.2
561.783,1045.7
562.322,1059.2
562.861,1074.0
563.4,1074.5
563.939,1063.5
564.477,1071.3
565.015,1122.5
565.554,1182.6
566.092,1181.5
566.63,1097.9
567.168,1084.3
567.706,1161.0
568.244,1097.9
568.781,1094.4
569.319,1100.1
569.857,1125.8
570.394,1177.7
570.931,1294.5
571.468,1399.2
572.005,1255.4
572.542,1155.0
573.079,1136.4
573.616,1140.0
574.153,1167.0
574.689,1152.1
575.226,1183.6
575.762,1162.0
576.298,1183.1
576.834,1204.9
577.371,1174.5
577.907,1169.6
578.442,1172.9
578.978,1173.3
579.514,1181.9
580.049,1190.9
580.585,1199.3
581.12,1208.6
581.656,1290.0
582.191,2417.6
582.726,1265.0
583.261,1220.2
583.796,1212.9
584.331,1233.9
584.865,1240.3
585.4,1340.1
585.935,1831.1
586.469,1594.6
587.004,1288.0
587.538,1252.7
588.072,1243.6
588.606,1245.0
589.14,1246.8
589.674,1238.3
590.208,1245.4
590.742,1240.5
591.275,1253.2
591.809,1251.1
592.342,1246.6
592.876,1243.9
593.409,1246.1
593.942,1249.6
594.476,1259.4
595.009,1267.0
595.542,1265.9
596.075,1266.5
596.607,1274.1
597.14,1275.5
597.673,1280.1
598.205,1279.7
598.738,1277.9
599.27,1282.6
599.803,1287.7
600.335,1278.9
600.867,1280.6
601.399,1275.6
601.931,1275.2
602.463,1283.9
602.995,1291.2
603.527,1285.8
604.058,1291.0
604.59,1279.3
605.122,1285.2
605.653,1284.2
606.184,1277.1
606.716,1274.8
607.247,1275.7
607.778,1285.0
608.309,1286.1
608.84,1290.2
609.371,1296.8
609.902,1295.3
610.433,1284.1
610.964,1295.2
611.494,1293.3
612.025,1286.6
612.556,1304.1
613.086,1317.2
613.616,1319.0
614.147,1309.3
614.677,1314.7
615.207,1320.1
615.737,1322.4
616.267,1319.0
616.797,1338.1
617.327,1334.3
617.857,1343.8
618.387,1341.5
618.917,1355.3
619.446,1343.0
619.976,1337.9
620.505,1343.3
621.035,1334.3
621.564,1337.0
622.093,1343.5
622.623,1361.1
623.152,1363.4
623.681,1361.8
624.21,1367.3
624.739,1385.4
625.268,1382.4
625.797,1383.1
626.326,1388.5
626.855,1398.2
627.383,1390.0
627.912,1403.9
628.441,1421.3
628.969,1443.3
629.498,1450.9
630.026,1451.1
630.554,1457.9
631.083,1503.7
631.611,1649.8
632.139,1632.8
632.667,1562.4
633.195,1540.5
633.724,1521.5
634.252,1501.4
634.779,1493.6
635.307,1507.3
635.835,1564.6
636.363,1703.0
636.891,1700.9
637.418,1562.4
637.946,1529.8
638.474,1526.3
639.001,1523.9
639.529,1533.5
640.056,1537.4
640.583,1544.7
641.111,1548.4
641.638,1554.7
642.165,1570.5
642.692,1564.9
643.22,1559.4
643.747,1550.8
644.274,1559.1
644.801,1556.3
645.328,1574.3
645.854,1567.2
646.381,1566.3
646.908,1591.9
647.435,1596.2
647.962,1601.2
648.488,1577.4
649.015,1594.4
649.542,1580.1
650.068,1596.8
650.595,1596.7
651.121,1595.7
651.648,1592.5
652.174,1586.8
652.7,1598.1
653.227,1610.0
653.753,1604.6
654.279,1610.8
654.805,1603.1
655.331,1611.2
655.858,1603.5
656.384,1613.0
656.91,1607.1
657.436,1611.7
657.962,1606.0
658.488,1620.3
659.013,1606.8
659.539,1607.7
660.065,1614.2
660.591,1617.4
661.117,1613.0
661.642,1591.6
662.168,1607.5
662.694,1606.0
663.088,1600.0

File: VLFR_06-PET_nobio_Raman_3b3a3576.csv
nm,Intensity
526.508,831.1
527.055,831.2
527.602,830.05
528.149,830.25
528.695,830.0
529.241,830.05
529.787,831.1
530.334,830.25
530.879,830.35
531.425,830.05
531.971,832.95
532.516,831.65
533.062,830.65
533.607,840.85
534.152,2164.8
534.697,1790.85
535.242,1437.0
535.786,1218.25
536.331,1080.3
536.876,1028.15
537.42,1008.2
537.964,994.8
538.508,1006.65
539.052,999.05
539.596,1018.45
540.14,1029.8
540.683,984.25
541.227,974.8
541.77,967.75
542.313,971.25
542.856,969.5
543.399,969.5
543.942,984.6
544.485,978.25
545.027,980.7
545.57,983.05
546.112,985.8
546.654,987.1
547.196,995.45
547.738,992.7
548.28,995.2
548.822,1000.45
549.363,1003.2
549.905,1007.0
550.446,1025.85
550.988,1033.3
551.529,1014.0
552.07,1022.05
552.611,1032.7
553.152,1051.2
553.692,1036.8
554.233,1032.85
554.773,1041.45
555.314,1054.5
555.854,1106.05
556.394,1120.0
556.934,1126.15
557.474,1275.2
558.014,1158.95
558.553,1150.1
559.093,1104.5
559.632,1080.5
560.172,1080.75
560.711,1086.2
561.25,1090.95
561.789,1095.85
562.328,1117.45
562.867,1133.4
563.406,1140.5
563.944,1128.55
564.483,1138.25
565.021,1191.55
565.559,1260.75
566.098,1259.5
566.636,1162.8
567.174,1152.0
567.711,1241.55
568.249,1170.1
568.787,1166.2
569.324,1176.15
569.862,1207.0
570.399,1255.15
570.936,1392.9
571.474,1520.35
572.011,1360.3
572.548,1238.55
573.084,1215.1
573.621,1218.85
574.158,1258.45
574.694,1234.95
575.231,1274.4
575.767,1250.45
576.303,1282.4
576.84,1298.9
577.376,1270.85
577.912,1256.45
578.447,1263.15
578.983,1270.55
579.519,1277.65
580.054,1276.2
580.59,1288.15
581.125,1308.35
581.661,1399.85
582.196,2688.65
582.731,1376.05
583.266,1325.85
583.801,1319.9
584.336,1336.8
584.87,1352.7
585.405,1466.95
585.94,2041.1
586.474,1763.0
587.008,1412.0
587.543,1367.6
588.077,1352.55
588.611,1354.2
589.145,1352.75
589.679,1354.95
590.213,1359.85
590.747,1362.55
591.28,1367.0
591.814,1372.95
592.347,1378.6
592.881,1372.25
593.414,1366.85
593.947,1375.7
594.48,1379.9
595.014,1390.7
595.547,1393.8
596.079,1391.35
596.612,1402.0
597.145,1401.8
597.678,1399.9
598.21,1409.05
598.743,1413.4
599.275,1420.65
599.807,1412.55
600.34,1411.6
600.872,1413.75
601.404,1415.95
601.936,1415.3
602.468,1417.9
603.0,1422.4
603.532,1426.0
604.063,1423.8
604.595,1428.15
605.126,1422.6
605.658,1413.7
606.189,1414.3
606.721,1417.3
607.252,1419.6
607.783,1422.6
608.314,1439.45
608.845,1434.25
609.376,1434.05
609.907,1437.2
610.438,1430.6
610.968,1432.75
611.499,1440.45
612.03,1437.35
612.56,1451.7
613.091,1468.0
613.621,1472.3
614.151,1468.8
614.681,1474.9
615.212,1478.95
615.742,1474.6
616.272,1476.55
616.802,1481.9
617.332,1491.2
617.861,1503.15
618.391,1500.65
618.921,1504.35
619.45,1503.9
619.98,1501.0
620.509,1497.85
621.039,1501.8
621.568,1503.2
622.097,1512.2
622.627,1528.95
623.156,1527.7
623.685,1532.8
624.214,1548.25
624.743,1565.55
625.272,1555.95
625.801,1561.8
626.33,1561.6
626.858,1571.45
627.387,1571.25
627.916,1585.8
628.444,1606.65
628.973,1639.9
629.501,1642.6
630.029,1636.2
630.558,1647.0
631.086,1716.85
631.614,1866.9
632.142,1857.8
632.67,1775.25
633.198,1755.1
633.726,1728.15
634.254,1713.2
634.782,1708.4
635.31,1724.1
635.838,1788.85
636.365,1941.25
636.893,1948.9
637.421,1787.25
637.948,1756.15
638.476,1750.8
639.003,1758.2
639.531,1772.1
640.058,1765.45
640.585,1771.85
641.113,1783.9
641.64,1797.0
642.167,1809.75
642.694,1812.65
643.221,1799.4
643.748,1801.8
644.275,1800.6
644.802,1807.0
645.329,1816.5
645.856,1818.5
646.382,1818.3
646.909,1835.1
647.436,1848.1
647.962,1845.5
648.489,1838.35
649.016,1844.8
649.542,1838.45
650.069,1845.1
650.595,1836.75
651.121,1843.55
651.648,1850.65
652.174,1861.05
652.7,1872.55
653.227,1869.5
653.753,1874.4
654.279,1871.2
654.805,1866.3
655.331,1872.55
655.857,1872.95
656.383,1874.45
656.909,1880.3
657.435,1883.95
657.961,1877.55
658.487,1891.15
659.013,1890.4
659.538,1894.65
660.064,1893.4
660.59,1879.0
661.116,1876.7
661.641,1876.85
662.167,1863.75
662.692,1873.1
663.087,1863.55

File: VLFR_06-PET_nobio_Raman_3bd960f5.csv
nm,Intensity
526.5,825.7
527.047,827.3
527.594,825.8
528.14,825.9
528.687,826.7
529.233,825.3
529.779,826.2
530.325,826.5
530.871,826.5
531.417,825.5
531.962,832.2
532.508,825.7
533.053,824.5
533.599,830.5
534.144,1184.9
534.689,1101.5
535.234,1011.3
535.778,959.7
536.323,928.1
536.867,914.8
537.412,909.8
537.956,910.1
538.5,912.3
539.044,909.8
539.588,918.1
540.132,922.5
540.675,911.0
541.219,911.6
541.762,909.5
542.305,912.8
542.848,915.7
543.391,919.2
543.934,918.7
544.477,919.4
545.02,921.2
545.562,926.7
546.105,927.3
546.647,926.9
547.189,933.9
547.731,933.0
548.273,936.0
548.815,940.5
549.356,941.0
549.898,943.2
550.439,951.9
550.981,955.9
551.522,951.6
552.063,954.6
552.604,956.6
553.145,968.6
553.686,963.2
554.226,964.7
554.767,967.0
555.307,975.2
555.848,983.9
556.388,986.8
556.928,994.8
557.468,1037.2
558.008,1010.0
558.547,1008.9
559.087,998.3
559.626,992.6
560.166,995.6
560.705,1000.8
561.244,1003.2
561.783,1005.3
562.322,1016.7
562.861,1017.9
563.4,1021.0
563.939,1023.9
564.477,1030.0
565.015,1043.3
565.554,1058.1
566.092,1073.2
566.63,1045.9
567.168,1040.6
567.706,1064.6
568.244,1051.9
568.781,1047.3
569.319,1057.4
569.857,1068.1
570.394,1079.8
570.931,1122.6
571.468,1155.6
572.005,1119.2
572.542,1087.9
573.079,1087.3
573.616,1091.9
574.153,1098.5
574.689,1095.8
575.226,1098.7
575.762,1101.4
576.298,1110.7
576.834,1116.2
577.371,1107.9
577.907,1112.8
578.442,1113.5
578.978,1122.5
579.514,1122.8
580.049,1127.1
580.585,1129.3
581.12,1137.1
581.656,1166.1
582.191,1485.3
582.726,1163.3
583.261,1153.4
583.796,1154.2
584.331,1159.8
584.865,1168.3
585.4,1188.2
585.935,1332.2
586.469,1284.2
587.004,1188.8
587.538,1176.2
588.072,1173.4
588.606,1177.8
589.14,1172.3
589.674,1176.9
590.208,1177.8
590.742,1183.9
591.275,1183.3
591.809,1183.3
592.342,1183.1
592.876,1186.1
593.409,1191.3
593.942,1191.2
594.476,1194.3
595.009,1199.2
595.542,1192.6
596.075,1197.1
596.607,1200.7
597.14,1205.4
597.673,1205.4
598.205,1212.3
598.738,1215.0
599.27,1216.6
599.803,1213.0
600.335,1214.1
600.867,1218.3
601.399,1213.5
601.931,1208.3
602.463,1223.9
602.995,1214.3
603.527,1216.9
604.058,1210.9
604.59,1213.2
605.122,1213.0
605.653,1211.5
606.184,1209.2
606.716,1209.8
607.247,1211.0
607.778,1211.1
608.309,1213.0
608.84,1221.7
609.371,1216.3
609.902,1216.9
610.433,1214.6
610.964,1211.0
611.494,1218.2
612.025,1228.6
612.556,1229.9
613.086,1234.3
613.616,1238.6
614.147,1241.5
614.677,1234.7
615.207,1239.4
615.737,1237.3
616.267,1240.5
616.797,1250.0
617.327,1238.1
617.857,1251.0
618.387,1251.8
618.917,1246.9
619.446,1252.7
619.976,1253.6
620.505,1243.4
621.035,1248.7
621.564,1248.1
622.093,1257.2
622.623,1259.7
623.152,1259.9
623.681,1271.2
624.21,1276.9
624.739,1277.3
625.268,1280.2
625.797,1288.5
626.326,1281.3
626.855,1284.3
627.383,1286.9
627.912,1290.8
628.441,1297.2
628.969,1313.8
629.498,1316.7
630.026,1310.3
630.554,1310.0
631.083,1339.1
631.611,1380.1
632.139,1382.1
632.667,1368.0
633.195,1367.8
633.724,1342.3
634.252,1343.9
634.779,1344.5
635.307,1347.4
635.835,1377.4
636.363,1416.8
636.891,1422.6
637.418,1383.1
637.946,1369.1
638.474,1384.9
639.001,1382.2
639.529,1382.2
640.056,1392.9
640.583,1383.8
641.111,1398.5
641.638,1387.8
642.165,1404.4
642.692,1408.6
643.22,1401.7
643.747,1401.2
644.274,1398.1
644.801,1406.7
645.328,1398.0
645.854,1405.8
646.381,1398.5
646.908,1423.6
647.435,1418.6
647.962,1429.2
648.488,1415.5
649.015,1421.6
649.542,1407.5
650.068,1414.1
650.595,1422.2
651.121,1414.5
651.648,1416.6
652.174,1431.5
652.7,1423.3
653.227,1419.0
653.753,1418.7
654.279,1421.2
654.805,1420.4
655.331,1421.7
655.858,1428.4
656.384,1431.0
656.91,1433.3
657.436,1428.4
657.962,1424.5
658.488,1428.9
659.013,1429.9
659.539,1418.7
660.065,1434.4
660.591,1420.1
661.117,1429.0
661.642,1412.7
662.168,1416.1
662.694,1423.1
663.088,1411.3

File: VLFR_06-PET_nobio_Raman_3d2f4cbd.csv
nm,Intensity
526.5,829.2
527.047,827.9
527.594,828.7
528.14,827.6
528.687,827.8
529.233,827.9
529.779,826.8
530.325,828.5
530.871,829.2
531.417,829.0
531.962,836.2
532.508,830.0
533.053,829.6
533.599,833.9
534.144,1519.2
534.689,1320.0
535.234,1141.6
535.778,1031.1
536.323,964.3
536.867,939.0
537.412,931.2
537.956,925.3
538.5,929.1
539.044,927.9
539.588,937.0
540.132,941.6
540.675,917.9
541.219,912.1
541.762,913.9
542.305,910.0
542.848,915.1
543.391,912.7
543.934,919.6
544.477,918.7
545.02,917.8
545.562,922.3
546.105,925.7
546.647,925.6
547.189,927.5
547.731,928.3
548.273,932.7
548.815,933.7
549.356,931.3
549.898,937.5
550.439,948.7
550.981,945.4
551.522,939.2
552.063,947.9
552.604,952.5
553.145,963.2
553.686,958.3
554.226,955.2
554.767,954.9
555.307,962.9
555.848,988.5
556.388,994.8
556.928,1004.1
557.468,1077.2
558.008,1017.2
558.547,1012.3
559.087,992.0
559.626,977.9
560.166,976.3
560.705,983.5
561.244,984.4
561.783,982.5
562.322,1002.7
562.861,1000.4
563.4,1015.2
563.939,1007.4
564.477,1017.0
565.015,1040.5
565.554,1077.2
566.092,1076.0
566.63,1025.6
567.168,1018.7
567.706,1062.6
568.244,1029.7
568.781,1033.2
569.319,1038.9
569.857,1049.2
570.394,1075.0
570.931,1157.2
571.468,1210.5
572.005,1135.0
572.542,1074.1
573.079,1061.8
573.616,1068.4
574.153,1084.3
574.689,1079.5
575.226,1088.0
575.762,1075.9
576.298,1093.4
576.834,1109.0
577.371,1088.7
577.907,1087.7
578.442,1096.5
578.978,1087.6
579.514,1091.0
580.049,1092.4
580.585,1101.1
581.12,1119.6
581.656,1168.6
582.191,1831.6
582.726,1149.5
583.261,1122.2
583.796,1123.5
584.331,1130.8
584.865,1140.0
585.4,1197.0
585.935,1489.8
586.469,1349.3
587.004,1174.7
587.538,1150.4
588.072,1142.8
588.606,1143.4
589.14,1142.0
589.674,1136.0
590.208,1142.2
590.742,1142.3
591.275,1148.3
591.809,1152.6
592.342,1150.4
592.876,1142.4
593.409,1153.2
593.942,1147.3
594.476,1155.0
595.009,1160.1
595.542,1166.2
596.075,1165.8
596.607,1171.6
597.14,1165.4
597.673,1170.8
598.205,1172.4
598.738,1173.1
599.27,1180.7
599.803,1180.1
600.335,1177.8
600.867,1180.1
601.399,1176.8
601.931,1177.5
602.463,1173.6
602.995,1178.4
603.527,1188.4
604.058,1185.7
604.59,1186.7
605.122,1179.8
605.653,1173.2
606.184,1174.2
606.716,1170.5
607.247,1176.5
607.778,1181.0
608.309,1174.0
608.84,1188.2
609.371,1193.9
609.902,1183.9
610.433,1187.6
610.964,1183.7
611.494,1191.1
612.025,1197.5
612.556,1196.1
613.086,1198.1
613.616,1205.3
614.147,1201.3
614.677,1213.4
615.207,1203.5
615.737,1210.2
616.267,1206.7
616.797,1206.8
617.327,1223.4
617.857,1223.2
618.387,1226.3
618.917,1228.8
619.446,1221.8
619.976,1224.5
620.505,1224.9
621.035,1222.7
621.564,1227.8
622.093,1230.2
622.623,1236.7
623.152,1239.5
623.681,1246.2
624.21,1248.2
624.739,1259.8
625.268,1256.0
625.797,1249.9
626.326,1257.8
626.855,1259.7
627.383,1260.8
627.912,1267.4
628.441,1285.3
628.969,1304.8
629.498,1307.7
630.026,1298.7
630.554,1308.6
631.083,1352.3
631.611,1439.1
632.139,1437.9
632.667,1377.2
633.195,1373.2
633.724,1350.6
634.252,1349.0
634.779,1342.7
635.307,1353.0
635.835,1396.2
636.363,1478.3
636.891,1469.0
637.418,1392.7
637.946,1376.1
638.474,1361.7
639.001,1376.3
639.529,1376.5
640.056,1367.5
640.583,1389.5
641.111,1388.8
641.638,1401.2
642.165,1405.6
642.692,1398.4
643.22,1399.0
643.747,1404.7
644.274,1396.5
644.801,1410.5
645.328,1402.1
645.854,1409.4
646.381,1406.0
646.908,1418.5
647.435,1427.4
647.962,1423.0
648.488,1427.5
649.015,1423.1
649.542,1419.0
650.068,1421.1
650.595,1428.2
651.121,1426.6
651.648,1426.1
652.174,1434.0
652.7,1440.2
653.227,1438.0
653.753,1442.3
654.279,1438.8
654.805,1446.2
655.331,1446.7
655.858,1439.2
656.384,1445.4
656.91,1457.6
657.436,1450.2
657.962,1451.1
658.488,1460.5
659.013,1456.5
659.539,1450.0
660.065,1457.5
660.591,1454.5
661.117,1452.7
661.642,1449.6
662.168,1444.2
662.694,1437.4
663.088,1441.3

File: VLFR_06-PET_nobio_Raman_4a7545f7.csv
nm,Intensity
526.5,829.3
527.047,828.6
527.594,829.2
528.14,829.6
528.687,828.8
529.233,829.3
529.779,830.1
530.325,828.4
530.871,828.7
531.417,829.8
531.962,833.0
532.508,829.0
533.053,826.7
533.599,830.4
534.144,1080.9
534.689,1032.1
535.234,962.1
535.778,930.8
536.323,912.5
536.867,902.0
537.412,901.3
537.956,900.4
538.5,900.6
539.044,903.2
539.588,908.1
540.132,907.7
540.675,905.3
541.219,901.1
541.762,905.9
542.305,903.8
542.848,906.2
543.391,910.6
543.934,911.6
544.477,911.8
545.02,915.9
545.562,915.5
546.105,917.0
546.647,922.7
547.189,923.1
547.731,925.1
548.273,929.1
548.815,927.5
549.356,933.4
549.898,934.8
550.439,939.3
550.981,945.6
551.522,941.1
552.063,943.4
552.604,946.5
553.145,955.0
553.686,950.9
554.226,952.2
554.767,952.4
555.307,962.3
555.848,969.0
556.388,973.0
556.928,979.7
557.468,1003.7
558.008,987.6
558.547,992.9
559.087,979.8
559.626,985.6
560.166,976.8
560.705,988.3
561.244,988.4
561.783,991.6
562.322,994.8
562.861,999.8
563.4,1003.6
563.939,1006.1
564.477,1004.8
565.015,1019.5
565.554,1035.1
566.092,1038.6
566.63,1024.9
567.168,1015.4
567.706,1046.5
568.244,1024.7
568.781,1030.8
569.319,1037.0
569.857,1041.4
570.394,1059.2
570.931,1082.3
571.468,1099.2
572.005,1078.8
572.542,1060.6
573.079,1058.8
573.616,1064.0
574.153,1070.3
574.689,1072.9
575.226,1077.9
575.762,1077.8
576.298,1086.6
576.834,1089.0
577.371,1087.2
577.907,1084.8
578.442,1089.5
578.978,1093.4
579.514,1095.4
580.049,1100.0
580.585,1102.2
581.12,1102.6
581.656,1123.2
582.191,1330.1
582.726,1123.0
583.261,1117.1
583.796,1120.1
584.331,1120.6
584.865,1130.8
585.4,1149.0
585.935,1243.8
586.469,1198.9
587.004,1144.4
587.538,1139.2
588.072,1145.3
588.606,1135.0
589.14,1137.5
589.674,1148.2
590.208,1142.0
590.742,1149.4
591.275,1150.3
591.809,1148.0
592.342,1146.2
592.876,1148.4
593.409,1151.1
593.942,1163.7
594.476,1157.6
595.009,1154.7
595.542,1157.3
596.075,1164.3
596.607,1158.1
597.14,1164.0
597.673,1164.6
598.205,1168.7
598.738,1180.5
599.27,1164.0
599.803,1171.1
600.335,1172.6
600.867,1167.7
601.399,1172.4
601.931,1173.3
602.463,1175.5
602.995,1180.4
603.527,1174.7
604.058,1179.7
604.59,1174.3
605.122,1174.5
605.653,1165.5
606.184,1171.3
606.716,1163.2
607.247,1171.8
607.778,1170.3
608.309,1171.0
608.84,1178.2
609.371,1172.6
609.902,1176.8
610.433,1176.7
610.964,1179.5
611.494,1168.0
612.025,1182.7
612.556,1190.0
613.086,1187.0
613.616,1195.5
614.147,1188.3
614.677,1186.1
615.207,1194.5
615.737,1194.7
616.267,1191.0
616.797,1191.4
617.327,1200.4
617.857,1203.1
618.387,1201.0
618.917,1203.8
619.446,1209.0
619.976,1206.1
620.505,1194.4
621.035,1205.3
621.564,1207.3
622.093,1205.5
622.623,1208.0
623.152,1215.9
623.681,1225.5
624.21,1217.9
624.739,1228.6
625.268,1228.0
625.797,1231.5
626.326,1233.6
626.855,1230.9
627.383,1227.5
627.912,1234.6
628.441,1247.5
628.969,1249.8
629.498,1258.8
630.026,1251.9
630.554,1261.0
631.083,1274.7
631.611,1292.9
632.139,1294.9
632.667,1283.8
633.195,1283.5
633.724,1287.5
634.252,1278.5
634.779,1280.3
635.307,1292.4
635.835,1304.6
636.363,1326.4
636.891,1336.1
637.418,1313.0
637.946,1308.2
638.474,1298.1
639.001,1303.1
639.529,1308.9
640.056,1303.2
640.583,1318.6
641.111,1320.9
641.638,1325.4
642.165,1322.7
642.692,1329.6
643.22,1323.3
643.747,1320.4
644.274,1322.2
644.801,1317.9
645.328,1319.5
645.854,1337.7
646.381,1328.0
646.908,1335.6
647.435,1332.1
647.962,1341.7
648.488,1339.3
649.015,1328.4
649.542,1333.5
650.068,1336.9
650.595,1333.6
651.121,1334.5
651.648,1333.4
652.174,1340.3
652.7,1334.1
653.227,1345.8
653.753,1340.6
654.279,1340.0
654.805,1339.0
655.331,1345.7
655.858,1329.6
656.384,1330.4
656.91,1340.5
657.436,1337.7
657.962,1334.6
658.488,1338.2
659.013,1341.1
659.539,1346.3
660.065,1346.3
660.591,1336.6
661.117,1340.1
661.642,1341.3
662.168,1326.7
662.694,1331.5
663.088,1320.5