Folder: MPX_specDB/spectra (part 102)

File: VLFR_07-PET_bio_Raman_322812da.csv
nm,Intensity
791.588,10511.0
792.685,10159.2
793.781,9821.9
794.878,9646.2
795.975,9616.8
797.071,9504.2
798.168,9518.3
799.264,9438.7
800.36,9340.2
801.456,9512.8
802.552,9434.4
803.648,9271.2
804.744,9192.9
805.84,9193.3
806.936,9061.9
808.031,9037.6
809.127,8944.8
810.222,8942.1
811.317,8908.3
812.412,8751.1
813.507,8791.1
814.602,8613.8
815.697,8533.8
816.792,8486.0
817.887,8361.2
818.981,8389.2
820.076,8292.5
821.17,8235.5
822.265,8112.0
823.359,8013.7
824.453,7985.5
825.547,8002.9
826.641,7858.8
827.735,7753.7
828.828,7708.4
829.922,7646.5
831.016,7613.6
832.109,7505.9
833.202,7410.0
834.295,7393.2
835.388,7297.6
836.481,7314.7
837.574,7296.2
838.667,7184.5
839.76,7199.5
840.852,7320.1
841.945,7270.6
843.037,7148.6
844.129,7072.4
845.221,6962.6
846.314,6852.3
847.405,6870.2
848.497,6792.0
849.589,6750.8
850.68,6747.4
851.772,6759.6
852.863,6690.9
853.955,6631.0
855.046,6588.7
856.137,6596.9
857.228,6544.1
858.318,6520.7
859.409,6561.4
860.5,6561.1
861.59,6435.9
862.681,6448.3
863.771,6357.0
864.861,6407.1
865.951,6267.8
867.041,6225.2
868.131,6174.2
869.22,6191.3
870.31,6187.1
871.399,6231.9
872.488,6286.3
873.578,6273.0
874.667,6136.2
875.756,6116.5
876.845,6004.1
877.933,5995.0
879.022,5898.0
880.11,5892.9
881.199,5850.4
882.287,5855.9
883.375,5825.3
884.463,5791.2
885.551,5731.7
886.639,5767.0
887.726,5692.3
888.814,5644.0
889.901,5651.5
890.988,5587.9
892.075,5581.7
893.162,5500.6
894.249,5504.0
895.336,5455.0
896.423,5438.0
897.509,5524.1
898.595,5682.4
899.682,5480.3
900.768,5316.4
901.854,5294.9
902.94,5210.7
904.025,5240.0
905.111,5182.5
906.196,5205.7
907.282,5334.4
908.367,5346.8
909.452,5169.1
910.537,5040.8
911.622,5003.6
912.706,4949.3
913.791,4941.8
914.875,4906.9
915.959,4837.9
917.044,4837.6
918.128,4815.9
919.211,4814.2
920.295,4742.7
921.379,4728.7
922.462,4695.4
923.546,4711.7
924.629,4630.8
925.712,4633.0
926.795,4592.7
927.877,4566.7
928.96,4519.2
930.043,4517.7
931.125,4484.3
932.207,4463.5
933.289,4431.2
934.371,4419.7
935.453,4400.5
936.535,4383.3
937.616,4346.3
938.697,4330.8
939.779,4324.3
940.86,4290.1
941.941,4286.7
943.022,4254.1
944.102,4250.5
945.183,4235.6
946.263,4209.9
947.343,4217.0
948.423,4189.0
949.503,4176.3
950.583,4159.4
951.663,4142.1
952.742,4134.4
953.822,4106.0
954.901,4109.1
955.98,4082.2
957.059,4081.3
958.137,4072.8
959.216,4067.6
960.294,4043.5
961.373,4034.1
962.451,4029.9
963.529,4013.7
964.607,4011.2
965.684,3999.0
966.762,3986.9
967.839,3985.4
968.917,3986.2
969.994,3964.0
971.071,3959.6
972.147,3955.1
973.224,3951.2
974.3,3935.3
975.377,3929.7
976.453,3926.6
977.529,3920.0
978.605,3915.4
979.68,3907.6
980.756,3898.6
981.831,3900.4
982.907,3895.0
983.982,3884.4
985.057,3878.9
986.131,3879.5
987.206,3875.0
988.28,3869.1
989.355,3866.4
990.429,3861.8
991.503,3856.0
992.576,3853.9
993.65,3850.0
994.723,3842.8
995.797,3841.7
996.87,3837.0
997.943,3831.6
999.016,3831.5
1000.09,3828.6
1001.16,3827.3
1002.23,3818.7
1003.31,3817.6
1004.38,3814.7
1005.45,3810.5
1006.52,3806.1
1007.59,3808.5
1008.66,3801.2
1009.73,3805.4
1010.81,3799.4
1011.88,3799.3
1012.95,3793.8
1014.02,3793.8
1015.09,3793.5
1016.16,3794.1
1017.23,3788.6
1018.3,3787.6
1019.37,3786.8
1020.44,3787.6
1021.51,3784.8
1022.58,3786.2
1023.64,3781.3
1024.71,3782.3
1025.78,3776.4
1026.85,3773.6
1027.92,3772.4
1028.99,3771.5
1030.05,3769.4
1031.12,3769.4
1032.19,3767.6
1033.26,3767.5
1034.32,3768.8
1035.39,3768.7
1036.46,3766.8
1037.52,3766.5
1038.59,3763.5
1039.66,3761.8
1040.72,3761.8
1041.79,3759.8
1042.86,3757.9
1043.92,3761.0
1044.99,3758.9
1046.05,3758.5
1047.12,3757.3
1048.18,3758.2
1049.25,3756.6
1050.31,3754.0
1051.37,3755.2
1052.44,3756.0
1053.5,3755.3
1054.57,3754.1
1055.63,3754.7
1056.69,3753.8
1057.76,3754.3
1058.82,3754.1
1059.88,3752.6
1060.95,3753.7
1062.01,3754.9
1063.07,3752.5
1064.13,3753.9
1065.19,3752.1
1066.26,3752.5
1067.32,3752.9
1068.11,3750.2

File: VLFR_07-PET_bio_Raman_733757e6.csv
nm,Intensity
791.75,4907.35
792.846,4875.55
793.942,4885.2
795.037,4882.55
796.133,4843.65
797.228,4874.5
798.324,4883.1
799.419,4891.65
800.514,4865.05
801.61,4874.25
802.705,4840.35
803.8,4842.75
804.894,4842.9
805.989,4840.3
807.084,4827.5
808.178,4819.95
809.273,4792.75
810.367,4795.35
811.461,4800.4
812.556,4785.5
813.65,4764.0
814.744,4721.45
815.837,4730.0
816.931,4721.7
818.025,4687.4
819.118,4719.8
820.212,4713.3
821.305,4721.8
822.398,4676.5
823.491,4659.4
824.585,4665.2
825.677,4669.05
826.77,4679.05
827.863,4637.45
828.956,4604.45
830.048,4627.75
831.14,4626.55
832.233,4592.35
833.325,4589.35
834.417,4597.95
835.509,4569.15
836.601,4591.35
837.692,4573.75
838.784,4569.4
839.876,4532.4
840.967,4551.65
842.058,4538.85
843.149,4526.1
844.24,4528.6
845.331,4515.4
846.422,4498.5
847.513,4488.2
848.604,4483.5
849.694,4453.5
850.784,4463.9
851.875,4455.65
852.965,4442.35
854.055,4426.85
855.145,4425.35
856.235,4432.5
857.324,4429.5
858.414,4429.8
859.503,4409.3
860.593,4400.3
861.682,4405.4
862.771,4397.4
863.86,4383.7
864.949,4378.0
866.038,4355.8
867.126,4360.3
868.215,4353.85
869.303,4347.55
870.391,4364.0
871.479,4342.7
872.567,4344.5
873.655,4324.85
874.743,4323.55
875.831,4307.15
876.918,4308.9
878.006,4301.35
879.093,4282.1
880.18,4279.05
881.267,4265.0
882.354,4254.4
883.441,4258.35
884.527,4246.45
885.614,4246.8
886.7,4229.0
887.786,4237.4
888.872,4209.5
889.958,4209.45
891.044,4200.65
892.13,4183.6
893.216,4174.4
894.301,4157.75
895.386,4140.95
896.472,4141.3
897.557,4137.3
898.642,4131.35
899.726,4112.75
900.811,4104.5
901.896,4091.5
902.98,4098.55
904.064,4092.6
905.148,4075.35
906.232,4069.05
907.316,4070.3
908.4,4054.55
909.484,4051.8
910.567,4036.85
911.65,4030.8
912.734,4024.4
913.817,4015.75
914.9,4003.55
915.982,3997.2
917.065,3998.5
918.147,3988.9
919.23,3981.85
920.312,3981.55
921.394,3978.2
922.476,3967.7
923.558,3958.75
924.639,3951.65
925.721,3954.5
926.802,3937.4
927.884,3934.55
928.965,3918.85
930.046,3913.35
931.126,3904.7
932.207,3898.9
933.288,3904.75
934.368,3888.55
935.448,3883.0
936.528,3876.85
937.608,3875.95
938.688,3879.25
939.767,3876.9
940.847,3870.55
941.926,3867.0
943.005,3855.3
944.084,3855.7
945.163,3849.6
946.242,3846.85
947.321,3846.4
948.399,3840.85
949.477,3840.45
950.556,3836.05
951.634,3831.4
952.711,3824.6
953.789,3826.15
954.867,3823.3
955.944,3820.1
957.021,3819.0
958.098,3813.2
959.175,3809.65
960.252,3810.25
961.328,3808.35
962.405,3807.75
963.481,3803.25
964.557,3802.9
965.633,3798.35
966.709,3797.2
967.785,3798.1
968.86,3799.15
969.936,3796.55
971.011,3791.75
972.086,3793.95
973.161,3789.45
974.235,3785.95
975.31,3784.6
976.384,3783.35
977.459,3779.75
978.533,3781.0
979.607,3777.6
980.68,3778.7
981.754,3777.15
982.827,3775.7
983.901,3772.5
984.974,3774.15
986.047,3774.55
987.119,3773.2
988.192,3769.5
989.264,3769.15
990.337,3766.45
991.409,3765.7
992.481,3761.4
993.553,3763.95
994.624,3763.3
995.696,3760.7
996.767,3762.2
997.838,3759.5
998.909,3759.65
999.98,3759.15
1001.05,3758.0
1002.12,3756.05
1003.19,3755.85
1004.26,3752.9
1005.33,3752.45
1006.4,3752.55
1007.47,3750.15
1008.54,3752.0
1009.61,3747.45
1010.68,3750.45
1011.75,3748.0
1012.82,3748.15
1013.88,3747.45
1014.95,3746.0
1016.02,3746.0
1017.09,3745.8
1018.16,3742.05
1019.22,3746.2
1020.29,3743.6
1021.36,3744.65
1022.43,3740.7
1023.49,3741.1
1024.56,3740.75
1025.63,3741.2
1026.69,3738.35
1027.76,3737.75
1028.83,3737.85
1029.89,3738.45
1030.96,3737.0
1032.02,3738.2
1033.09,3738.95
1034.15,3737.1
1035.22,3738.0
1036.28,3735.4
1037.35,3737.25
1038.41,3736.15
1039.48,3737.6
1040.54,3736.25
1041.6,3735.85
1042.67,3735.75
1043.73,3735.7
1044.79,3734.65
1045.86,3733.2
1046.92,3734.25
1047.98,3736.15
1049.05,3734.1
1050.11,3733.25
1051.17,3733.8
1052.23,3733.05
1053.29,3734.15
1054.36,3732.2
1055.42,3733.6
1056.48,3733.4
1057.54,3733.7
1058.6,3731.95
1059.66,3732.45
1060.72,3732.6
1061.78,3732.55
1062.84,3733.6
1063.9,3732.8
1064.96,3731.15
1066.02,3731.0
1067.08,3732.25
1067.88,3730.75

File: VLFR_07-PET_bio_Raman_1147376e.csv
nm,Intensity
791.377,10964.8
792.477,10159.7
793.576,9779.2
794.676,9509.1
795.775,9579.2
796.874,9417.1
797.973,9420.2
799.072,9401.1
800.171,9434.0
801.27,9426.8
802.368,9211.7
803.467,9077.7
804.565,9166.6
805.664,8844.6
806.762,8891.1
807.86,8785.1
808.958,8754.4
810.056,8544.6
811.153,8655.3
812.251,8492.5
813.349,8444.5
814.446,8282.1
815.543,8341.7
816.64,8240.7
817.737,8134.4
818.834,8078.7
819.931,7942.9
821.028,7944.0
822.125,7878.4
823.221,7741.7
824.317,7654.4
825.414,7825.8
826.51,7659.2
827.606,7528.0
828.702,7455.9
829.797,7466.5
830.893,7472.3
831.988,7220.7
833.084,7206.7
834.179,7129.4
835.274,7058.6
836.369,7060.1
837.464,7136.8
838.559,7097.8
839.654,7033.3
840.748,7081.3
841.843,7136.2
842.937,6953.2
844.031,6748.8
845.125,6722.5
846.219,6635.6
847.313,6609.1
848.407,6494.6
849.5,6530.9
850.593,6483.5
851.687,6489.4
852.78,6450.2
853.873,6433.5
854.966,6360.0
856.059,6258.7
857.151,6291.2
858.244,6356.5
859.336,6319.7
860.428,6353.9
861.52,6256.6
862.612,6097.8
863.704,6187.3
864.796,6159.0
865.888,6044.4
866.979,5972.6
868.07,5950.5
869.162,5955.8
870.253,6015.7
871.344,6073.2
872.434,6188.9
873.525,6132.7
874.615,5984.0
875.706,5912.2
876.796,5801.6
877.886,5729.1
878.976,5735.0
880.066,5735.5
881.156,5670.1
882.245,5667.2
883.335,5696.2
884.424,5584.0
885.513,5654.4
886.602,5510.7
887.691,5537.0
888.78,5434.8
889.868,5471.2
890.957,5428.6
892.045,5413.8
893.133,5406.7
894.221,5292.5
895.309,5284.5
896.397,5277.2
897.484,5447.4
898.571,5808.8
899.659,5484.4
900.746,5172.5
901.833,5112.5
902.92,5126.7
904.006,5059.8
905.093,5076.2
906.179,5136.6
907.266,5382.4
908.352,5362.5
909.438,5136.5
910.523,4990.4
911.609,4860.7
912.695,4849.0
913.78,4845.3
914.865,4813.9
915.95,4733.2
917.035,4755.8
918.12,4705.8
919.204,4683.7
920.289,4660.2
921.373,4644.9
922.457,4608.9
923.541,4592.9
924.625,4581.3
925.709,4535.1
926.792,4541.6
927.876,4492.5
928.959,4488.5
930.042,4461.4
931.125,4437.9
932.208,4407.6
933.29,4393.9
934.373,4383.0
935.455,4357.3
936.537,4346.7
937.619,4319.0
938.701,4322.5
939.782,4288.5
940.864,4284.0
941.945,4257.1
943.026,4256.3
944.107,4223.6
945.188,4224.7
946.269,4201.7
947.349,4189.5
948.43,4186.4
949.51,4165.2
950.59,4163.2
951.67,4142.3
952.75,4124.2
953.829,4118.3
954.909,4092.6
955.988,4099.8
957.067,4095.2
958.146,4071.6
959.224,4064.5
960.303,4054.2
961.381,4046.6
962.459,4041.9
963.537,4023.9
964.615,4011.5
965.693,4010.3
966.771,4000.0
967.848,3993.6
968.925,3989.7
970.002,3979.3
971.079,3974.1
972.156,3966.1
973.232,3956.4
974.309,3954.6
975.385,3956.5
976.461,3943.2
977.537,3932.2
978.612,3933.9
979.688,3915.5
980.763,3925.5
981.838,3917.5
982.913,3908.8
983.988,3904.3
985.063,3903.2
986.137,3894.4
987.211,3898.0
988.285,3887.6
989.359,3885.9
990.433,3877.4
991.506,3873.9
992.58,3869.7
993.653,3868.2
994.726,3868.2
995.799,3865.3
996.872,3854.0
997.944,3855.6
999.016,3850.7
1000.09,3847.8
1001.16,3847.2
1002.23,3841.0
1003.3,3836.9
1004.38,3837.3
1005.45,3834.0
1006.52,3831.6
1007.59,3831.1
1008.66,3830.1
1009.73,3824.2
1010.8,3824.4
1011.87,3822.8
1012.94,3817.9
1014.01,3814.6
1015.08,3818.1
1016.15,3814.1
1017.22,3812.1
1018.29,3816.4
1019.36,3810.7
1020.42,3810.9
1021.49,3813.3
1022.56,3814.9
1023.63,3812.5
1024.7,3810.5
1025.76,3804.8
1026.83,3802.7
1027.9,3799.7
1028.97,3797.2
1030.03,3796.6
1031.1,3792.4
1032.17,3791.8
1033.23,3794.8
1034.3,3794.8
1035.36,3795.5
1036.43,3798.9
1037.5,3790.7
1038.56,3789.1
1039.63,3789.6
1040.69,3786.9
1041.76,3784.3
1042.82,3784.7
1043.89,3784.8
1044.95,3784.1
1046.01,3784.5
1047.08,3780.9
1048.14,3783.0
1049.2,3779.9
1050.27,3780.1
1051.33,3780.2
1052.39,3779.3
1053.46,3781.3
1054.52,3781.3
1055.58,3781.4
1056.64,3781.0
1057.7,3779.8
1058.77,3779.7
1059.83,3779.5
1060.89,3778.7
1061.95,3778.8
1063.01,3780.0
1064.07,3777.8
1065.13,3776.7
1066.19,3776.8
1067.25,3779.1
1068.05,3779.0

File: VLFR_07-PET_bio_Raman_6952032f.csv
nm,Intensity
791.588,5946.6
792.685,5923.4
793.781,5902.3
794.878,5842.6
795.975,5885.2
797.071,5900.3
798.168,5905.4
799.264,5854.8
800.36,5834.2
801.456,5871.2
802.552,5835.7
803.648,5836.2
804.744,5792.7
805.84,5766.8
806.936,5751.1
808.031,5720.6
809.127,5671.6
810.222,5673.1
811.317,5643.1
812.412,5589.9
813.507,5548.1
814.602,5505.4
815.697,5504.6
816.792,5485.9
817.887,5481.8
818.981,5410.5
820.076,5425.2
821.17,5421.4
822.265,5370.3
823.359,5306.9
824.453,5317.7
825.547,5330.9
826.641,5305.0
827.735,5264.6
828.828,5213.7
829.922,5199.3
831.016,5204.6
832.109,5134.4
833.202,5125.9
834.295,5110.2
835.388,5093.4
836.481,5084.3
837.574,5063.9
838.667,5057.8
839.76,5011.7
840.852,5027.2
841.945,5039.9
843.037,4959.2
844.129,4953.7
845.221,4934.8
846.314,4865.3
847.405,4895.3
848.497,4876.1
849.589,4832.1
850.68,4849.2
851.772,4838.5
852.863,4818.4
853.955,4821.1
855.046,4803.9
856.137,4760.0
857.228,4794.5
858.318,4768.7
859.409,4788.8
860.5,4770.5
861.59,4751.8
862.681,4733.7
863.771,4719.3
864.861,4702.9
865.951,4724.2
867.041,4688.1
868.131,4665.0
869.22,4696.3
870.31,4650.7
871.399,4699.5
872.488,4721.2
873.578,4691.7
874.667,4666.7
875.756,4646.6
876.845,4632.5
877.933,4619.1
879.022,4623.5
880.11,4612.1
881.199,4596.8
882.287,4602.4
883.375,4578.7
884.463,4571.1
885.551,4576.0
886.639,4547.3
887.726,4519.9
888.814,4514.8
889.901,4503.8
890.988,4492.4
892.075,4485.8
893.162,4458.8
894.249,4454.5
895.336,4435.4
896.423,4399.2
897.509,4445.4
898.595,4480.0
899.682,4397.9
900.768,4367.1
901.854,4353.0
902.94,4333.8
904.025,4342.1
905.111,4324.4
906.196,4340.0
907.282,4345.3
908.367,4339.3
909.452,4308.0
910.537,4259.5
911.622,4255.0
912.706,4227.2
913.791,4208.8
914.875,4210.2
915.959,4183.7
917.044,4175.7
918.128,4182.3
919.211,4159.1
920.295,4139.2
921.379,4140.6
922.462,4125.7
923.546,4122.9
924.629,4112.2
925.712,4098.2
926.795,4095.8
927.877,4065.1
928.96,4065.4
930.043,4044.5
931.125,4035.2
932.207,4030.3
933.289,4028.0
934.371,4009.6
935.453,4000.6
936.535,4001.1
937.616,3997.0
938.697,3980.4
939.779,3980.6
940.86,3976.4
941.941,3964.3
943.022,3955.8
944.102,3947.0
945.183,3943.5
946.263,3940.0
947.343,3928.5
948.423,3930.9
949.503,3918.7
950.583,3904.2
951.663,3910.5
952.742,3909.5
953.822,3895.5
954.901,3896.2
955.98,3891.4
957.059,3884.3
958.137,3884.6
959.216,3870.9
960.294,3872.6
961.373,3865.8
962.451,3867.1
963.529,3861.0
964.607,3863.1
965.684,3856.9
966.762,3846.8
967.839,3847.4
968.917,3848.6
969.994,3844.9
971.071,3837.9
972.147,3841.7
973.224,3839.4
974.3,3835.6
975.377,3832.0
976.453,3826.4
977.529,3823.6
978.605,3818.1
979.68,3822.1
980.756,3819.1
981.831,3814.4
982.907,3815.6
983.982,3813.8
985.057,3807.5
986.131,3801.5
987.206,3807.4
988.28,3803.9
989.355,3800.7
990.429,3800.3
991.503,3799.3
992.576,3796.8
993.65,3794.4
994.723,3792.9
995.797,3791.3
996.87,3789.5
997.943,3790.5
999.016,3788.3
1000.09,3781.7
1001.16,3782.9
1002.23,3781.8
1003.31,3781.8
1004.38,3780.6
1005.45,3777.9
1006.52,3771.0
1007.59,3774.4
1008.66,3774.2
1009.73,3774.5
1010.81,3772.8
1011.88,3770.8
1012.95,3773.3
1014.02,3768.3
1015.09,3767.6
1016.16,3770.6
1017.23,3767.5
1018.3,3764.0
1019.37,3765.9
1020.44,3763.7
1021.51,3766.7
1022.58,3766.7
1023.64,3762.5
1024.71,3760.7
1025.78,3759.3
1026.85,3759.4
1027.92,3760.0
1028.99,3758.1
1030.05,3758.0
1031.12,3755.4
1032.19,3756.6
1033.26,3756.7
1034.32,3758.5
1035.39,3755.5
1036.46,3755.5
1037.52,3754.9
1038.59,3753.4
1039.66,3752.2
1040.72,3754.3
1041.79,3753.0
1042.86,3751.2
1043.92,3751.8
1044.99,3752.3
1046.05,3749.8
1047.12,3753.6
1048.18,3749.2
1049.25,3750.0
1050.31,3750.4
1051.37,3748.8
1052.44,3751.0
1053.5,3750.0
1054.57,3750.9
1055.63,3749.6
1056.69,3748.1
1057.76,3748.1
1058.82,3749.2
1059.88,3748.4
1060.95,3747.6
1062.01,3749.6
1063.07,3748.9
1064.13,3750.2
1065.19,3748.4
1066.26,3748.5
1067.32,3747.4
1068.11,3745.5

File: VLFR_07-PET_bio_Raman_83784984.csv
nm,Intensity
791.588,9101.1
792.685,8465.1
793.781,8286.9
794.878,8187.5
795.975,8083.6
797.071,8077.4
798.168,8018.8
799.264,8119.7
800.36,8051.9
801.456,8077.4
802.552,8055.9
803.648,8041.1
804.744,7850.6
805.84,7833.1
806.936,7767.0
808.031,7726.8
809.127,7694.8
810.222,7636.6
811.317,7554.7
812.412,7514.8
813.507,7420.0
814.602,7422.4
815.697,7324.3
816.792,7322.0
817.887,7238.5
818.981,7252.9
820.076,7165.8
821.17,7081.5
822.265,7085.4
823.359,7035.9
824.453,7044.8
825.547,7094.8
826.641,7042.3
827.735,6860.8
828.828,6924.8
829.922,6846.4
831.016,6914.5
832.109,6757.1
833.202,6718.3
834.295,6697.5
835.388,6670.3
836.481,6630.4
837.574,6693.2
838.667,6571.4
839.76,6560.5
840.852,6688.8
841.945,6740.2
843.037,6515.0
844.129,6470.1
845.221,6397.4
846.314,6221.0
847.405,6262.6
848.497,6185.7
849.589,6161.2
850.68,6153.0
851.772,6165.9
852.863,6112.6
853.955,6073.7
855.046,6006.7
856.137,5996.0
857.228,5983.5
858.318,6047.0
859.409,6056.6
860.5,6059.6
861.59,5935.5
862.681,5921.9
863.771,5906.7
864.861,5900.6
865.951,5809.0
867.041,5790.2
868.131,5731.4
869.22,5755.2
870.31,5792.9
871.399,5829.9
872.488,5983.5
873.578,5923.3
874.667,5830.6
875.756,5709.8
876.845,5667.3
877.933,5627.6
879.022,5594.5
880.11,5566.4
881.199,5581.8
882.287,5515.6
883.375,5541.1
884.463,5485.9
885.551,5491.9
886.639,5477.1
887.726,5416.7
888.814,5393.2
889.901,5343.1
890.988,5331.4
892.075,5319.5
893.162,5275.6
894.249,5208.3
895.336,5202.1
896.423,5230.8
897.509,5337.7
898.595,5538.1
899.682,5315.7
900.768,5105.5
901.854,5052.7
902.94,5010.6
904.025,5026.8
905.111,4998.0
906.196,5100.4
907.282,5206.4
908.367,5199.7
909.452,5025.6
910.537,4899.4
911.622,4811.8
912.706,4803.0
913.791,4748.3
914.875,4734.5
915.959,4727.4
917.044,4679.5
918.128,4670.7
919.211,4622.5
920.295,4633.4
921.379,4593.6
922.462,4576.0
923.546,4547.8
924.629,4544.5
925.712,4501.1
926.795,4494.6
927.877,4447.0
928.96,4427.9
930.043,4417.9
931.125,4391.7
932.207,4352.4
933.289,4338.0
934.371,4319.4
935.453,4318.0
936.535,4287.6
937.616,4273.1
938.697,4262.3
939.779,4245.9
940.86,4247.3
941.941,4224.2
943.022,4183.0
944.102,4188.7
945.183,4176.3
946.263,4172.7
947.343,4153.0
948.423,4149.6
949.503,4127.9
950.583,4093.9
951.663,4110.0
952.742,4093.6
953.822,4080.9
954.901,4073.5
955.98,4070.3
957.059,4051.2
958.137,4045.5
959.216,4039.1
960.294,4031.2
961.373,4009.1
962.451,4012.1
963.529,4003.4
964.607,3995.2
965.684,3982.2
966.762,3984.5
967.839,3979.5
968.917,3976.0
969.994,3970.1
971.071,3965.3
972.147,3948.5
973.224,3941.8
974.3,3935.2
975.377,3931.1
976.453,3927.6
977.529,3924.3
978.605,3916.8
979.68,3905.3
980.756,3904.1
981.831,3907.9
982.907,3897.6
983.982,3904.0
985.057,3887.4
986.131,3890.0
987.206,3880.9
988.28,3883.7
989.355,3874.2
990.429,3873.9
991.503,3864.4
992.576,3863.2
993.65,3855.8
994.723,3851.3
995.797,3849.1
996.87,3845.8
997.943,3842.5
999.016,3836.7
1000.09,3841.0
1001.16,3837.5
1002.23,3831.4
1003.31,3829.2
1004.38,3824.6
1005.45,3820.9
1006.52,3820.5
1007.59,3813.3
1008.66,3819.1
1009.73,3809.5
1010.81,3806.0
1011.88,3805.2
1012.95,3801.2
1014.02,3806.2
1015.09,3802.0
1016.16,3800.1
1017.23,3801.1
1018.3,3796.1
1019.37,3796.9
1020.44,3794.5
1021.51,3796.8
1022.58,3793.8
1023.64,3796.7
1024.71,3791.7
1025.78,3788.6
1026.85,3788.0
1027.92,3784.5
1028.99,3779.3
1030.05,3778.5
1031.12,3774.2
1032.19,3777.7
1033.26,3774.2
1034.32,3777.1
1035.39,3776.4
1036.46,3776.7
1037.52,3773.1
1038.59,3770.3
1039.66,3770.2
1040.72,3772.3
1041.79,3769.0
1042.86,3767.5
1043.92,3768.1
1044.99,3766.0
1046.05,3763.9
1047.12,3763.7
1048.18,3763.2
1049.25,3762.7
1050.31,3762.3
1051.37,3762.5
1052.44,3762.4
1053.5,3764.8
1054.57,3762.6
1055.63,3762.1
1056.69,3761.4
1057.76,3763.1
1058.82,3760.8
1059.88,3760.8
1060.95,3760.0
1062.01,3761.7
1063.07,3760.4
1064.13,3759.7
1065.19,3761.0
1066.26,3758.9
1067.32,3759.0
1068.11,3758.0

File: VLFR_07-PET_bio_Raman_a9957276.csv
nm,Intensity
791.588,7781.6
792.685,7365.3
793.781,7145.9
794.878,7079.6
795.975,7043.7
797.071,7026.5
798.168,7022.9
799.264,7098.6
800.36,6983.9
801.456,6934.4
802.552,6946.8
803.648,6925.1
804.744,6808.1
805.84,6767.8
806.936,6686.2
808.031,6630.0
809.127,6664.3
810.222,6583.9
811.317,6534.5
812.412,6462.3
813.507,6440.1
814.602,6337.2
815.697,6290.9
816.792,6261.5
817.887,6275.6
818.981,6226.5
820.076,6200.6
821.17,6222.2
822.265,6123.5
823.359,6048.8
824.453,6111.0
825.547,6114.0
826.641,6094.9
827.735,5973.2
828.828,5958.7
829.922,5965.5
831.016,5965.1
832.109,5894.9
833.202,5868.7
834.295,5841.7
835.388,5813.4
836.481,5800.1
837.574,5807.8
838.667,5772.9
839.76,5760.8
840.852,5787.9
841.945,5824.6
843.037,5690.4
844.129,5625.7
845.221,5550.7
846.314,5540.8
847.405,5513.2
848.497,5451.4
849.589,5456.8
850.68,5414.1
851.772,5424.9
852.863,5392.1
853.955,5380.2
855.046,5340.0
856.137,5324.9
857.228,5339.0
858.318,5348.0
859.409,5355.2
860.5,5390.0
861.59,5288.3
862.681,5254.4
863.771,5259.9
864.861,5242.4
865.951,5229.7
867.041,5136.3
868.131,5163.3
869.22,5160.4
870.31,5167.5
871.399,5281.1
872.488,5242.5
873.578,5258.4
874.667,5203.2
875.756,5096.1
876.845,5063.2
877.933,5031.6
879.022,5059.6
880.11,5020.6
881.199,4991.8
882.287,5008.5
883.375,4978.2
884.463,4998.1
885.551,4983.1
886.639,4926.9
887.726,4888.7
888.814,4875.1
889.901,4839.9
890.988,4858.0
892.075,4817.4
893.162,4798.3
894.249,4777.6
895.336,4720.2
896.423,4704.4
897.509,4838.3
898.595,4924.0
899.682,4802.4
900.768,4650.2
901.854,4606.4
902.94,4593.7
904.025,4588.0
905.111,4597.9
906.196,4607.1
907.282,4729.0
908.367,4719.2
909.452,4577.6
910.537,4462.3
911.622,4449.4
912.706,4441.7
913.791,4400.6
914.875,4358.0
915.959,4361.1
917.044,4347.3
918.128,4340.7
919.211,4318.6
920.295,4310.5
921.379,4292.4
922.462,4265.7
923.546,4267.3
924.629,4251.6
925.712,4235.1
926.795,4216.7
927.877,4183.0
928.96,4177.9
930.043,4156.7
931.125,4150.3
932.207,4128.4
933.289,4099.5
934.371,4090.7
935.453,4089.7
936.535,4070.7
937.616,4075.9
938.697,4060.0
939.779,4043.9
940.86,4041.8
941.941,4015.1
943.022,4023.1
944.102,4003.5
945.183,4001.0
946.263,3993.3
947.343,3990.2
948.423,3983.8
949.503,3970.0
950.583,3975.7
951.663,3953.3
952.742,3956.1
953.822,3949.1
954.901,3930.4
955.98,3933.6
957.059,3923.6
958.137,3922.7
959.216,3914.9
960.294,3907.7
961.373,3903.0
962.451,3899.4
963.529,3890.6
964.607,3891.3
965.684,3888.0
966.762,3883.5
967.839,3880.3
968.917,3876.9
969.994,3872.8
971.071,3875.0
972.147,3865.3
973.224,3861.9
974.3,3850.5
975.377,3850.4
976.453,3844.7
977.529,3846.3
978.605,3838.0
979.68,3837.0
980.756,3836.2
981.831,3832.4
982.907,3833.9
983.982,3824.3
985.057,3822.9
986.131,3824.8
987.206,3816.3
988.28,3815.9
989.355,3819.2
990.429,3809.4
991.503,3813.3
992.576,3810.2
993.65,3802.9
994.723,3802.0
995.797,3800.9
996.87,3795.6
997.943,3794.6
999.016,3792.5
1000.09,3793.1
1001.16,3785.1
1002.23,3784.0
1003.31,3784.8
1004.38,3781.3
1005.45,3783.0
1006.52,3776.6
1007.59,3776.6
1008.66,3776.3
1009.73,3777.0
1010.81,3771.8
1011.88,3770.0
1012.95,3769.2
1014.02,3767.5
1015.09,3766.4
1016.16,3766.4
1017.23,3766.5
1018.3,3760.8
1019.37,3762.3
1020.44,3764.4
1021.51,3763.3
1022.58,3764.2
1023.64,3764.0
1024.71,3760.9
1025.78,3754.5
1026.85,3753.4
1027.92,3755.2
1028.99,3750.2
1030.05,3750.5
1031.12,3751.2
1032.19,3752.4
1033.26,3749.8
1034.32,3751.5
1035.39,3753.1
1036.46,3748.9
1037.52,3748.0
1038.59,3746.4
1039.66,3746.7
1040.72,3746.3
1041.79,3746.3
1042.86,3744.8
1043.92,3743.6
1044.99,3742.6
1046.05,3741.2
1047.12,3744.2
1048.18,3741.2
1049.25,3743.7
1050.31,3742.2
1051.37,3743.3
1052.44,3740.9
1053.5,3740.9
1054.57,3740.7
1055.63,3740.1
1056.69,3740.2
1057.76,3740.1
1058.82,3742.7
1059.88,3740.7
1060.95,3739.4
1062.01,3740.1
1063.07,3739.6
1064.13,3739.5
1065.19,3737.8
1066.26,3738.6
1067.32,3740.7
1068.11,3737.6