Folder: MPX_specDB/spectra (part 42)

File: VLFR_02-HDPE_bio_Raman_5509ec87.csv
nm,Intensity
528.635,1837.9
529.14,1836.3
529.645,1837.8
530.151,1836.8
530.656,1837.6
531.161,1841.2
531.666,1882.2
532.171,4449.7
532.676,1838.9
533.181,1839.6
533.686,1976.3
534.191,2309.2
534.696,2304.1
535.201,2277.8
535.705,2106.0
536.21,2059.1
536.715,2023.2
537.219,2023.3
537.724,2016.3
538.228,2003.9
538.733,1983.5
539.237,1972.6
539.741,1954.2
540.246,1950.7
540.75,1945.4
541.254,1941.3
541.758,1940.5
542.262,1943.3
542.766,1934.8
543.27,1933.1
543.774,1934.8
544.278,1937.3
544.781,1923.1
545.285,1925.3
545.789,1931.2
546.292,1927.9
546.796,1921.3
547.299,1926.8
547.803,1931.1
548.306,1928.3
548.809,1922.2
549.313,1924.2
549.816,1925.0
550.319,1923.5
550.822,1926.6
551.325,1929.9
551.828,1931.2
552.331,1928.8
552.834,1931.9
553.337,1952.9
553.839,1959.8
554.342,1957.1
554.845,1959.1
555.347,1969.7
555.85,1974.7
556.352,1976.2
556.854,1992.6
557.357,2018.5
557.859,2034.1
558.361,2029.7
558.863,2025.1
559.365,2013.2
559.867,2009.7
560.369,2002.6
560.871,2000.6
561.373,2000.3
561.875,2018.5
562.377,2038.0
562.878,2052.7
563.38,2096.5
563.881,2994.4
564.383,2310.4
564.884,2214.7
565.386,2169.7
565.887,2630.9
566.388,2688.3
566.889,2103.8
567.391,2252.8
567.892,2066.9
568.393,2064.7
568.893,2062.3
569.394,2068.3
569.895,2067.9
570.396,2123.2
570.897,2174.1
571.397,3530.0
571.898,2445.1
572.398,2169.3
572.899,2092.8
573.399,2094.9
573.899,2221.4
574.399,2085.4
574.9,2093.6
575.4,2810.1
575.9,2693.7
576.4,3421.6
576.899,2998.0
577.399,2557.6
577.899,2227.6
578.399,2187.7
578.898,2168.7
579.398,2190.2
579.897,2208.5
580.397,2209.3
580.896,2213.1
581.396,2219.7
581.895,2203.8
582.394,2185.8
582.893,2211.4
583.392,2195.0
583.891,2211.4
584.39,2202.7
584.889,2200.0
585.387,2184.6
585.886,2173.4
586.385,2182.2
586.883,2157.4
587.382,2149.4
587.88,2174.1
588.379,2142.3
588.877,2149.4
589.375,2143.3
589.873,2131.8
590.371,2121.9
590.869,2124.9
591.367,2122.8
591.865,2129.5
592.363,2121.6
592.86,2120.0
593.358,2123.4
593.856,2114.3
594.353,2115.5
594.851,2121.2
595.348,2114.9
595.845,2120.0
596.342,2126.0
596.84,2130.7
597.337,2135.7
597.834,2126.8
598.331,2143.1
598.827,2133.3
599.324,2149.2
599.821,2165.8
600.318,2145.3
600.814,2150.5
601.311,2143.1
601.807,2166.2
602.303,2173.3
602.8,2126.5
603.296,2123.1
603.792,2142.2
604.288,2139.0
604.784,2119.3
605.28,2097.2
605.776,2106.4
606.272,2086.8
606.767,2087.1
607.263,2081.9
607.758,2084.2
608.254,2076.8
608.749,2071.1
609.244,2072.9
609.74,2067.5
610.235,2072.7
610.73,2091.2
611.225,2090.3
611.72,2071.6
612.215,2056.7
612.709,2046.6
613.204,2045.3
613.699,2054.9
614.193,2047.2
614.688,2059.6
615.182,2054.4
615.676,2061.6
616.171,2085.8
616.665,2101.1
617.159,2137.9
617.653,2153.5
618.147,2169.2
618.641,2132.9
619.134,2164.8
619.628,2195.6
620.122,2184.8
620.615,2218.7
621.109,2283.6
621.602,2483.8
622.095,2718.0
622.588,2570.7
623.082,2291.9
623.575,2216.0
624.068,2201.6
624.56,2208.6
625.053,2243.9
625.546,2312.6
626.039,2493.3
626.531,3748.8
627.024,9323.9
627.516,8370.4
628.008,6761.0
628.501,11084.4
628.993,6674.9
629.485,5561.1
629.977,4649.2
630.469,4373.9
630.961,3175.5
631.452,2455.3
631.944,2285.8
632.436,2248.2
632.927,2198.8
633.418,2175.1
633.91,2157.1
634.401,2119.0
634.892,2112.8
635.383,2076.8
635.874,2071.8
636.365,2089.8
636.856,2054.7
637.347,2027.1
637.837,2016.2
638.328,2016.8
638.818,1997.7
639.309,1994.5
639.799,1995.6
640.289,1992.8
640.78,1987.3
641.27,1988.2
641.76,1980.6
642.249,1970.1
642.739,1978.5
643.229,1975.4
643.719,1971.2
644.208,1968.2
644.698,1972.4
645.187,1971.7
645.676,1968.8
646.165,1964.9
646.655,1961.3
647.144,1961.4
647.633,1955.1
648.121,1965.3
648.61,1958.7
649.099,1956.3
649.587,1962.4
650.076,1955.0
650.564,1960.0
651.053,1956.1
651.541,1951.3
652.029,1948.3
652.517,1949.3
653.005,1950.5
653.493,1952.6
653.981,1947.3
654.468,1946.5
654.956,1947.6
655.444,1944.9
655.931,1947.6
656.418,1938.5
656.906,1937.0
657.393,1939.7
657.88,1937.1
658.367,1930.4
658.854,1930.2
659.341,1931.2
659.827,1945.3
660.314,1936.8
660.8,1928.7
661.044,1930.8

File: VLFR_02-HDPE_bio_Raman_9776e179.csv
nm,Intensity
528.629,1850.75
529.134,1852.2
529.639,1851.25
530.145,1851.05
530.65,1852.05
531.155,1852.9
531.66,1869.05
532.165,2580.55
532.67,1851.55
533.175,1852.05
533.68,1868.4
534.185,1899.1
534.69,1902.4
535.195,1896.85
535.699,1889.1
536.204,1885.65
536.709,1884.0
537.213,1881.45
537.718,1882.5
538.222,1883.6
538.727,1884.6
539.231,1886.95
539.735,1881.45
540.239,1883.2
540.744,1878.8
541.248,1878.0
541.752,1882.8
542.256,1882.9
542.76,1884.8
543.264,1882.8
543.768,1882.7
544.271,1884.4
544.775,1880.6
545.279,1879.85
545.783,1881.5
546.286,1879.45
546.79,1883.8
547.293,1885.25
547.797,1884.2
548.3,1883.65
548.803,1884.7
549.306,1885.95
549.81,1885.15
550.313,1883.85
550.816,1886.95
551.319,1890.3
551.822,1889.4
552.325,1885.45
552.828,1889.25
553.33,1887.25
553.833,1889.95
554.336,1890.6
554.838,1890.4
555.341,1891.8
555.843,1893.45
556.346,1888.8
556.848,1894.55
557.35,1894.9
557.853,1892.05
558.355,1896.35
558.857,1895.55
559.359,1895.55
559.861,1899.55
560.363,1898.7
560.865,1896.8
561.367,1899.1
561.869,1898.3
562.37,1901.55
562.872,1902.0
563.374,1907.4
563.875,1970.3
564.376,1918.45
564.878,1916.1
565.379,1912.15
565.881,1956.8
566.382,1955.35
566.883,1908.05
567.384,1915.75
567.885,1904.2
568.386,1907.55
568.887,1904.85
569.388,1909.8
569.888,1903.3
570.389,1917.15
570.89,1918.4
571.39,2023.1
571.891,1934.55
572.391,1920.75
572.892,1909.4
573.392,1907.45
573.892,1913.4
574.393,1908.1
574.893,1905.55
575.393,1972.4
575.893,1954.95
576.393,1984.1
576.893,1967.35
577.392,1932.55
577.892,1908.65
578.392,1910.8
578.891,1906.15
579.391,1910.1
579.89,1908.45
580.39,1907.5
580.889,1909.5
581.388,1907.0
581.888,1906.5
582.387,1903.05
582.886,1904.4
583.385,1904.95
583.884,1907.35
584.383,1904.25
584.881,1903.5
585.38,1898.55
585.879,1904.5
586.377,1903.1
586.876,1903.85
587.374,1904.15
587.873,1902.6
588.371,1905.2
588.869,1905.65
589.368,1908.2
589.866,1903.95
590.364,1905.9
590.862,1898.5
591.36,1905.15
591.857,1905.25
592.355,1908.95
592.853,1906.8
593.35,1907.5
593.848,1905.85
594.345,1904.7
594.843,1904.05
595.34,1905.4
595.837,1911.85
596.335,1906.15
596.832,1913.0
597.329,1908.7
597.826,1909.15
598.323,1909.5
598.819,1912.4
599.316,1912.7
599.813,1911.65
600.309,1910.2
600.806,1909.2
601.302,1909.6
601.799,1911.35
602.295,1915.8
602.791,1909.85
603.288,1910.1
603.784,1907.55
604.28,1910.05
604.776,1909.5
605.272,1904.9
605.767,1909.3
606.263,1907.4
606.759,1908.75
607.254,1910.2
607.75,1911.0
608.245,1908.3
608.74,1911.65
609.236,1907.95
609.731,1907.9
610.226,1905.85
610.721,1913.5
611.216,1913.0
611.711,1908.9
612.206,1904.9
612.7,1910.6
613.195,1906.15
613.69,1914.05
614.184,1908.55
614.679,1909.5
615.173,1909.5
615.667,1904.0
616.161,1907.35
616.656,1905.5
617.15,1912.05
617.644,1911.0
618.137,1913.45
618.631,1913.7
619.125,1917.15
619.619,1922.2
620.112,1917.9
620.606,1919.7
621.099,1925.7
621.592,1940.65
622.086,1950.5
622.579,1947.15
623.072,1925.2
623.565,1917.9
624.058,1918.4
624.551,1916.7
625.043,1921.4
625.536,1923.95
626.029,1938.85
626.521,2040.35
627.014,2512.3
627.506,2395.4
627.998,2287.2
628.49,2578.85
628.983,2230.1
629.475,2161.55
629.966,2102.4
630.458,2087.0
630.95,1989.2
631.442,1933.3
631.933,1923.05
632.425,1918.4
632.916,1910.9
633.408,1908.4
633.899,1906.35
634.39,1904.0
634.881,1901.35
635.372,1904.95
635.863,1901.2
636.354,1900.2
636.845,1898.65
637.336,1900.9
637.826,1897.5
638.317,1894.6
638.807,1897.6
639.298,1894.55
639.788,1891.6
640.278,1893.25
640.768,1893.7
641.258,1895.1
641.748,1892.35
642.238,1892.45
642.728,1893.5
643.217,1888.5
643.707,1890.95
644.197,1890.75
644.686,1888.65
645.175,1892.1
645.664,1891.8
646.154,1890.2
646.643,1893.05
647.132,1892.85
647.621,1890.35
648.109,1890.35
648.598,1893.25
649.087,1890.25
649.575,1892.65
650.064,1888.1
650.552,1891.2
651.04,1887.55
651.528,1889.15
652.017,1885.85
652.505,1890.3
652.992,1889.15
653.48,1886.1
653.968,1884.35
654.456,1887.2
654.943,1884.85
655.431,1883.95
655.918,1881.8
656.405,1887.35
656.893,1882.65
657.38,1881.95
657.867,1882.4
658.354,1881.9
658.84,1881.25
659.327,1881.7
659.814,1882.75
660.3,1878.4
660.787,1879.0
661.03,1879.3

File: VLFR_02-HDPE_bio_Raman_67585c36.csv
nm,Intensity
528.626,1865.0
529.132,1865.9
529.637,1866.2
530.143,1867.4
530.648,1866.8
531.153,1866.1
531.658,1894.3
532.164,3505.8
532.669,1868.3
533.174,1867.9
533.679,1912.4
534.184,2070.5
534.689,2095.5
535.194,2124.7
535.699,2135.1
536.203,2112.0
536.708,2090.5
537.213,2131.0
537.717,2104.4
538.222,2104.8
538.726,2095.6
539.231,2089.8
539.735,2080.1
540.239,2082.4
540.744,2103.3
541.248,2112.0
541.752,2106.6
542.256,2108.0
542.76,2114.7
543.264,2120.3
543.768,2146.6
544.272,2185.2
544.776,2131.9
545.28,2145.1
545.784,2161.9
546.287,2407.2
546.791,2286.7
547.294,2165.0
547.798,2159.9
548.301,2161.3
548.805,2164.8
549.308,2184.1
549.811,2195.2
550.315,2260.2
550.818,2183.3
551.321,2165.5
551.824,2200.0
552.327,2176.5
552.83,2164.8
553.333,2167.4
553.835,2178.6
554.338,2181.8
554.841,2185.4
555.343,2184.3
555.846,2179.8
556.349,2190.3
556.851,2203.5
557.353,2191.4
557.856,2221.5
558.358,2196.0
558.86,2217.2
559.362,2228.2
559.864,2223.7
560.366,2221.5
560.868,2240.6
561.37,2261.6
561.872,2422.1
562.374,4095.6
562.876,2306.9
563.377,2262.4
563.879,2317.8
564.38,2302.4
564.882,2299.2
565.383,2286.6
565.885,2350.2
566.386,2494.2
566.887,2315.7
567.388,2278.2
567.889,2299.5
568.391,2281.3
568.892,2284.3
569.392,2295.0
569.893,2295.7
570.394,2297.5
570.895,2292.9
571.395,2420.7
571.896,2348.5
572.397,2328.0
572.897,2326.8
573.397,2329.0
573.898,2306.2
574.398,2308.6
574.898,2315.9
575.398,2324.9
575.898,2375.3
576.398,2425.3
576.898,2416.2
577.398,2359.5
577.898,2333.6
578.398,2320.5
578.897,2323.6
579.397,2337.6
579.896,2388.4
580.396,2378.1
580.895,2360.9
581.395,2354.2
581.894,2358.3
582.393,2336.4
582.892,2354.7
583.391,2347.8
583.89,2358.8
584.389,2370.6
584.888,2356.4
585.387,2360.4
585.886,2367.7
586.384,2376.1
586.883,2367.7
587.381,2380.1
587.88,2394.1
588.378,2395.1
588.876,2384.6
589.375,2402.5
589.873,2401.5
590.371,2414.2
590.869,2442.5
591.367,2438.6
591.865,2439.4
592.363,2424.8
592.86,2459.9
593.358,2442.0
593.856,2444.5
594.353,2449.9
594.851,2443.5
595.348,2482.4
595.845,2476.5
596.342,2483.5
596.84,2460.6
597.337,2497.3
597.834,2484.3
598.331,2489.1
598.828,2487.8
599.324,2495.9
599.821,2514.0
600.318,2495.3
600.814,2496.5
601.311,2484.5
601.807,2505.4
602.304,2495.0
602.8,2490.7
603.296,2503.6
603.792,2514.5
604.288,2485.0
604.784,2504.2
605.28,2484.5
605.776,2487.2
606.272,2498.4
606.767,2491.8
607.263,2501.7
607.759,2474.1
608.254,2475.4
608.749,2497.8
609.245,2478.7
609.74,2483.2
610.235,2487.0
610.73,2494.3
611.225,2470.9
611.72,2483.8
612.215,2475.7
612.71,2499.7
613.204,2488.6
613.699,2480.8
614.194,2483.7
614.688,2485.5
615.182,2499.7
615.677,2477.2
616.171,2462.6
616.665,2462.0
617.159,2464.9
617.653,2479.9
618.147,2495.1
618.641,2474.9
619.135,2481.7
619.628,2499.1
620.122,2476.1
620.615,2485.4
621.109,2450.6
621.602,2513.7
622.095,2538.5
622.589,2505.7
623.082,2467.2
623.575,2469.0
624.068,2488.3
624.561,2449.7
625.053,2477.5
625.546,2465.2
626.039,2480.1
626.531,2557.9
627.024,3056.2
627.516,3016.2
628.008,2872.2
628.501,3249.9
628.993,2877.2
629.485,2793.8
629.977,2666.0
630.469,2660.9
630.96,2559.0
631.452,2485.0
631.944,2459.1
632.435,2461.6
632.927,2439.9
633.418,2440.1
633.91,2431.8
634.401,2429.3
634.892,2446.1
635.383,2401.2
635.874,2410.0
636.365,2420.5
636.856,2420.5
637.346,2420.6
637.837,2410.7
638.327,2425.8
638.818,2422.3
639.308,2404.4
639.799,2387.8
640.289,2421.8
640.779,2425.2
641.269,2406.5
641.759,2394.7
642.249,2401.8
642.738,2410.2
643.228,2423.0
643.718,2438.9
644.207,2420.7
644.697,2431.8
645.186,2400.6
645.675,2420.6
646.164,2424.5
646.653,2410.9
647.142,2427.5
647.631,2428.2
648.12,2427.1
648.609,2430.9
649.098,2428.1
649.586,2470.6
650.075,2470.1
650.563,2471.0
651.051,2433.4
651.539,2419.8
652.027,2399.8
652.515,2406.1
653.003,2418.7
653.491,2381.1
653.979,2415.3
654.467,2389.3
654.954,2369.7
655.442,2373.5
655.929,2351.8
656.416,2351.5
656.904,2346.2
657.391,2344.7
657.878,2300.7
658.365,2336.4
658.851,2323.2
659.338,2280.9
659.825,2293.1
660.311,2323.0
660.798,2299.9
661.041,2331.0

File: VLFR_02-HDPE_bio_Raman_330501df.csv
nm,Intensity
526.508,830.2
527.055,829.5
527.602,830.6
528.149,830.8
528.695,830.7
529.241,829.0
529.787,829.3
530.334,828.1
530.879,829.0
531.425,828.3
531.971,832.8
532.516,829.7
533.062,830.4
533.607,830.2
534.152,871.3
534.697,865.2
535.242,860.9
535.786,851.7
536.331,849.4
536.876,846.7
537.42,846.1
537.964,845.0
538.508,846.3
539.052,845.0
539.596,842.8
540.14,841.4
540.683,840.8
541.227,840.6
541.77,841.0
542.313,839.4
542.856,842.3
543.399,843.4
543.942,839.4
544.485,840.7
545.027,839.2
545.57,840.7
546.112,839.0
546.654,842.2
547.196,841.9
547.738,840.7
548.28,841.9
548.822,839.9
549.363,840.0
549.905,839.9
550.446,840.6
550.988,839.4
551.529,841.8
552.07,842.5
552.611,841.5
553.152,841.6
553.692,842.0
554.233,841.5
554.773,842.8
555.314,842.8
555.854,842.1
556.394,842.3
556.934,845.8
557.474,846.6
558.014,848.5
558.553,847.9
559.093,847.5
559.632,846.2
560.172,845.9
560.711,847.6
561.25,845.2
561.789,847.1
562.328,847.6
562.867,850.6
563.406,852.9
563.944,888.4
564.483,861.4
565.021,856.1
565.559,858.3
566.098,907.8
566.636,856.0
567.174,854.5
567.711,858.7
568.249,854.6
568.787,854.1
569.324,852.1
569.862,854.3
570.399,856.3
570.936,859.2
571.474,922.2
572.011,872.3
572.548,862.1
573.084,859.9
573.621,858.7
574.158,865.0
574.694,860.7
575.231,866.7
575.767,893.5
576.303,944.4
576.84,912.1
577.376,901.3
577.912,880.8
578.447,878.5
578.983,879.6
579.519,885.4
580.054,885.7
580.59,890.2
581.125,892.8
581.661,897.9
582.196,904.5
582.731,903.2
583.266,911.5
583.801,911.8
584.336,912.6
584.87,912.0
585.405,916.6
585.94,922.4
586.474,925.6
587.008,928.4
587.543,929.5
588.077,930.3
588.611,937.4
589.145,939.2
589.679,937.8
590.213,943.0
590.747,950.7
591.28,946.8
591.814,951.6
592.347,954.7
592.881,954.0
593.414,953.0
593.947,955.7
594.48,958.1
595.014,956.7
595.547,964.1
596.079,961.6
596.612,963.3
597.145,965.3
597.678,963.0
598.21,964.6
598.743,971.5
599.275,975.6
599.807,972.2
600.34,976.2
600.872,969.7
601.404,975.4
601.936,972.8
602.468,971.6
603.0,967.7
603.532,969.5
604.063,961.0
604.595,959.8
605.126,958.4
605.658,950.3
606.189,943.1
606.721,942.1
607.252,942.4
607.783,942.5
608.314,938.5
608.845,932.4
609.376,933.6
609.907,932.4
610.438,930.4
610.968,924.6
611.499,928.1
612.03,924.5
612.56,924.4
613.091,921.3
613.621,925.3
614.151,919.6
614.681,920.6
615.212,917.1
615.742,920.5
616.272,916.5
616.802,919.4
617.332,920.8
617.861,916.4
618.391,918.5
618.921,914.2
619.45,918.2
619.98,920.5
620.509,919.9
621.039,922.8
621.568,927.7
622.097,946.2
622.627,942.6
623.156,924.6
623.685,919.3
624.214,916.7
624.743,915.1
625.272,919.9
625.801,923.5
626.33,949.3
626.858,1109.0
627.387,1452.8
627.916,1223.3
628.444,1382.5
628.973,1289.0
629.501,1196.1
630.029,1105.2
630.558,1084.5
631.086,995.3
631.614,940.7
632.142,932.7
632.67,921.5
633.198,922.8
633.726,921.2
634.254,918.8
634.782,918.9
635.31,916.9
635.838,918.1
636.365,919.5
636.893,919.4
637.421,916.4
637.948,913.3
638.476,914.3
639.003,911.7
639.531,916.7
640.058,916.1
640.585,913.4
641.113,914.4
641.64,914.1
642.167,911.6
642.694,915.3
643.221,910.5
643.748,914.0
644.275,909.6
644.802,912.2
645.329,913.3
645.856,913.1
646.382,911.1
646.909,912.1
647.436,915.3
647.962,909.0
648.489,912.5
649.016,911.1
649.542,910.2
650.069,909.1
650.595,906.8
651.121,907.3
651.648,907.9
652.174,908.3
652.7,909.3
653.227,904.0
653.753,909.5
654.279,909.5
654.805,906.8
655.331,908.9
655.857,905.5
656.383,903.6
656.909,904.6
657.435,903.4
657.961,904.7
658.487,902.5
659.013,900.9
659.538,898.8
660.064,902.1
660.59,896.3
661.116,892.9
661.641,893.0
662.167,891.2
662.692,890.4
663.087,890.3

File: VLFR_02-HDPE_bio_Raman_603869a7.csv
nm,Intensity
528.635,1838.5
529.14,1836.3
529.645,1839.3
530.151,1837.9
530.656,1837.3
531.161,1840.5
531.666,1884.4
532.171,4674.6
532.676,1839.4
533.181,1840.9
533.686,1976.5
534.191,2357.2
534.696,2378.0
535.201,2356.6
535.705,2221.3
536.21,2187.0
536.715,2157.4
537.219,2147.3
537.724,2154.5
538.228,2144.1
538.733,2135.4
539.237,2118.8
539.741,2109.4
540.246,2103.2
540.75,2112.3
541.254,2096.2
541.758,2095.2
542.262,2106.2
542.766,2090.7
543.27,2084.4
543.774,2090.9
544.278,2064.9
544.781,2079.4
545.285,2086.1
545.789,2061.5
546.292,2057.8
546.796,2048.2
547.299,2048.9
547.803,2047.8
548.306,2038.3
548.809,2043.8
549.313,2034.9
549.816,2036.8
550.319,2029.1
550.822,2016.2
551.325,2027.3
551.828,2023.2
552.331,2025.6
552.834,2021.5
553.337,2027.5
553.839,2030.5
554.342,2029.6
554.845,2034.1
555.347,2031.9
555.85,2038.1
556.352,2034.1
556.854,2055.0
557.357,2056.9
557.859,2070.4
558.361,2068.9
558.863,2057.8
559.365,2060.5
559.867,2063.1
560.369,2045.1
560.871,2047.4
561.373,2047.2
561.875,2058.5
562.377,2078.4
562.878,2084.6
563.38,2111.5
563.881,2783.6
564.383,2268.8
564.884,2193.9
565.386,2152.0
565.887,2475.2
566.388,2510.0
566.889,2118.5
567.391,2265.5
567.892,2104.1
568.393,2093.8
568.893,2095.6
569.394,2096.9
569.895,2109.9
570.396,2149.7
570.897,2197.8
571.397,3174.2
571.898,2378.2
572.398,2182.6
572.899,2135.2
573.399,2134.0
573.899,2234.1
574.399,2113.9
574.9,2131.0
575.4,2574.6
575.9,2576.6
576.4,3150.8
576.899,2832.5
577.399,2465.8
577.899,2193.3
578.399,2167.1
578.898,2134.3
579.398,2130.4
579.897,2142.8
580.397,2127.4
580.896,2126.3
581.396,2117.1
581.895,2122.5
582.394,2128.5
582.893,2111.6
583.392,2109.7
583.891,2107.8
584.39,2108.1
584.889,2116.9
585.387,2099.0
585.886,2099.8
586.385,2098.1
586.883,2087.6
587.382,2079.8
587.88,2079.9
588.379,2079.2
588.877,2087.1
589.375,2074.3
589.873,2061.7
590.371,2076.2
590.869,2083.1
591.367,2077.9
591.865,2094.4
592.363,2072.4
592.86,2075.8
593.358,2077.4
593.856,2079.7
594.353,2077.1
594.851,2076.5
595.348,2074.3
595.845,2084.4
596.342,2075.3
596.84,2078.0
597.337,2107.0
597.834,2097.3
598.331,2093.9
598.827,2098.7
599.324,2114.4
599.821,2115.6
600.318,2110.4
600.814,2113.0
601.311,2122.0
601.807,2134.5
602.303,2141.6
602.8,2115.1
603.296,2120.0
603.792,2118.2
604.288,2133.3
604.784,2097.1
605.28,2104.2
605.776,2092.7
606.272,2094.7
606.767,2088.3
607.263,2088.9
607.758,2080.4
608.254,2095.7
608.749,2082.5
609.244,2074.1
609.74,2087.5
610.235,2085.0
610.73,2098.0
611.225,2100.6
611.72,2081.8
612.215,2080.0
612.709,2058.2
613.204,2072.5
613.699,2073.9
614.193,2077.6
614.688,2075.9
615.182,2086.7
615.676,2087.1
616.171,2094.6
616.665,2122.8
617.159,2155.2
617.653,2185.5
618.147,2177.4
618.641,2168.6
619.134,2174.1
619.628,2210.7
620.122,2193.6
620.615,2217.6
621.109,2281.4
621.602,2456.5
622.095,2727.3
622.588,2573.7
623.082,2298.6
623.575,2206.6
624.068,2179.5
624.56,2208.2
625.053,2216.8
625.546,2278.8
626.039,2481.4
626.531,3630.1
627.024,9050.1
627.516,8054.4
628.008,6718.7
628.501,10502.9
628.993,6094.5
629.485,5194.9
629.977,4352.7
630.469,4004.7
630.961,3074.8
631.452,2375.7
631.944,2259.9
632.436,2205.3
632.927,2157.5
633.418,2138.4
633.91,2121.5
634.401,2072.6
634.892,2079.1
635.383,2064.7
635.874,2059.9
636.365,2041.5
636.856,2031.0
637.347,2007.9
637.837,2000.0
638.328,2005.2
638.818,1986.8
639.309,1984.1
639.799,1981.3
640.289,1975.8
640.78,1980.1
641.27,1969.8
641.76,1970.2
642.249,1970.9
642.739,1977.3
643.229,1965.2
643.719,1962.2
644.208,1973.1
644.698,1968.7
645.187,1966.9
645.676,1967.5
646.165,1958.8
646.655,1958.7
647.144,1954.7
647.633,1956.4
648.121,1958.1
648.61,1954.0
649.099,1962.0
649.587,1952.6
650.076,1948.1
650.564,1949.2
651.053,1951.5
651.541,1958.1
652.029,1951.5
652.517,1951.8
653.005,1965.1
653.493,1949.6
653.981,1943.9
654.468,1949.4
654.956,1943.1
655.444,1940.6
655.931,1949.3
656.418,1939.4
656.906,1938.4
657.393,1935.8
657.88,1946.0
658.367,1932.3
658.854,1936.7
659.341,1938.5
659.827,1940.0
660.314,1938.4
660.8,1939.8
661.044,1926.9

File: VLFR_02-HDPE_bio_Raman_645573d7.csv
nm,Intensity
526.495,827.45
527.042,828.5
527.589,827.3
528.136,828.75
528.682,827.55
529.229,827.55
529.775,827.6
530.321,827.35
530.867,828.35
531.413,827.7
531.959,829.15
532.505,827.55
533.051,827.6
533.596,828.3
534.141,1007.25
534.687,885.8
535.232,878.35
535.777,872.8
536.321,870.1
536.866,873.1
537.41,883.05
537.955,880.15
538.499,868.6
539.043,860.25
539.587,859.25
540.131,863.05
540.675,858.4
541.219,856.7
541.762,856.95
542.305,859.0
542.849,855.55
543.392,852.9
543.935,852.5
544.478,851.15
545.02,854.1
545.563,855.8
546.106,856.65
546.648,860.75
547.19,863.5
547.732,863.3
548.274,862.45
548.816,861.8
549.358,862.9
549.9,861.65
550.441,860.65
550.983,861.1
551.524,863.7
552.065,863.8
552.606,860.65
553.147,857.5
553.688,854.9
554.229,852.75
554.769,851.45
555.31,850.9
555.85,849.45
556.391,850.7
556.931,849.7
557.471,851.0
558.011,850.0
558.551,851.2
559.09,849.1
559.63,850.0
560.169,849.95
560.709,850.35
561.248,850.5
561.787,850.2
562.326,851.95
562.865,850.9
563.404,853.5
563.943,867.7
564.481,859.2
565.02,859.65
565.558,859.4
566.096,872.55
566.634,859.95
567.172,857.5
567.71,860.1
568.248,859.5
568.786,860.7
569.324,860.2
569.861,865.05
570.399,865.15
570.936,868.25
571.473,889.65
572.01,877.7
572.547,875.25
573.084,875.7
573.621,879.9
574.158,883.75
574.694,883.3
575.231,890.8
575.767,903.75
576.303,923.55
576.84,917.55
577.376,916.45
577.912,917.55
578.448,924.05
578.984,930.45
579.519,940.5
580.055,950.65
580.59,958.2
581.126,977.0
581.661,978.6
582.196,984.95
582.731,998.4
583.267,1006.65
583.801,1014.25
584.336,1022.45
584.871,1040.6
585.406,1049.6
585.94,1069.25
586.475,1090.05
587.009,1109.55
587.543,1130.3
588.078,1151.6
588.612,1171.35
589.146,1187.2
589.68,1211.3
590.214,1236.75
590.747,1254.7
591.281,1280.7
591.815,1294.35
592.348,1309.35
592.881,1321.15
593.415,1336.95
593.948,1362.3
594.481,1381.75
595.014,1398.75
595.547,1432.3
596.08,1462.4
596.613,1492.8
597.146,1528.15
597.678,1559.7
598.211,1592.2
598.743,1631.95
599.276,1651.0
599.808,1670.4
600.34,1675.3
600.872,1683.5
601.404,1691.0
601.936,1675.0
602.468,1667.9
603.0,1643.9
603.532,1617.45
604.064,1598.0
604.595,1546.1
605.127,1516.1
605.658,1477.4
606.189,1446.45
606.721,1415.5
607.252,1396.05
607.783,1368.25
608.314,1345.2
608.845,1329.0
609.376,1307.3
609.907,1291.75
610.438,1279.85
610.968,1264.05
611.499,1248.0
612.029,1246.95
612.56,1237.25
613.09,1226.1
613.621,1224.55
614.151,1212.35
614.681,1199.6
615.211,1189.2
615.741,1178.15
616.271,1171.1
616.801,1163.35
617.331,1155.05
617.861,1143.7
618.39,1140.45
618.92,1135.95
619.45,1124.4
619.979,1121.6
620.509,1117.65
621.038,1110.4
621.567,1106.55
622.096,1107.7
622.626,1105.05
623.155,1095.35
623.684,1093.75
624.213,1086.65
624.742,1085.45
625.271,1083.95
625.799,1077.5
626.328,1080.5
626.857,1123.35
627.386,1213.6
627.914,1149.2
628.443,1189.45
628.971,1165.5
629.5,1142.45
630.028,1122.25
630.556,1115.05
631.084,1083.5
631.613,1070.25
632.141,1062.3
632.669,1060.6
633.197,1059.85
633.725,1059.9
634.253,1065.6
634.781,1066.15
635.308,1072.45
635.836,1074.75
636.364,1079.1
636.891,1081.7
637.419,1086.4
637.947,1090.1
638.474,1093.4
639.002,1103.25
639.529,1107.7
640.056,1114.8
640.584,1127.8
641.111,1133.4
641.638,1142.4
642.165,1151.45
642.692,1156.75
643.219,1156.0
643.746,1170.15
644.273,1172.15
644.8,1183.2
645.327,1190.6
645.854,1204.9
646.381,1227.85
646.908,1263.65
647.434,1279.35
647.961,1284.05
648.488,1274.35
649.014,1272.15
649.541,1265.8
650.067,1263.65
650.594,1253.95
651.12,1258.1
651.646,1258.75
652.173,1272.4
652.699,1272.05
653.225,1277.65
653.752,1283.95
654.278,1290.55
654.804,1278.45
655.33,1275.05
655.856,1258.7
656.382,1247.65
656.908,1240.5
657.434,1229.85
657.96,1213.1
658.486,1198.5
659.012,1187.1
659.538,1175.55
660.064,1164.0
660.589,1151.25
661.115,1131.0
661.641,1124.6
662.166,1107.05
662.692,1098.75
663.086,1087.05