Folder: MPX_specDB/spectra (part 35)

File: VLFR_02-HDPE_bio_Raman_7efea7c1.csv
nm,Intensity
528.629,1850.2
529.134,1850.95
529.639,1850.05
530.145,1850.4
530.65,1850.35
531.155,1851.2
531.66,1875.0
532.165,2933.75
532.67,1850.7
533.175,1851.45
533.68,1893.65
534.185,2008.5
534.69,2006.65
535.195,1982.1
535.699,1924.65
536.204,1909.55
536.709,1903.95
537.213,1902.9
537.718,1899.15
538.222,1899.1
538.727,1888.7
539.231,1886.35
539.735,1887.75
540.239,1882.2
540.744,1881.3
541.248,1878.95
541.752,1883.25
542.256,1881.3
542.76,1878.1
543.264,1877.65
543.768,1879.95
544.271,1879.45
544.775,1880.6
545.279,1877.6
545.783,1880.7
546.286,1880.55
546.79,1879.7
547.293,1878.85
547.797,1879.85
548.3,1877.25
548.803,1877.15
549.306,1877.75
549.81,1877.9
550.313,1879.6
550.816,1880.2
551.319,1879.15
551.822,1879.7
552.325,1882.45
552.828,1882.7
553.33,1887.55
553.833,1886.25
554.336,1888.1
554.838,1889.9
555.341,1891.05
555.843,1897.25
556.346,1896.15
556.848,1903.85
557.35,1906.85
557.853,1909.8
558.355,1912.95
558.857,1911.5
559.359,1908.0
559.861,1907.85
560.363,1900.95
560.865,1899.0
561.367,1899.9
561.869,1904.95
562.37,1913.2
562.872,1918.95
563.374,1926.25
563.875,2218.0
564.376,1984.45
564.878,1963.4
565.379,1956.8
565.881,2137.75
566.382,2142.15
566.883,1932.7
567.384,1968.2
567.885,1922.6
568.386,1914.55
568.887,1917.9
569.388,1919.95
569.888,1916.7
570.389,1929.95
570.89,1952.9
571.39,2399.0
571.891,2028.05
572.391,1945.7
572.892,1914.85
573.392,1913.75
573.892,1949.6
574.393,1909.9
574.893,1915.4
575.393,2172.75
575.893,2112.8
576.393,2269.5
576.893,2141.05
577.392,2007.05
577.892,1928.8
578.392,1911.9
578.891,1906.5
579.391,1907.2
579.89,1908.5
580.39,1904.55
580.889,1903.1
581.388,1901.2
581.888,1903.7
582.387,1899.3
582.886,1900.7
583.385,1897.1
583.884,1894.65
584.383,1897.9
584.881,1894.4
585.38,1895.15
585.879,1894.3
586.377,1896.35
586.876,1894.95
587.374,1898.1
587.873,1895.25
588.371,1893.8
588.869,1895.65
589.368,1891.9
589.866,1892.85
590.364,1895.05
590.862,1894.25
591.36,1893.55
591.857,1893.75
592.355,1898.05
592.853,1897.3
593.35,1896.05
593.848,1895.75
594.345,1900.8
594.843,1893.35
595.34,1895.8
595.837,1904.35
596.335,1899.2
596.832,1901.5
597.329,1899.0
597.826,1900.0
598.323,1906.15
598.819,1903.6
599.316,1908.05
599.813,1909.65
600.309,1904.15
600.806,1901.85
601.302,1903.95
601.799,1912.75
602.295,1912.75
602.791,1906.05
603.288,1908.5
603.784,1913.4
604.28,1907.65
604.776,1905.7
605.272,1902.8
605.767,1905.6
606.263,1899.65
606.759,1904.15
607.254,1906.0
607.75,1900.55
608.245,1903.9
608.74,1903.55
609.236,1902.3
609.731,1900.5
610.226,1904.35
610.721,1909.25
611.216,1914.55
611.711,1909.65
612.206,1906.15
612.7,1903.1
613.195,1902.9
613.69,1900.35
614.184,1902.45
614.679,1903.3
615.173,1905.15
615.667,1905.95
616.161,1905.9
616.656,1913.1
617.15,1935.0
617.644,1930.65
618.137,1935.5
618.631,1930.55
619.125,1940.9
619.619,1948.8
620.112,1943.85
620.606,1946.8
621.099,1968.3
621.592,2028.95
622.086,2081.15
622.579,2043.85
623.072,1968.75
623.565,1953.5
624.058,1943.7
624.551,1945.15
625.043,1960.4
625.536,1974.3
626.029,2031.15
626.521,2371.7
627.014,4114.4
627.506,3641.4
627.998,3326.95
628.49,4343.7
628.983,3090.55
629.475,2898.1
629.966,2599.65
630.458,2539.9
630.95,2219.9
631.442,2015.3
631.933,1976.4
632.425,1955.3
632.916,1939.9
633.408,1927.6
633.899,1923.25
634.39,1918.6
634.881,1911.0
635.372,1907.4
635.863,1905.4
636.354,1902.75
636.845,1898.1
637.336,1893.7
637.826,1890.15
638.317,1886.25
638.807,1887.6
639.298,1886.6
639.788,1884.9
640.278,1881.4
640.768,1884.8
641.258,1881.05
641.748,1882.7
642.238,1882.5
642.728,1881.25
643.217,1880.5
643.707,1880.9
644.197,1881.85
644.686,1879.55
645.175,1878.6
645.664,1880.05
646.154,1879.95
646.643,1883.85
647.132,1878.2
647.621,1878.6
648.109,1880.6
648.598,1879.1
649.087,1879.2
649.575,1878.45
650.064,1878.8
650.552,1876.8
651.04,1879.45
651.528,1875.7
652.017,1877.45
652.505,1876.3
652.992,1878.3
653.48,1877.3
653.968,1876.05
654.456,1875.4
654.943,1876.0
655.431,1873.95
655.918,1875.35
656.405,1876.4
656.893,1871.75
657.38,1873.55
657.867,1872.95
658.354,1872.7
658.84,1876.1
659.327,1874.6
659.814,1874.35
660.3,1874.95
660.787,1873.7
661.03,1871.25

File: VLFR_02-HDPE_bio_Raman_8a0b2183.csv
nm,Intensity
528.626,1868.65
529.132,1870.03
529.637,1869.1
530.143,1868.57
530.648,1870.43
531.153,1869.78
531.658,1895.88
532.164,3190.18
532.669,1870.97
533.174,1871.03
533.679,1937.63
534.184,2210.8
534.689,2224.3
535.194,2248.6
535.699,2236.93
536.203,2224.55
536.708,2226.3
537.213,2235.5
537.717,2254.4
538.222,2237.13
538.726,2259.4
539.231,2269.15
539.735,2274.55
540.239,2290.85
540.744,2316.95
541.248,2347.27
541.752,2343.1
542.256,2368.32
542.76,2364.23
543.264,2355.98
543.768,2358.95
544.272,2365.23
544.776,2378.77
545.28,2385.0
545.784,2360.8
546.287,2359.57
546.791,2348.55
547.294,2359.35
547.798,2336.27
548.301,2336.52
548.805,2344.82
549.308,2348.95
549.811,2320.85
550.315,2339.73
550.818,2324.95
551.321,2324.35
551.824,2332.75
552.327,2313.63
552.83,2305.6
553.333,2308.48
553.835,2299.48
554.338,2304.4
554.841,2304.6
555.343,2301.32
555.846,2298.43
556.349,2310.95
556.851,2308.6
557.353,2308.18
557.856,2313.75
558.358,2330.18
558.86,2367.23
559.362,2331.9
559.864,2321.02
560.366,2319.73
560.868,2330.0
561.37,2332.8
561.872,2352.82
562.374,2347.8
562.876,2370.9
563.377,2379.57
563.879,2470.98
564.38,2452.63
564.882,2629.9
565.383,2590.82
565.885,2572.48
566.386,2526.3
566.887,2437.77
567.388,2430.93
567.889,2386.3
568.391,2403.7
568.892,2453.4
569.392,2372.52
569.893,2389.25
570.394,2425.73
570.895,2410.15
571.395,2485.6
571.896,2421.93
572.397,2452.5
572.897,2566.75
573.397,2572.07
573.898,2513.15
574.398,2736.5
574.898,2835.55
575.398,2564.7
575.898,2611.88
576.398,2558.05
576.898,2510.48
577.398,2453.73
577.898,2419.18
578.398,2411.48
578.897,2392.43
579.397,2405.15
579.896,2414.35
580.396,2423.2
580.895,2428.4
581.395,2494.1
581.894,2491.18
582.393,2478.6
582.892,2448.6
583.391,2450.65
583.89,2459.93
584.389,2456.4
584.888,2465.13
585.387,2469.15
585.886,2465.5
586.384,2475.02
586.883,2493.27
587.381,2485.5
587.88,2489.75
588.378,2501.05
588.876,2505.52
589.375,2526.68
589.873,2525.57
590.371,2539.68
590.869,2544.02
591.367,2562.27
591.865,2573.3
592.363,2580.8
592.86,2596.55
593.358,2583.13
593.856,2614.27
594.353,2619.18
594.851,2642.07
595.348,2659.48
595.845,2692.8
596.342,2694.2
596.84,2705.55
597.337,2722.57
597.834,2744.75
598.331,2765.15
598.828,2772.07
599.324,2798.9
599.821,2829.68
600.318,2848.63
600.814,2872.1
601.311,2879.85
601.807,2905.5
602.304,2924.07
602.8,2946.35
603.296,2969.8
603.792,2970.18
604.288,2983.38
604.784,3036.95
605.28,3025.45
605.776,3035.18
606.272,3061.55
606.767,3097.07
607.263,3117.43
607.759,3094.43
608.254,3141.45
608.749,3156.9
609.245,3168.2
609.74,3166.43
610.235,3191.63
610.73,3234.35
611.225,3256.25
611.72,3262.95
612.215,3246.9
612.71,3261.3
613.204,3261.23
613.699,3288.23
614.194,3341.05
614.688,3310.65
615.182,3367.27
615.677,3358.32
616.171,3371.88
616.665,3370.0
617.159,3415.88
617.653,3428.05
618.147,3436.98
618.641,3399.95
619.135,3456.9
619.628,3434.15
620.122,3445.98
620.615,3437.27
621.109,3486.77
621.602,3471.5
622.095,3498.55
622.589,3539.5
623.082,3511.18
623.575,3507.3
624.068,3519.02
624.561,3581.1
625.053,3562.57
625.546,3542.52
626.039,3590.8
626.531,3584.2
627.024,3943.3
627.516,4007.8
628.008,3965.0
628.501,4280.8
628.993,4144.95
629.485,4031.1
629.977,3872.18
630.469,3778.35
630.96,3707.5
631.452,3649.02
631.944,3610.85
632.435,3588.8
632.927,3523.75
633.418,3482.45
633.91,3465.65
634.401,3418.77
634.892,3399.45
635.383,3382.85
635.874,3386.65
636.365,3354.1
636.856,3351.93
637.346,3333.63
637.837,3331.48
638.327,3370.95
638.818,3334.68
639.308,3337.38
639.799,3281.4
640.289,3337.95
640.779,3298.77
641.269,3279.93
641.759,3293.35
642.249,3293.73
642.738,3302.2
643.228,3293.9
643.718,3317.23
644.207,3293.02
644.697,3241.13
645.186,3261.2
645.675,3273.57
646.164,3218.38
646.653,3235.65
647.142,3220.35
647.631,3245.32
648.12,3178.9
648.609,3193.82
649.098,3201.5
649.586,3203.13
650.075,3127.98
650.563,3155.95
651.051,3148.23
651.539,3105.85
652.027,3144.02
652.515,3055.25
653.003,3021.85
653.491,3021.98
653.979,3017.88
654.467,2968.52
654.954,2946.05
655.442,2911.3
655.929,2913.7
656.416,2871.57
656.904,2877.2
657.391,2868.63
657.878,2838.68
658.365,2817.0
658.851,2826.88
659.338,2776.63
659.825,2804.68
660.311,2784.98
660.798,2782.07
661.041,2793.3

File: VLFR_02-HDPE_bio_Raman_008b6fef.csv
nm,Intensity
526.495,828.7
527.042,830.0
527.589,828.9
528.136,828.2
528.682,829.5
529.229,829.2
529.775,828.6
530.321,830.0
530.867,829.1
531.413,829.1
531.959,830.8
532.505,827.7
533.051,829.7
533.596,831.8
534.141,866.4
534.687,861.4
535.232,858.5
535.777,854.1
536.321,850.2
536.866,850.7
537.41,849.2
537.955,848.9
538.499,849.3
539.043,851.3
539.587,851.4
540.131,845.6
540.675,847.1
541.219,846.9
541.762,848.2
542.305,847.7
542.849,848.9
543.392,849.9
543.935,849.0
544.478,849.0
545.02,846.9
545.563,848.7
546.106,849.5
546.648,848.5
547.19,848.4
547.732,848.2
548.274,851.3
548.816,852.1
549.358,850.2
549.9,849.9
550.441,850.7
550.983,852.9
551.524,851.6
552.065,849.6
552.606,850.7
553.147,852.5
553.688,853.2
554.229,852.5
554.769,854.9
555.31,853.6
555.85,852.2
556.391,857.0
556.931,856.0
557.471,856.1
558.011,858.3
558.551,858.5
559.09,857.4
559.63,858.7
560.169,857.0
560.709,858.7
561.248,858.6
561.787,858.2
562.326,859.4
562.865,860.8
563.404,863.6
563.943,898.3
564.481,873.3
565.02,871.1
565.558,871.6
566.096,914.3
566.634,871.7
567.172,869.9
567.71,872.2
568.248,867.5
568.786,870.3
569.324,869.4
569.861,869.7
570.399,876.5
570.936,879.3
571.473,934.3
572.01,892.7
572.547,884.6
573.084,887.9
573.621,888.0
574.158,891.8
574.694,892.5
575.231,901.2
575.767,926.6
576.303,963.4
576.84,945.9
577.376,938.7
577.912,933.7
578.448,932.7
578.984,938.5
579.519,949.1
580.055,948.3
580.59,956.1
581.126,960.8
581.661,965.0
582.196,969.2
582.731,978.6
583.267,974.5
583.801,984.2
584.336,986.6
584.871,982.6
585.406,985.1
585.94,988.9
586.475,985.8
587.009,998.7
587.543,995.8
588.078,998.0
588.612,1002.6
589.146,996.7
589.68,997.4
590.214,999.9
590.747,1002.4
591.281,1004.6
591.815,1002.6
592.348,1010.2
592.881,1005.4
593.415,1002.1
593.948,1004.5
594.481,1003.0
595.014,1007.2
595.547,1009.3
596.08,1008.4
596.613,1004.9
597.146,1011.1
597.678,1015.3
598.211,1015.6
598.743,1022.0
599.276,1024.1
599.808,1022.8
600.34,1021.7
600.872,1015.0
601.404,1018.1
601.936,1018.1
602.468,1014.6
603.0,1015.3
603.532,1008.1
604.064,1006.4
604.595,993.4
605.127,991.0
605.658,988.4
606.189,980.9
606.721,975.7
607.252,966.8
607.783,967.2
608.314,967.8
608.845,964.9
609.376,962.6
609.907,963.8
610.438,953.5
610.968,954.8
611.499,949.5
612.029,950.8
612.56,947.9
613.09,946.0
613.621,947.1
614.151,944.7
614.681,939.6
615.211,938.6
615.741,934.9
616.271,934.6
616.801,938.5
617.331,934.7
617.861,932.7
618.39,933.0
618.92,929.1
619.45,930.5
619.979,932.7
620.509,927.9
621.038,931.2
621.567,932.7
622.096,944.2
622.626,940.8
623.155,933.7
623.684,932.3
624.213,928.7
624.742,927.3
625.271,934.2
625.799,937.4
626.328,945.4
626.857,1050.9
627.386,1240.6
627.914,1108.7
628.443,1198.5
628.971,1122.0
629.5,1088.5
630.028,1032.1
630.556,1030.9
631.084,981.6
631.613,954.6
632.141,945.0
632.669,942.2
633.197,942.9
633.725,939.6
634.253,941.2
634.781,941.2
635.308,939.5
635.836,943.3
636.364,942.1
636.891,939.3
637.419,939.5
637.947,940.9
638.474,936.6
639.002,937.6
639.529,936.7
640.056,936.3
640.584,935.2
641.111,942.7
641.638,928.3
642.165,934.0
642.692,934.8
643.219,934.8
643.746,928.0
644.273,931.9
644.8,931.3
645.327,928.6
645.854,932.4
646.381,931.2
646.908,930.0
647.434,931.7
647.961,927.8
648.488,932.6
649.014,929.4
649.541,924.9
650.067,926.4
650.594,926.4
651.12,925.4
651.646,923.0
652.173,924.9
652.699,923.4
653.225,923.2
653.752,924.8
654.278,926.0
654.804,922.6
655.33,918.8
655.856,918.1
656.382,919.5
656.908,918.3
657.434,920.8
657.96,912.7
658.486,913.3
659.012,915.9
659.538,912.9
660.064,911.0
660.589,909.3
661.115,905.7
661.641,905.0
662.166,902.1
662.692,896.2
663.086,900.4

File: VLFR_02-HDPE_bio_Raman_8fd2bb53.csv
nm,Intensity
526.495,829.7
527.042,828.6
527.589,828.8
528.136,829.7
528.682,828.6
529.229,828.2
529.775,828.5
530.321,828.1
530.867,829.2
531.413,828.6
531.959,828.5
532.505,828.3
533.051,829.9
533.596,829.0
534.141,844.4
534.687,843.9
535.232,839.8
535.777,842.9
536.321,840.8
536.866,840.6
537.41,842.3
537.955,842.2
538.499,842.4
539.043,842.2
539.587,840.9
540.131,841.9
540.675,842.8
541.219,841.5
541.762,841.7
542.305,841.5
542.849,843.2
543.392,842.5
543.935,841.6
544.478,843.3
545.02,844.2
545.563,843.9
546.106,841.8
546.648,842.3
547.19,846.5
547.732,844.0
548.274,844.4
548.816,844.4
549.358,843.9
549.9,844.1
550.441,844.9
550.983,844.3
551.524,844.2
552.065,844.8
552.606,843.6
553.147,845.1
553.688,842.1
554.229,845.2
554.769,844.1
555.31,843.8
555.85,847.9
556.391,846.2
556.931,845.0
557.471,844.7
558.011,844.8
558.551,846.8
559.09,844.6
559.63,845.9
560.169,847.0
560.709,847.6
561.248,847.9
561.787,854.3
562.326,847.8
562.865,848.9
563.404,848.8
563.943,850.5
564.481,847.7
565.02,848.6
565.558,848.9
566.096,852.2
566.634,851.1
567.172,848.4
567.71,848.0
568.248,848.3
568.786,850.7
569.324,847.0
569.861,847.7
570.399,849.8
570.936,852.3
571.473,857.0
572.01,851.9
572.547,849.3
573.084,851.4
573.621,853.1
574.158,852.5
574.694,852.7
575.231,853.1
575.767,854.9
576.303,858.1
576.84,854.4
577.376,853.5
577.912,853.5
578.448,853.4
578.984,853.9
579.519,852.3
580.055,857.2
580.59,852.9
581.126,854.4
581.661,854.6
582.196,856.4
582.731,858.0
583.267,856.8
583.801,859.2
584.336,859.4
584.871,860.1
585.406,858.9
585.94,862.2
586.475,864.9
587.009,862.8
587.543,867.8
588.078,866.5
588.612,868.7
589.146,870.9
589.68,872.5
590.214,874.2
590.747,873.2
591.281,874.2
591.815,874.7
592.348,875.9
592.881,877.8
593.415,875.4
593.948,880.9
594.481,881.7
595.014,880.0
595.547,878.4
596.08,885.4
596.613,881.0
597.146,884.7
597.678,884.0
598.211,886.8
598.743,888.9
599.276,885.1
599.808,887.8
600.34,890.3
600.872,890.3
601.404,889.0
601.936,888.3
602.468,887.5
603.0,887.0
603.532,889.2
604.064,887.4
604.595,886.1
605.127,881.3
605.658,878.6
606.189,881.8
606.721,879.3
607.252,878.2
607.783,878.0
608.314,876.5
608.845,876.7
609.376,875.7
609.907,874.9
610.438,873.9
610.968,876.6
611.499,875.2
612.029,873.0
612.56,872.1
613.09,873.9
613.621,873.3
614.151,871.2
614.681,869.5
615.211,871.5
615.741,870.2
616.271,872.0
616.801,872.8
617.331,871.6
617.861,869.7
618.39,871.5
618.92,870.8
619.45,871.4
619.979,867.5
620.509,865.9
621.038,867.6
621.567,869.3
622.096,870.4
622.626,870.8
623.155,871.2
623.684,866.4
624.213,865.3
624.742,866.5
625.271,866.6
625.799,867.0
626.328,867.9
626.857,886.0
627.386,910.6
627.914,896.1
628.443,908.9
628.971,889.6
629.5,884.3
630.028,877.3
630.556,880.6
631.084,871.0
631.613,868.6
632.141,867.1
632.669,866.4
633.197,868.3
633.725,864.2
634.253,867.0
634.781,865.5
635.308,864.4
635.836,864.8
636.364,865.7
636.891,869.0
637.419,867.3
637.947,866.7
638.474,865.7
639.002,865.6
639.529,865.5
640.056,865.9
640.584,869.0
641.111,869.4
641.638,869.0
642.165,870.9
642.692,869.2
643.219,870.4
643.746,871.7
644.273,869.9
644.8,871.1
645.327,870.7
645.854,870.1
646.381,871.5
646.908,869.8
647.434,869.8
647.961,873.1
648.488,871.7
649.014,868.1
649.541,870.7
650.067,868.5
650.594,867.5
651.12,874.5
651.646,865.9
652.173,869.1
652.699,870.9
653.225,873.4
653.752,870.5
654.278,870.3
654.804,870.9
655.33,871.0
655.856,870.0
656.382,867.7
656.908,867.3
657.434,868.3
657.96,870.3
658.486,865.3
659.012,863.0
659.538,867.2
660.064,865.6
660.589,865.1
661.115,862.1
661.641,864.2
662.166,860.0
662.692,862.0
663.086,863.2

File: VLFR_02-HDPE_bio_Raman_9a9fe61d.csv
nm,Intensity
526.494,833.2
527.041,834.2
527.588,833.7
528.135,832.7
528.682,833.2
529.229,834.5
529.775,834.3
530.321,833.5
530.868,833.8
531.414,834.8
531.96,848.0
532.506,838.4
533.051,834.0
533.597,835.9
534.142,1036.6
534.687,1052.2
535.232,1041.9
535.777,1046.5
536.322,1060.7
536.867,1049.1
537.411,1043.8
537.956,1049.4
538.5,1054.6
539.044,1055.0
539.588,1062.3
540.132,1063.2
540.676,1063.2
541.22,1069.8
541.763,1068.5
542.306,1070.6
542.85,1077.2
543.393,1077.5
543.936,1086.1
544.479,1083.9
545.021,1092.6
545.564,1098.4
546.106,1096.4
546.649,1093.6
547.191,1099.1
547.733,1095.3
548.275,1107.1
548.817,1106.8
549.359,1106.5
549.9,1112.0
550.442,1102.4
550.983,1109.3
551.524,1112.8
552.066,1115.0
552.607,1114.4
553.148,1113.1
553.688,1110.7
554.229,1116.0
554.77,1111.8
555.31,1117.1
555.85,1114.8
556.39,1116.4
556.931,1119.8
557.471,1122.6
558.01,1124.4
558.55,1125.0
559.09,1114.2
559.629,1116.3
560.169,1125.7
560.708,1126.7
561.247,1123.1
561.786,1125.9
562.325,1129.4
562.864,1124.8
563.403,1131.6
563.941,1154.9
564.48,1136.3
565.018,1142.8
565.557,1139.8
566.095,1149.8
566.633,1137.6
567.171,1137.3
567.709,1139.8
568.247,1137.3
568.784,1143.5
569.322,1152.5
569.859,1154.2
570.397,1151.8
570.934,1154.6
571.471,1184.1
572.008,1164.6
572.545,1164.5
573.082,1158.3
573.619,1167.9
574.155,1171.8
574.692,1168.1
575.228,1171.0
575.765,1173.3
576.301,1199.8
576.837,1192.7
577.373,1178.1
577.909,1175.9
578.445,1172.6
578.981,1170.7
579.516,1169.4
580.052,1163.3
580.587,1170.4
581.123,1174.7
581.658,1168.3
582.193,1179.3
582.728,1170.8
583.263,1169.6
583.798,1157.2
584.333,1166.5
584.868,1169.0
585.402,1167.7
585.937,1162.2
586.471,1162.7
587.005,1174.2
587.54,1171.9
588.074,1165.4
588.608,1167.0
589.142,1171.3
589.676,1161.9
590.21,1163.4
590.743,1169.8
591.277,1174.0
591.81,1165.9
592.344,1165.4
592.877,1165.8
593.411,1171.1
593.944,1173.3
594.477,1165.3
595.01,1170.8
595.543,1172.4
596.076,1174.7
596.608,1172.7
597.141,1174.3
597.674,1165.8
598.206,1187.9
598.739,1190.7
599.271,1187.1
599.803,1187.8
600.335,1183.6
600.868,1191.5
601.4,1191.6
601.931,1187.8
602.463,1200.4
602.995,1194.1
603.527,1201.4
604.058,1200.1
604.59,1200.9
605.121,1195.7
605.653,1198.1
606.184,1196.4
606.715,1204.6
607.246,1201.0
607.778,1199.2
608.309,1210.0
608.839,1216.5
609.37,1207.9
609.901,1211.7
610.432,1201.0
610.962,1204.8
611.493,1210.8
612.023,1210.1
612.554,1211.9
613.084,1213.3
613.614,1222.6
614.145,1222.7
614.675,1220.9
615.205,1219.7
615.735,1214.2
616.265,1216.6
616.795,1218.8
617.324,1214.5
617.854,1228.3
618.384,1215.3
618.913,1216.2
619.443,1220.4
619.972,1219.6
620.502,1217.7
621.031,1217.0
621.56,1233.1
622.089,1229.8
622.618,1228.9
623.147,1217.2
623.676,1215.0
624.205,1217.7
624.734,1213.4
625.263,1215.3
625.792,1208.0
626.32,1224.8
626.849,1340.9
627.377,1489.0
627.906,1357.3
628.434,1483.9
628.963,1345.1
629.491,1309.6
630.019,1275.6
630.547,1255.0
631.076,1211.6
631.604,1178.8
632.132,1172.3
632.66,1159.7
633.188,1159.6
633.715,1147.3
634.243,1148.7
634.771,1138.3
635.299,1132.3
635.826,1129.9
636.354,1129.8
636.881,1121.5
637.409,1116.6
637.936,1108.8
638.464,1104.5
638.991,1103.8
639.518,1100.7
640.045,1101.2
640.573,1090.5
641.1,1088.1
641.627,1089.1
642.154,1086.5
642.681,1081.9
643.208,1069.0
643.735,1070.6
644.261,1064.8
644.788,1062.5
645.315,1061.1
645.842,1056.1
646.368,1059.6
646.895,1053.8
647.421,1057.3
647.948,1050.3
648.474,1048.9
649.001,1043.9
649.527,1043.1
650.054,1040.8
650.58,1033.1
651.106,1037.0
651.633,1038.7
652.159,1033.4
652.685,1034.0
653.211,1030.8
653.737,1029.8
654.263,1029.4
654.789,1025.8
655.315,1023.2
655.841,1020.6
656.367,1019.1
656.893,1022.5
657.419,1009.9
657.945,1016.8
658.47,1021.9
658.996,1015.9
659.522,1011.9
660.047,1009.1
660.573,1007.6
661.099,1006.8
661.624,1000.5
662.15,996.8
662.675,1003.8
663.07,995.7

File: VLFR_02-HDPE_bio_Raman_9e77d582.csv
nm,Intensity
528.626,1862.8
529.132,1863.2
529.637,1863.1
530.143,1863.0
530.648,1864.3
531.153,1866.2
531.658,1922.3
532.164,5882.6
532.669,1868.6
533.174,1866.3
533.679,1970.4
534.184,2296.6
534.689,2306.9
535.194,2355.2
535.699,2318.6
536.203,2293.6
536.708,2217.3
537.213,2273.7
537.717,2254.1
538.222,2241.6
538.726,2209.1
539.231,2199.2
539.735,2190.8
540.239,2193.5
540.744,2222.0
541.248,2204.4
541.752,2208.7
542.256,2208.1
542.76,2201.6
543.264,2208.9
543.768,2275.9
544.272,2385.8
544.776,2217.2
545.28,2218.8
545.784,2255.3
546.287,2502.0
546.791,2339.4
547.294,2250.9
547.798,2244.8
548.301,2248.0
548.805,2254.1
549.308,2287.2
549.811,2305.6
550.315,2382.3
550.818,2268.8
551.321,2235.1
551.824,2280.1
552.327,2250.8
552.83,2248.7
553.333,2264.5
553.835,2277.9
554.338,2264.7
554.841,2292.2
555.343,2279.6
555.846,2273.8
556.349,2288.6
556.851,2289.6
557.353,2299.2
557.856,2297.2
558.358,2325.4
558.86,2280.4
559.362,2302.3
559.864,2299.0
560.366,2300.6
560.868,2312.2
561.37,2333.3
561.872,2520.1
562.374,4451.7
562.876,2397.1
563.377,2368.8
563.879,2770.7
564.38,2462.7
564.882,2411.2
565.383,2423.3
565.885,2671.7
566.386,2941.4
566.887,2426.4
567.388,2411.8
567.889,2353.4
568.391,2341.4
568.892,2343.0
569.392,2343.6
569.893,2346.8
570.394,2369.4
570.895,2380.2
571.395,3016.7
571.896,2552.2
572.397,2398.2
572.897,2360.5
573.397,2350.4
573.898,2415.7
574.398,2330.0
574.898,2346.4
575.398,2724.4
575.898,2659.9
576.398,2912.0
576.898,2748.2
577.398,2541.0
577.898,2398.6
578.398,2341.4
578.897,2369.8
579.397,2363.2
579.896,2367.4
580.396,2374.2
580.895,2376.7
581.395,2377.0
581.894,2394.3
582.393,2389.8
582.892,2383.3
583.391,2403.4
583.89,2414.0
584.389,2394.9
584.888,2404.3
585.387,2399.8
585.886,2412.1
586.384,2410.8
586.883,2414.4
587.381,2417.3
587.88,2433.7
588.378,2410.6
588.876,2381.7
589.375,2378.6
589.873,2390.8
590.371,2422.1
590.869,2411.8
591.367,2421.6
591.865,2429.7
592.363,2419.2
592.86,2418.4
593.358,2422.7
593.856,2425.9
594.353,2429.3
594.851,2425.9
595.348,2462.5
595.845,2452.4
596.342,2482.9
596.84,2477.1
597.337,2506.8
597.834,2484.5
598.331,2516.0
598.828,2538.4
599.324,2552.0
599.821,2583.3
600.318,2563.4
600.814,2556.9
601.311,2570.4
601.807,2575.7
602.304,2563.2
602.8,2546.2
603.296,2541.0
603.792,2550.0
604.288,2536.0
604.784,2540.4
605.28,2525.8
605.776,2513.2
606.272,2485.4
606.767,2498.3
607.263,2487.0
607.759,2455.0
608.254,2454.8
608.749,2450.8
609.245,2434.1
609.74,2444.3
610.235,2433.4
610.73,2448.8
611.225,2458.5
611.72,2432.0
612.215,2405.2
612.71,2421.3
613.204,2400.9
613.699,2401.2
614.194,2395.8
614.688,2402.0
615.182,2393.3
615.677,2412.3
616.171,2371.3
616.665,2414.5
617.159,2410.0
617.653,2420.5
618.147,2458.5
618.641,2420.2
619.135,2422.6
619.628,2454.2
620.122,2426.7
620.615,2477.7
621.109,2463.5
621.602,2532.4
622.095,2638.4
622.589,2597.4
623.082,2466.8
623.575,2437.9
624.068,2427.8
624.561,2406.2
625.053,2439.2
625.546,2437.7
626.039,2552.5
626.531,3038.1
627.024,5660.7
627.516,5605.6
628.008,4711.8
628.501,6478.0
628.993,4564.1
629.485,4160.1
629.977,3625.9
630.469,3457.8
630.96,2906.8
631.452,2546.3
631.944,2445.0
632.435,2405.7
632.927,2382.5
633.418,2359.3
633.91,2357.2
634.401,2343.8
634.892,2349.6
635.383,2314.9
635.874,2297.2
636.365,2309.3
636.856,2300.2
637.346,2300.1
637.837,2294.6
638.327,2295.2
638.818,2294.7
639.308,2287.6
639.799,2286.0
640.289,2273.7
640.779,2264.9
641.269,2280.2
641.759,2271.1
642.249,2271.8
642.738,2277.9
643.228,2246.3
643.718,2273.8
644.207,2282.9
644.697,2265.1
645.186,2278.1
645.675,2273.0
646.164,2267.1
646.653,2274.5
647.142,2274.4
647.631,2265.9
648.12,2267.5
648.609,2287.1
649.098,2329.0
649.586,2395.0
650.075,2415.8
650.563,2378.2
651.051,2310.5
651.539,2241.5
652.027,2254.5
652.515,2239.8
653.003,2221.9
653.491,2238.2
653.979,2232.3
654.467,2189.5
654.954,2198.0
655.442,2194.1
655.929,2188.4
656.416,2138.5
656.904,2174.4
657.391,2175.8
657.878,2178.3
658.365,2164.2
658.851,2162.1
659.338,2150.8
659.825,2164.2
660.311,2152.2
660.798,2155.1
661.041,2140.5