Folder: MPX_specDB/spectra (part 55)

File: VLFR_02-HDPE_nobio_Raman_6ad41a0a.csv
nm,Intensity
526.486,829.6
527.033,831.1
527.579,828.2
528.126,829.3
528.672,829.6
529.219,828.3
529.765,830.0
530.311,830.3
530.857,829.9
531.403,827.9
531.948,831.6
532.494,831.3
533.039,828.3
533.585,828.8
534.13,870.7
534.675,870.1
535.22,862.7
535.764,854.7
536.309,854.0
536.854,850.8
537.398,849.3
537.942,851.0
538.486,848.2
539.03,850.2
539.574,847.3
540.118,849.1
540.662,848.1
541.205,846.8
541.749,846.4
542.292,847.2
542.835,849.6
543.378,849.2
543.921,848.6
544.464,847.0
545.006,848.7
545.549,846.4
546.091,846.9
546.634,847.5
547.176,847.0
547.718,847.6
548.26,848.4
548.802,846.7
549.343,849.4
549.885,847.8
550.426,848.1
550.968,848.2
551.509,846.7
552.05,847.5
552.591,848.2
553.132,848.0
553.673,849.7
554.214,848.0
554.754,850.2
555.295,850.3
555.835,849.5
556.375,849.4
556.915,851.5
557.455,852.6
557.995,852.7
558.535,855.6
559.075,852.1
559.614,854.5
560.154,853.0
560.693,852.9
561.232,854.0
561.772,853.1
562.311,855.6
562.85,854.4
563.388,858.8
563.927,899.5
564.466,869.1
565.004,867.6
565.543,864.7
566.081,927.0
566.619,868.3
567.157,861.7
567.695,861.9
568.233,857.6
568.771,856.8
569.309,859.8
569.846,857.6
570.384,861.4
570.921,863.6
571.458,926.1
571.995,877.8
572.532,861.6
573.069,860.4
573.606,861.0
574.143,867.2
574.68,860.8
575.216,862.3
575.753,913.8
576.289,930.4
576.825,903.8
577.361,889.0
577.897,865.1
578.433,862.0
578.969,860.2
579.505,862.0
580.041,863.4
580.576,858.8
581.112,860.3
581.647,857.4
582.183,863.1
582.718,858.3
583.253,859.3
583.788,858.5
584.323,862.2
584.858,861.0
585.392,862.7
585.927,865.6
586.462,863.8
586.996,865.3
587.53,866.2
588.065,866.5
588.599,865.8
589.133,866.9
589.667,866.4
590.201,869.6
590.735,869.2
591.268,868.5
591.802,870.1
592.335,868.1
592.869,871.7
593.402,870.5
593.936,873.5
594.469,874.0
595.002,872.9
595.535,876.2
596.068,878.6
596.601,880.4
597.133,881.3
597.666,886.7
598.199,881.9
598.731,887.7
599.264,888.0
599.796,893.4
600.328,894.5
600.86,893.8
601.393,891.8
601.925,895.8
602.457,894.4
602.988,891.0
603.52,892.8
604.052,888.6
604.583,886.4
605.115,885.3
605.646,883.3
606.178,882.7
606.709,879.4
607.24,877.2
607.771,877.4
608.302,874.1
608.833,876.1
609.364,874.2
609.895,874.2
610.426,874.8
610.957,872.9
611.487,875.0
612.018,875.6
612.548,872.5
613.078,872.9
613.609,873.5
614.139,873.2
614.669,871.4
615.199,869.1
615.729,872.9
616.259,872.9
616.789,873.1
617.319,877.3
617.849,876.7
618.378,876.3
618.908,875.7
619.437,873.2
619.967,875.2
620.496,875.5
621.025,876.3
621.555,885.8
622.084,895.0
622.613,899.2
623.142,878.4
623.671,873.1
624.2,875.1
624.729,876.3
625.258,877.4
625.786,881.1
626.315,893.1
626.844,1027.9
627.372,1319.0
627.901,1133.2
628.429,1208.4
628.957,1172.4
629.486,1105.3
630.014,1029.5
630.542,1012.4
631.07,942.1
631.598,893.4
632.126,877.7
632.654,872.8
633.182,875.1
633.71,868.7
634.237,868.9
634.765,866.4
635.293,868.2
635.82,865.9
636.348,866.2
636.875,866.7
637.403,865.8
637.93,862.1
638.458,861.7
638.985,860.9
639.512,862.1
640.039,860.8
640.566,861.1
641.093,863.5
641.62,863.5
642.147,860.8
642.674,862.4
643.201,862.6
643.728,860.1
644.255,861.0
644.781,862.2
645.308,862.0
645.835,861.7
646.361,863.5
646.888,864.7
647.414,863.0
647.941,863.9
648.467,866.5
648.993,864.2
649.52,864.1
650.046,864.4
650.572,867.4
651.098,864.8
651.625,864.7
652.151,864.8
652.677,864.6
653.203,865.3
653.729,862.9
654.255,864.2
654.78,869.9
655.306,864.2
655.832,865.8
656.358,863.7
656.884,861.9
657.409,863.1
657.935,863.6
658.461,863.9
658.986,860.1
659.512,864.2
660.037,864.3
660.563,861.0
661.088,858.0
661.614,857.4
662.139,855.0
662.664,858.5
663.058,856.5

File: VLFR_02-HDPE_nobio_Raman_6ce42be9.csv
nm,Intensity
526.486,828.8
527.033,828.8
527.579,829.2
528.126,828.3
528.672,829.3
529.219,829.2
529.765,827.6
530.311,828.6
530.857,829.1
531.403,829.4
531.948,835.7
532.494,831.9
533.039,829.3
533.585,828.6
534.13,883.3
534.675,886.0
535.22,882.1
535.764,859.1
536.309,851.0
536.854,845.8
537.398,850.0
537.942,846.1
538.486,845.1
539.03,843.3
539.574,841.5
540.118,840.3
540.662,839.4
541.205,839.5
541.749,837.0
542.292,838.2
542.835,836.9
543.378,838.2
543.921,838.6
544.464,837.0
545.006,837.4
545.549,835.6
546.091,837.0
546.634,837.7
547.176,839.5
547.718,837.1
548.26,838.3
548.802,838.8
549.343,838.1
549.885,837.5
550.426,838.7
550.968,837.5
551.509,837.7
552.05,836.4
552.591,839.5
553.132,838.0
553.673,839.9
554.214,838.7
554.754,839.3
555.295,839.4
555.835,841.5
556.375,843.0
556.915,842.4
557.455,844.2
557.995,844.6
558.535,848.1
559.075,844.8
559.614,843.5
560.154,842.6
560.693,841.8
561.232,845.6
561.772,842.3
562.311,848.0
562.85,847.2
563.388,847.4
563.927,905.4
564.466,868.5
565.004,859.5
565.543,853.5
566.081,914.9
566.619,856.8
567.157,849.8
567.695,856.4
568.233,846.2
568.771,846.3
569.309,846.5
569.846,846.1
570.384,848.8
570.921,853.0
571.458,942.5
571.995,873.8
572.532,854.1
573.069,849.8
573.606,850.2
574.143,857.4
574.68,849.3
575.216,851.2
575.753,896.8
576.289,1000.7
576.825,925.7
577.361,910.1
577.897,861.3
578.433,852.4
578.969,851.4
579.505,852.7
580.041,850.7
580.576,853.0
581.112,852.5
581.647,853.0
582.183,851.7
582.718,852.8
583.253,853.6
583.788,854.9
584.323,856.1
584.858,857.5
585.392,860.7
585.927,864.0
586.462,864.3
586.996,870.5
587.53,869.8
588.065,874.4
588.599,874.4
589.133,877.6
589.667,883.2
590.201,886.0
590.735,889.6
591.268,894.3
591.802,896.7
592.335,896.7
592.869,902.0
593.402,902.6
593.936,901.2
594.469,904.7
595.002,913.9
595.535,912.6
596.068,912.6
596.601,913.7
597.133,920.8
597.666,919.0
598.199,921.8
598.731,925.7
599.264,926.8
599.796,923.7
600.328,923.5
600.86,930.2
601.393,931.4
601.925,928.2
602.457,929.3
602.988,928.0
603.52,927.6
604.052,923.5
604.583,920.1
605.115,924.1
605.646,915.5
606.178,912.4
606.709,907.2
607.24,904.9
607.771,903.5
608.302,903.4
608.833,901.7
609.364,900.1
609.895,897.6
610.426,900.3
610.957,899.3
611.487,897.9
612.018,894.0
612.548,893.6
613.078,894.0
613.609,896.4
614.139,892.8
614.669,891.5
615.199,891.6
615.729,889.8
616.259,892.5
616.789,893.2
617.319,902.1
617.849,899.4
618.378,899.3
618.908,895.6
619.437,896.1
619.967,899.1
620.496,896.2
621.025,900.9
621.555,919.1
622.084,947.5
622.613,948.9
623.142,910.6
623.671,899.8
624.2,894.6
624.729,895.8
625.258,900.5
625.786,910.3
626.315,939.5
626.844,1240.0
627.372,1829.0
627.901,1415.5
628.429,1693.2
628.957,1410.3
629.486,1277.2
630.014,1151.8
630.542,1121.7
631.07,995.3
631.598,912.8
632.126,897.0
632.654,887.5
633.182,887.5
633.71,881.4
634.237,879.9
634.765,876.3
635.293,874.3
635.82,878.0
636.348,876.2
636.875,877.3
637.403,873.6
637.93,869.8
638.458,868.2
638.985,873.4
639.512,872.0
640.039,873.5
640.566,872.7
641.093,873.3
641.62,874.4
642.147,876.5
642.674,873.4
643.201,876.3
643.728,872.2
644.255,877.3
644.781,879.1
645.308,876.8
645.835,877.3
646.361,878.7
646.888,880.0
647.414,881.3
647.941,883.1
648.467,880.7
648.993,879.6
649.52,879.9
650.046,881.0
650.572,880.3
651.098,880.5
651.625,882.0
652.151,880.5
652.677,886.2
653.203,881.2
653.729,879.7
654.255,880.8
654.78,881.1
655.306,880.9
655.832,881.7
656.358,878.4
656.884,876.3
657.409,877.8
657.935,874.5
658.461,875.3
658.986,877.0
659.512,874.0
660.037,876.8
660.563,872.8
661.088,871.5
661.614,867.5
662.139,868.3
662.664,867.2
663.058,867.1

File: VLFR_02-HDPE_nobio_Raman_6d99fcfb.csv
nm,Intensity
526.547,832.4
527.094,831.2
527.641,833.0
528.188,832.7
528.734,833.7
529.281,832.5
529.827,833.5
530.373,831.8
530.92,834.3
531.466,833.0
532.011,839.0
532.557,833.9
533.103,833.4
533.648,834.1
534.193,911.8
534.738,902.3
535.283,890.6
535.828,875.9
536.373,872.0
536.917,866.5
537.462,868.5
538.006,868.2
538.55,867.0
539.094,862.4
539.638,860.2
540.182,857.6
540.726,858.0
541.269,860.2
541.812,855.4
542.356,856.4
542.899,853.2
543.442,856.1
543.985,858.0
544.527,858.3
545.07,858.8
545.612,858.6
546.155,861.6
546.697,858.6
547.239,859.7
547.781,857.4
548.323,858.8
548.865,858.1
549.406,857.5
549.948,856.2
550.489,859.4
551.03,858.3
551.572,857.7
552.113,860.4
552.654,858.6
553.194,861.0
553.735,861.9
554.276,863.0
554.816,862.4
555.356,864.8
555.896,864.5
556.437,867.2
556.977,868.4
557.516,869.3
558.056,872.8
558.596,875.6
559.135,872.4
559.675,870.6
560.214,869.9
560.753,871.2
561.292,872.0
561.831,873.4
562.37,876.7
562.909,878.5
563.448,882.5
563.986,1022.8
564.525,906.9
565.063,897.5
565.601,896.5
566.139,1110.0
566.677,896.7
567.215,888.4
567.753,886.4
568.291,883.6
568.828,889.0
569.366,886.1
569.903,890.0
570.441,896.1
570.978,903.3
571.515,1145.5
572.052,925.3
572.589,906.8
573.126,902.8
573.662,909.0
574.199,916.9
574.735,909.7
575.272,929.9
575.808,999.5
576.344,1083.6
576.88,1022.8
577.416,991.0
577.952,959.4
578.488,965.5
579.024,974.4
579.559,988.6
580.095,1002.3
580.63,1021.3
581.166,1030.2
581.701,1048.3
582.236,1064.4
582.771,1082.8
583.306,1083.3
583.841,1097.2
584.376,1098.7
584.911,1113.0
585.445,1112.9
585.98,1117.7
586.514,1123.4
587.048,1132.0
587.583,1133.4
588.117,1130.8
588.651,1122.6
589.185,1126.8
589.719,1131.2
590.253,1127.5
590.786,1126.1
591.32,1129.1
591.853,1127.5
592.387,1124.8
592.92,1131.1
593.454,1125.2
593.987,1121.3
594.52,1123.0
595.053,1126.2
595.586,1119.0
596.119,1125.0
596.651,1119.7
597.184,1126.5
597.717,1133.0
598.249,1123.0
598.782,1129.6
599.314,1128.2
599.846,1137.1
600.379,1127.7
600.911,1134.2
601.443,1128.6
601.975,1129.9
602.507,1127.2
603.038,1125.1
603.57,1119.1
604.102,1113.7
604.633,1105.9
605.165,1098.1
605.696,1086.1
606.228,1077.1
606.759,1077.9
607.29,1075.0
607.821,1065.0
608.352,1062.2
608.883,1059.8
609.414,1048.7
609.945,1042.4
610.476,1040.5
611.006,1036.5
611.537,1028.7
612.067,1025.3
612.598,1022.2
613.128,1026.8
613.659,1017.2
614.189,1015.0
614.719,1009.4
615.249,1008.5
615.779,1004.7
616.309,1003.8
616.839,1004.1
617.369,1008.9
617.899,1007.8
618.428,1004.2
618.958,999.2
619.487,1003.6
620.017,1001.2
620.546,1003.3
621.076,999.8
621.605,1013.1
622.134,1041.3
622.663,1030.1
623.193,1004.4
623.722,1002.5
624.251,1003.1
624.78,1002.7
625.308,1004.8
625.837,1019.0
626.366,1056.6
626.895,1357.9
627.423,1765.0
627.952,1443.7
628.48,1797.7
629.009,1563.5
629.537,1411.7
630.065,1298.8
630.594,1264.2
631.122,1121.0
631.65,1051.1
632.178,1040.2
632.706,1030.2
633.234,1034.8
633.762,1025.3
634.29,1024.1
634.818,1024.7
635.346,1020.3
635.873,1022.9
636.401,1022.0
636.929,1015.4
637.456,1015.9
637.984,1014.5
638.511,1007.5
639.039,1009.2
639.566,1004.2
640.093,1002.4
640.62,998.5
641.148,1001.6
641.675,1004.7
642.202,995.9
642.729,995.6
643.256,985.9
643.783,993.0
644.31,983.3
644.837,985.7
645.364,979.6
645.891,980.8
646.417,981.8
646.944,977.6
647.471,974.5
647.997,976.3
648.524,974.6
649.051,968.0
649.577,974.3
650.104,966.7
650.63,968.2
651.157,970.0
651.683,967.1
652.209,963.0
652.736,959.9
653.262,959.5
653.788,957.9
654.314,959.5
654.84,953.9
655.366,957.1
655.893,954.8
656.419,953.0
656.945,951.9
657.471,948.9
657.997,947.3
658.522,947.0
659.048,944.1
659.574,943.3
660.1,943.9
660.626,935.0
661.152,933.0
661.677,929.5
662.203,928.5
662.729,926.0
663.123,922.9

File: VLFR_02-HDPE_nobio_Raman_6f6388c4.csv
cm-1,Intensity
-123.878,1854.55
-105.821,1854.55
-87.8007,1856.3
-69.8161,1856.5
-51.8675,1855.9
-33.9547,1858.2
-16.0776,1875.6
1.76388,2966.5
19.5698,1858.85
37.3403,1858.3
55.0755,2137.95
72.7754,3065.35
90.4402,3076.25
108.07,3133.75
125.665,3152.85
143.225,3157.8
160.75,3201.8
178.241,3235.7
195.697,3277.1
213.119,3288.3
230.506,3280.6
247.859,3304.1
265.178,3377.25
282.463,3416.05
299.713,3473.15
316.93,3495.85
334.113,3510.3
351.263,3591.1
368.379,3636.1
385.461,3659.45
402.51,3736.65
419.526,3779.45
436.508,3882.3
453.458,3847.05
470.374,3968.45
487.257,3943.3
504.107,4074.7
520.925,4064.0
537.71,4136.35
554.462,4226.35
571.182,4246.9
587.87,4309.75
604.525,4316.2
621.148,4301.55
637.739,4453.0
654.297,4500.5
670.824,4527.8
687.319,4661.2
703.782,4639.25
720.213,4634.85
736.613,4710.1
752.981,4721.5
769.317,4819.75
785.623,4870.2
801.897,4932.65
818.139,4994.2
834.351,5007.95
850.532,4944.4
866.681,5070.15
882.8,5076.4
898.888,5188.65
914.945,5366.85
930.972,5373.55
946.968,5366.6
962.934,5391.15
978.869,5457.5
994.774,5503.1
1010.65,5456.25
1026.49,5580.35
1042.31,5715.0
1058.09,5769.65
1073.85,5838.55
1089.57,5946.65
1105.27,5807.85
1120.93,5949.6
1136.57,5875.6
1152.18,6056.35
1167.75,6147.65
1183.3,6242.65
1198.82,6245.2
1214.31,6250.9
1229.77,6286.75
1245.2,6363.35
1260.6,6394.55
1275.97,6453.15
1291.32,6648.3
1306.63,6720.25
1321.92,6835.25
1337.18,6853.65
1352.41,6878.8
1367.61,6740.8
1382.78,6623.95
1397.93,6752.7
1413.05,6834.55
1428.14,7023.1
1443.2,7149.45
1458.23,7160.15
1473.23,7134.9
1488.21,7054.7
1503.16,6936.2
1518.08,7131.9
1532.97,7139.1
1547.84,7230.8
1562.68,7513.35
1577.49,7475.4
1592.27,7432.1
1607.03,7382.65
1621.76,7222.4
1636.46,7179.4
1651.14,7340.3
1665.78,7308.05
1680.41,7282.45
1695.0,7290.7
1709.57,7399.6
1724.11,7466.45
1738.62,7228.25
1753.11,7199.8
1767.57,7300.5
1782.01,7411.65
1796.41,7405.25
1810.8,7569.9
1825.15,7371.35
1839.48,7499.0
1853.79,7568.4
1868.06,7577.0
1882.31,7473.85
1896.54,7586.55
1910.74,7399.05
1924.91,7676.2
1939.06,7712.8
1953.19,7784.1
1967.28,7859.15
1981.35,7903.05
1995.4,7910.2
2009.42,7934.55
2023.42,8143.65
2037.39,7886.65
2051.33,8007.45
2065.25,8122.65
2079.15,8148.0
2093.01,8294.1
2106.86,8399.55
2120.68,8374.7
2134.47,8315.75
2148.24,8339.9
2161.99,8485.45
2175.71,8444.9
2189.41,8703.15
2203.08,8603.7
2216.73,8829.15
2230.35,8690.7
2243.95,8825.7
2257.52,8945.0
2271.07,8885.85
2284.6,8719.3
2298.1,8847.3
2311.58,9134.8
2325.03,9287.05
2338.46,9286.2
2351.87,9185.6
2365.25,9121.6
2378.61,9107.55
2391.94,9165.8
2405.26,9249.2
2418.54,9404.3
2431.81,9549.9
2445.05,9464.4
2458.27,9669.7
2471.46,9575.5
2484.63,9658.3
2497.78,9505.7
2510.9,9709.85
2524.0,9744.4
2537.08,9454.75
2550.14,9675.85
2563.17,9698.9
2576.18,9637.2
2589.17,9636.7
2602.13,9765.55
2615.07,9929.75
2627.99,9661.1
2640.89,9640.05
2653.76,9682.5
2666.61,9833.4
2679.44,9562.2
2692.25,10048.8
2705.03,9994.3
2717.79,9865.2
2730.53,9842.4
2743.25,9768.5
2755.94,9720.25
2768.61,9661.75
2781.27,9518.7
2793.89,9604.75
2806.5,9703.25
2819.09,9857.45
2831.65,9659.75
2844.19,9881.15
2856.71,9723.05
2869.21,9730.0
2881.69,10011.4
2894.14,9818.1
2906.58,9365.5
2918.99,9688.5
2931.38,9771.05
2943.75,9803.35
2956.1,9289.35
2968.42,9428.65
2980.73,9796.05
2993.01,9056.45
3005.28,9437.5
3017.52,9415.0
3029.74,9120.5
3041.94,9354.0
3054.12,9076.9
3066.28,9210.8
3078.42,9205.3
3090.54,8977.5
3102.63,8837.5
3114.71,8800.4
3126.77,8703.65
3138.8,8531.35
3150.82,8784.85
3162.81,8688.1
3174.78,8687.35
3186.74,8585.65
3198.67,8457.1
3210.58,8691.4
3222.47,8569.95
3234.35,8531.65
3246.2,8442.8
3258.03,8465.35
3269.84,8337.35
3281.64,8487.45
3293.41,8350.5
3305.16,8331.85
3316.89,8316.45
3328.61,8298.5
3340.3,7842.1
3351.97,8073.8
3363.63,8031.2
3375.26,8143.25
3386.88,7711.75
3398.47,7838.6
3410.05,7671.6
3421.6,7641.95
3433.14,7576.85
3444.66,7803.75
3456.15,7883.0
3467.63,7506.55
3479.09,7660.35
3490.53,7438.55
3501.96,7423.5
3513.36,7449.05
3524.74,7183.25
3536.11,7461.15
3547.45,6877.6
3558.78,6940.0
3570.09,6997.15
3581.37,7296.45
3592.64,6899.25
3603.9,7118.7
3615.13,6759.55
3626.34,6772.8
3637.54,6694.3
3648.72,6640.05
3659.87,6599.25
3665.45,6706.45

File: VLFR_02-HDPE_nobio_Raman_7c0ee864.csv
nm,Intensity
526.5,830.3
527.047,829.6
527.594,827.8
528.14,828.0
528.687,828.3
529.233,827.4
529.779,829.4
530.325,828.8
530.871,829.6
531.417,829.7
531.962,836.2
532.508,830.3
533.053,828.6
533.599,829.5
534.144,873.7
534.689,864.9
535.234,861.2
535.778,857.1
536.323,853.3
536.867,852.3
537.412,854.7
537.956,854.5
538.5,852.1
539.044,852.3
539.588,852.8
540.132,851.2
540.675,852.4
541.219,852.2
541.762,850.7
542.305,852.0
542.848,854.0
543.391,850.8
543.934,850.2
544.477,850.8
545.02,851.5
545.562,853.4
546.105,850.8
546.647,852.6
547.189,851.3
547.731,854.8
548.273,855.3
548.815,853.9
549.356,852.0
549.898,855.2
550.439,852.9
550.981,852.2
551.522,855.2
552.063,854.8
552.604,854.4
553.145,857.2
553.686,855.0
554.226,855.6
554.767,857.5
555.307,855.9
555.848,856.4
556.388,855.4
556.928,857.6
557.468,858.9
558.008,859.2
558.547,859.9
559.087,858.5
559.626,860.5
560.166,857.2
560.705,858.1
561.244,858.2
561.783,857.6
562.322,858.7
562.861,859.9
563.4,864.0
563.939,882.5
564.477,868.4
565.015,870.7
565.554,866.3
566.092,892.5
566.63,867.0
567.168,865.7
567.706,868.1
568.244,862.0
568.781,865.0
569.319,865.8
569.857,865.7
570.394,865.8
570.931,872.3
571.468,906.1
572.005,880.1
572.542,874.3
573.079,867.1
573.616,870.7
574.153,876.8
574.689,873.2
575.226,877.3
575.762,893.3
576.298,928.1
576.834,906.1
577.371,895.0
577.907,883.4
578.442,882.3
578.978,887.8
579.514,887.5
580.049,886.4
580.585,888.6
581.12,894.2
581.656,894.4
582.191,891.5
582.726,900.0
583.261,896.3
583.796,896.7
584.331,900.2
584.865,900.7
585.4,901.8
585.935,904.8
586.469,908.9
587.004,910.2
587.538,909.9
588.072,910.8
588.606,909.7
589.14,914.2
589.674,915.0
590.208,919.9
590.742,923.7
591.275,921.9
591.809,925.0
592.342,931.8
592.876,930.8
593.409,932.6
593.942,934.8
594.476,940.0
595.009,940.5
595.542,944.1
596.075,944.6
596.607,948.0
597.14,953.9
597.673,955.9
598.205,960.6
598.738,957.9
599.27,966.4
599.803,965.0
600.335,965.4
600.867,966.2
601.399,963.4
601.931,964.1
602.463,958.9
602.995,957.3
603.527,957.7
604.058,954.2
604.59,951.6
605.122,952.8
605.653,947.0
606.184,943.8
606.716,935.7
607.247,939.0
607.778,934.5
608.309,934.4
608.84,930.8
609.371,930.2
609.902,925.1
610.433,921.4
610.964,922.3
611.494,920.1
612.025,918.4
612.556,918.5
613.086,913.7
613.616,917.0
614.147,914.3
614.677,914.4
615.207,912.6
615.737,911.9
616.267,911.8
616.797,908.1
617.327,911.7
617.857,910.5
618.387,910.5
618.917,909.9
619.446,905.5
619.976,911.7
620.505,909.9
621.035,906.7
621.564,911.8
622.093,921.0
622.623,915.9
623.152,910.0
623.681,908.8
624.21,903.8
624.739,905.1
625.268,909.9
625.797,905.4
626.326,914.1
626.855,991.6
627.383,1132.0
627.912,1030.9
628.441,1104.8
628.969,1064.1
629.498,1026.0
630.026,990.4
630.554,973.7
631.083,932.0
631.611,913.5
632.139,905.0
632.667,906.9
633.195,902.4
633.724,900.4
634.252,899.0
634.779,900.3
635.307,901.8
635.835,900.6
636.363,900.4
636.891,898.2
637.418,900.4
637.946,897.3
638.474,897.6
639.001,897.2
639.529,896.9
640.056,897.5
640.583,896.8
641.111,899.4
641.638,899.4
642.165,898.0
642.692,902.1
643.22,899.0
643.747,898.5
644.274,897.2
644.801,900.6
645.328,900.7
645.854,900.8
646.381,902.0
646.908,900.6
647.435,901.5
647.962,901.7
648.488,903.2
649.015,903.7
649.542,901.6
650.068,903.2
650.595,905.1
651.121,903.8
651.648,904.9
652.174,905.6
652.7,904.7
653.227,905.0
653.753,907.1
654.279,909.1
654.805,906.1
655.331,904.0
655.858,903.5
656.384,902.9
656.91,906.2
657.436,904.2
657.962,904.7
658.488,899.9
659.013,904.3
659.539,903.3
660.065,903.8
660.591,902.5
661.117,896.4
661.642,898.8
662.168,897.0
662.694,898.0
663.088,898.6

File: VLFR_02-HDPE_nobio_Raman_7c3a38b7.csv
nm,Intensity
526.532,830.133
527.079,830.333
527.625,830.0
528.172,829.933
528.718,829.4
529.265,829.233
529.811,830.1
530.357,828.933
530.903,829.767
531.449,830.6
531.994,833.667
532.54,830.2
533.085,830.033
533.63,830.8
534.176,900.9
534.721,900.167
535.266,896.467
535.81,871.1
536.355,864.5
536.9,861.7
537.444,860.867
537.988,860.7
538.533,858.6
539.077,855.333
539.621,854.667
540.165,853.1
540.708,852.4
541.252,852.467
541.795,852.933
542.339,852.767
542.882,851.033
543.425,850.5
543.968,852.3
544.511,851.033
545.054,852.167
545.597,851.0
546.139,851.467
546.682,851.367
547.224,851.767
547.766,852.2
548.308,850.8
548.85,852.1
549.392,850.667
549.934,850.933
550.475,851.9
551.017,853.3
551.558,853.1
552.1,853.1
552.641,852.0
553.182,853.067
553.723,853.167
554.264,855.733
554.804,857.067
555.345,854.167
555.885,856.633
556.426,857.0
556.966,856.967
557.506,858.267
558.046,860.433
558.586,858.767
559.126,858.3
559.665,859.267
560.205,856.133
560.745,858.067
561.284,857.967
561.823,857.767
562.362,858.533
562.901,861.5
563.44,863.1
563.979,959.5
564.518,879.133
565.056,873.267
565.595,868.067
566.133,946.567
566.671,868.133
567.21,867.7
567.748,868.9
568.285,860.533
568.823,858.567
569.361,861.967
569.899,861.767
570.436,866.4
570.974,869.8
571.511,1036.07
572.048,884.733
572.585,867.433
573.122,862.233
573.659,863.033
574.196,867.067
574.733,861.633
575.269,866.9
575.806,897.633
576.342,1026.8
576.878,943.933
577.414,912.4
577.951,871.433
578.486,864.633
579.022,862.967
579.558,862.167
580.094,862.8
580.629,862.533
581.165,863.0
581.7,862.833
582.236,861.933
582.771,863.3
583.306,863.1
583.841,862.9
584.376,863.8
584.911,863.233
585.445,864.667
585.98,864.3
586.514,866.367
587.049,866.567
587.583,868.033
588.117,867.233
588.651,868.433
589.186,865.733
589.72,866.767
590.253,869.733
590.787,869.267
591.321,870.233
591.854,870.2
592.388,869.367
592.921,870.6
593.455,870.7
593.988,871.1
594.521,872.867
595.054,874.267
595.587,874.2
596.12,875.7
596.653,872.367
597.186,876.833
597.718,873.5
598.251,880.567
598.783,879.833
599.316,880.133
599.848,880.733
600.38,881.767
600.912,882.367
601.444,881.0
601.976,885.2
602.508,883.067
603.04,882.1
603.572,881.567
604.103,880.4
604.635,879.733
605.167,878.067
605.698,876.5
606.229,876.4
606.761,874.9
607.292,874.067
607.823,872.1
608.354,873.033
608.885,873.933
609.416,872.933
609.947,872.2
610.477,873.767
611.008,874.1
611.539,872.8
612.069,871.333
612.6,871.8
613.13,873.2
613.66,869.2
614.19,869.733
614.721,872.433
615.251,872.667
615.781,871.533
616.311,872.167
616.841,878.9
617.37,884.833
617.9,884.7
618.43,883.967
618.96,885.067
619.489,887.633
620.019,887.333
620.548,889.7
621.077,896.733
621.607,912.733
622.136,954.767
622.665,941.6
623.194,899.533
623.723,892.633
624.252,889.0
624.781,887.2
625.31,894.1
625.839,906.833
626.368,951.667
626.896,1379.07
627.425,1857.0
627.953,1450.73
628.482,1917.77
629.01,1410.17
629.539,1283.7
630.067,1154.63
630.596,1126.17
631.124,976.567
631.652,908.567
632.18,892.4
632.708,888.033
633.236,884.367
633.764,880.133
634.292,875.7
634.82,874.733
635.348,873.5
635.876,872.8
636.403,871.6
636.931,873.467
637.459,868.667
637.986,867.267
638.514,865.867
639.041,868.033
639.568,866.433
640.096,865.133
640.623,866.267
641.15,865.367
641.678,866.467
642.205,866.2
642.732,865.667
643.259,865.0
643.786,864.467
644.313,864.967
644.84,863.6
645.367,863.067
645.894,863.1
646.421,862.533
646.948,863.367
647.474,862.0
648.001,863.233
648.528,862.767
649.054,862.067
649.581,860.033
650.108,862.8
650.634,863.233
651.161,864.233
651.687,861.067
652.214,863.367
652.74,862.0
653.266,861.1
653.793,862.2
654.319,860.7
654.845,861.433
655.371,860.6
655.897,860.167
656.424,859.3
656.95,862.1
657.476,860.433
658.002,861.567
658.528,861.067
659.054,862.067
659.58,860.9
660.106,864.3
660.631,862.167
661.157,859.933
661.683,860.9
662.209,858.567
662.735,858.533
663.129,858.633