Folder: MPX_specDB/spectra (part 95)

File: VLFR_07-PET_bio_Raman_5ead9a45.csv
nm,Intensity
791.377,10814.2
792.477,9968.26
793.576,9437.34
794.676,9346.94
795.775,9081.78
796.874,8953.42
797.973,8990.48
799.072,9043.54
800.171,9039.22
801.27,9019.38
802.368,8947.68
803.467,8831.32
804.565,8743.28
805.664,8680.04
806.762,8619.9
807.86,8630.36
808.958,8511.14
810.056,8421.8
811.153,8421.54
812.251,8360.44
813.349,8262.52
814.446,8136.6
815.543,8055.76
816.64,7998.68
817.737,7893.92
818.834,7894.26
819.931,7934.46
821.028,7743.32
822.125,7659.74
823.221,7602.04
824.317,7536.5
825.414,7638.34
826.51,7561.48
827.606,7450.48
828.702,7352.24
829.797,7267.4
830.893,7403.74
831.988,7278.54
833.084,7211.34
834.179,7139.56
835.274,7062.34
836.369,7157.58
837.464,7110.8
838.559,7178.26
839.654,7159.92
840.748,7227.7
841.843,7201.08
842.937,7001.88
844.031,6834.86
845.125,6767.16
846.219,6674.32
847.313,6715.04
848.407,6615.82
849.5,6513.98
850.593,6498.56
851.687,6537.64
852.78,6521.48
853.873,6400.4
854.966,6440.04
856.059,6358.48
857.151,6306.8
858.244,6393.82
859.336,6392.68
860.428,6484.76
861.52,6298.32
862.612,6162.88
863.704,6157.62
864.796,6156.1
865.888,6108.14
866.979,5980.28
868.07,6008.0
869.162,5995.9
870.253,5997.26
871.344,6083.72
872.434,6225.8
873.525,6159.48
874.615,6014.96
875.706,5891.6
876.796,5889.9
877.886,5818.86
878.976,5773.06
880.066,5703.5
881.156,5740.48
882.245,5737.28
883.335,5699.64
884.424,5680.62
885.513,5633.32
886.602,5622.1
887.691,5578.82
888.78,5514.98
889.868,5499.86
890.957,5466.58
892.045,5471.26
893.133,5420.38
894.221,5371.04
895.309,5318.48
896.397,5338.32
897.484,5442.28
898.571,5851.56
899.659,5543.86
900.746,5217.08
901.833,5181.56
902.92,5112.56
904.006,5127.78
905.093,5129.56
906.179,5178.06
907.266,5386.38
908.352,5479.38
909.438,5180.54
910.523,4997.76
911.609,4945.38
912.695,4906.48
913.78,4848.72
914.865,4853.02
915.95,4813.66
917.035,4798.2
918.12,4761.4
919.204,4754.92
920.289,4723.7
921.373,4692.2
922.457,4686.26
923.541,4648.58
924.625,4610.9
925.709,4604.5
926.792,4563.12
927.876,4568.6
928.959,4514.96
930.042,4479.18
931.125,4456.44
932.208,4446.88
933.29,4418.26
934.373,4393.02
935.455,4398.4
936.537,4361.78
937.619,4344.96
938.701,4328.64
939.782,4297.18
940.864,4310.8
941.945,4284.08
943.026,4258.68
944.107,4242.9
945.188,4229.32
946.269,4228.62
947.349,4197.0
948.43,4195.38
949.51,4165.86
950.59,4162.58
951.67,4140.96
952.75,4133.6
953.829,4138.48
954.909,4111.52
955.988,4103.76
957.067,4095.76
958.146,4087.9
959.224,4073.26
960.303,4069.34
961.381,4052.74
962.459,4044.68
963.537,4036.82
964.615,4033.64
965.693,4025.06
966.771,4010.52
967.848,4008.6
968.925,4002.98
970.002,3996.52
971.079,3985.1
972.156,3988.92
973.232,3971.66
974.309,3966.26
975.385,3954.52
976.461,3954.1
977.537,3946.02
978.612,3944.5
979.688,3936.78
980.763,3933.74
981.838,3925.6
982.913,3928.26
983.988,3915.02
985.063,3914.32
986.137,3911.26
987.211,3901.96
988.285,3901.44
989.359,3897.7
990.433,3892.54
991.506,3889.48
992.58,3882.0
993.653,3878.06
994.726,3875.16
995.799,3874.78
996.872,3868.32
997.944,3863.88
999.016,3864.12
1000.09,3862.66
1001.16,3852.2
1002.23,3854.4
1003.3,3849.72
1004.38,3847.8
1005.45,3844.76
1006.52,3841.18
1007.59,3837.32
1008.66,3836.34
1009.73,3834.64
1010.8,3832.08
1011.87,3830.66
1012.94,3828.32
1014.01,3827.26
1015.08,3825.22
1016.15,3822.08
1017.22,3822.54
1018.29,3819.68
1019.36,3817.46
1020.42,3815.44
1021.49,3818.64
1022.56,3820.6
1023.63,3818.8
1024.7,3815.2
1025.76,3810.38
1026.83,3807.78
1027.9,3805.58
1028.97,3802.82
1030.03,3798.52
1031.1,3798.36
1032.17,3799.24
1033.23,3798.58
1034.3,3799.76
1035.36,3801.76
1036.43,3799.52
1037.5,3796.46
1038.56,3793.1
1039.63,3792.1
1040.69,3790.62
1041.76,3790.2
1042.82,3788.76
1043.89,3787.44
1044.95,3786.78
1046.01,3785.9
1047.08,3786.58
1048.14,3785.9
1049.2,3784.8
1050.27,3784.52
1051.33,3785.22
1052.39,3784.44
1053.46,3783.06
1054.52,3783.42
1055.58,3783.66
1056.64,3782.7
1057.7,3783.16
1058.77,3781.78
1059.83,3781.94
1060.89,3783.1
1061.95,3782.02
1063.01,3782.02
1064.07,3780.96
1065.13,3780.76
1066.19,3780.66
1067.25,3780.22
1068.05,3779.94

File: VLFR_07-PET_bio_Raman_5ffb7aa3.csv
nm,Intensity
791.75,6690.7
792.846,6444.95
793.942,6425.05
795.037,6325.75
796.133,6303.3
797.228,6349.85
798.324,6286.3
799.419,6321.5
800.514,6274.15
801.61,6272.9
802.705,6241.95
803.8,6242.1
804.894,6167.8
805.989,6148.95
807.084,6124.05
808.178,6058.2
809.273,6036.35
810.367,5980.7
811.461,5941.35
812.556,5870.8
813.65,5819.5
814.744,5781.6
815.837,5745.85
816.931,5686.9
818.025,5664.7
819.118,5635.85
820.212,5578.05
821.305,5553.4
822.398,5502.1
823.491,5482.45
824.585,5435.75
825.677,5468.9
826.77,5366.25
827.863,5340.3
828.956,5341.1
830.048,5254.5
831.14,5309.7
832.233,5246.55
833.325,5193.0
834.417,5209.2
835.509,5172.35
836.601,5188.65
837.692,5172.95
838.784,5147.55
839.876,5146.3
840.967,5104.05
842.058,5092.95
843.149,5078.55
844.24,5006.0
845.331,4975.45
846.422,4997.8
847.513,4944.75
848.604,4945.8
849.694,4930.9
850.784,4874.15
851.875,4900.1
852.965,4868.2
854.055,4804.1
855.145,4829.0
856.235,4813.6
857.324,4775.65
858.414,4805.75
859.503,4791.9
860.593,4791.4
861.682,4710.35
862.771,4721.95
863.86,4714.05
864.949,4723.4
866.038,4698.55
867.126,4649.25
868.215,4663.1
869.303,4632.75
870.391,4673.55
871.479,4703.35
872.567,4667.2
873.655,4659.2
874.743,4628.35
875.831,4580.7
876.918,4581.4
878.006,4590.35
879.093,4557.4
880.18,4548.0
881.267,4547.0
882.354,4544.5
883.441,4535.4
884.527,4503.3
885.614,4506.3
886.7,4493.75
887.786,4483.8
888.872,4459.35
889.958,4436.85
891.044,4444.75
892.13,4404.45
893.216,4434.8
894.301,4407.65
895.386,4343.8
896.472,4382.3
897.557,4401.1
898.642,4439.9
899.726,4361.65
900.811,4327.45
901.896,4313.2
902.98,4302.45
904.064,4281.75
905.148,4277.4
906.232,4303.05
907.316,4318.7
908.4,4287.65
909.484,4263.95
910.567,4207.7
911.65,4208.35
912.734,4190.15
913.817,4166.0
914.9,4148.8
915.982,4169.5
917.065,4145.2
918.147,4131.6
919.23,4125.75
920.312,4123.15
921.394,4090.55
922.476,4097.6
923.558,4072.35
924.639,4070.9
925.721,4071.05
926.802,4047.65
927.884,4034.85
928.965,4010.75
930.046,4019.85
931.126,4002.05
932.207,3995.0
933.288,3977.35
934.368,3969.8
935.448,3975.5
936.528,3956.05
937.608,3952.35
938.688,3951.85
939.767,3937.0
940.847,3936.0
941.926,3927.15
943.005,3916.4
944.084,3913.45
945.163,3911.1
946.242,3904.4
947.321,3898.45
948.399,3894.0
949.477,3888.85
950.556,3883.1
951.634,3877.75
952.711,3872.6
953.789,3869.25
954.867,3863.55
955.944,3854.2
957.021,3854.4
958.098,3854.5
959.175,3850.3
960.252,3839.95
961.328,3836.7
962.405,3839.8
963.481,3839.9
964.557,3833.9
965.633,3825.7
966.709,3826.3
967.785,3828.75
968.86,3822.0
969.936,3820.6
971.011,3819.25
972.086,3814.35
973.161,3813.5
974.235,3808.55
975.31,3806.55
976.384,3807.8
977.459,3803.55
978.533,3800.4
979.607,3796.25
980.68,3796.15
981.754,3799.45
982.827,3792.05
983.901,3793.8
984.974,3788.6
986.047,3793.2
987.119,3789.25
988.192,3787.35
989.264,3785.1
990.337,3783.5
991.409,3784.8
992.481,3779.9
993.553,3780.9
994.624,3778.65
995.696,3777.5
996.767,3777.45
997.838,3775.0
998.909,3774.45
999.98,3773.15
1001.05,3770.95
1002.12,3770.2
1003.19,3769.3
1004.26,3765.35
1005.33,3766.9
1006.4,3766.55
1007.47,3765.9
1008.54,3764.15
1009.61,3761.9
1010.68,3763.85
1011.75,3761.4
1012.82,3761.65
1013.88,3759.5
1014.95,3758.55
1016.02,3758.5
1017.09,3757.2
1018.16,3755.25
1019.22,3757.1
1020.29,3755.75
1021.36,3755.15
1022.43,3756.95
1023.49,3757.4
1024.56,3753.6
1025.63,3753.6
1026.69,3752.55
1027.76,3751.85
1028.83,3750.5
1029.89,3749.3
1030.96,3748.85
1032.02,3749.4
1033.09,3747.6
1034.15,3748.35
1035.22,3748.75
1036.28,3749.9
1037.35,3747.65
1038.41,3746.25
1039.48,3746.3
1040.54,3745.0
1041.6,3744.15
1042.67,3744.3
1043.73,3743.05
1044.79,3744.15
1045.86,3742.85
1046.92,3742.8
1047.98,3743.75
1049.05,3743.45
1050.11,3741.2
1051.17,3742.1
1052.23,3741.5
1053.29,3741.3
1054.36,3743.2
1055.42,3742.7
1056.48,3741.3
1057.54,3742.9
1058.6,3741.4
1059.66,3742.15
1060.72,3740.75
1061.78,3740.3
1062.84,3740.2
1063.9,3740.75
1064.96,3741.65
1066.02,3740.05
1067.08,3739.85
1067.88,3739.95

File: VLFR_07-PET_bio_Raman_6de274d4.csv
nm,Intensity
791.75,6886.2
792.846,6765.8
793.942,6674.4
795.037,6605.6
796.133,6482.6
797.228,6532.35
798.324,6484.15
799.419,6453.75
800.514,6379.9
801.61,6429.15
802.705,6393.6
803.8,6340.25
804.894,6293.05
805.989,6289.75
807.084,6227.95
808.178,6232.2
809.273,6120.0
810.367,6093.9
811.461,6081.7
812.556,6026.15
813.65,5963.3
814.744,5888.15
815.837,5849.55
816.931,5890.3
818.025,5790.05
819.118,5751.8
820.212,5801.05
821.305,5735.8
822.398,5585.0
823.491,5660.8
824.585,5677.3
825.677,5664.75
826.77,5616.3
827.863,5598.7
828.956,5505.4
830.048,5559.5
831.14,5554.8
832.233,5497.4
833.325,5486.55
834.417,5503.1
835.509,5462.8
836.601,5449.2
837.692,5449.3
838.784,5437.05
839.876,5385.85
840.967,5426.75
842.058,5397.65
843.149,5398.7
844.24,5384.0
845.331,5323.45
846.422,5307.4
847.513,5314.8
848.604,5247.1
849.694,5254.2
850.784,5204.25
851.875,5189.95
852.965,5169.25
854.055,5138.0
855.145,5150.45
856.235,5133.1
857.324,5107.25
858.414,5147.55
859.503,5079.4
860.593,5106.8
861.682,5055.1
862.771,5043.25
863.86,5007.35
864.949,5008.65
866.038,4970.4
867.126,4994.1
868.215,4940.9
869.303,4959.5
870.391,4977.65
871.479,4955.45
872.567,4982.9
873.655,4988.75
874.743,4909.25
875.831,4893.1
876.918,4866.35
878.006,4836.95
879.093,4818.9
880.18,4817.3
881.267,4827.1
882.354,4799.95
883.441,4778.55
884.527,4781.95
885.614,4772.85
886.7,4742.15
887.786,4716.45
888.872,4685.1
889.958,4688.9
891.044,4654.35
892.13,4644.75
893.216,4598.5
894.301,4557.2
895.386,4529.75
896.472,4525.75
897.557,4560.25
898.642,4519.95
899.726,4484.55
900.811,4435.1
901.896,4433.55
902.98,4473.15
904.064,4453.55
905.148,4382.95
906.232,4403.05
907.316,4413.0
908.4,4365.9
909.484,4340.65
910.567,4310.55
911.65,4288.5
912.734,4275.4
913.817,4260.35
914.9,4234.5
915.982,4241.7
917.065,4221.6
918.147,4229.65
919.23,4227.05
920.312,4210.05
921.394,4204.95
922.476,4178.0
923.558,4158.45
924.639,4157.4
925.721,4143.65
926.802,4109.3
927.884,4098.2
928.965,4066.45
930.046,4050.0
931.126,4025.8
932.207,4021.0
933.288,4009.25
934.368,4009.65
935.448,3983.3
936.528,3987.6
937.608,3975.65
938.688,3975.85
939.767,3972.8
940.847,3957.3
941.926,3950.45
943.005,3937.2
944.084,3925.35
945.163,3927.15
946.242,3926.15
947.321,3915.15
948.399,3911.1
949.477,3906.4
950.556,3900.85
951.634,3887.9
952.711,3884.05
953.789,3880.65
954.867,3874.95
955.944,3870.1
957.021,3871.0
958.098,3862.7
959.175,3858.7
960.252,3855.65
961.328,3851.25
962.405,3851.85
963.481,3849.6
964.557,3841.1
965.633,3843.95
966.709,3835.9
967.785,3842.2
968.86,3836.7
969.936,3833.3
971.011,3830.9
972.086,3828.8
973.161,3817.95
974.235,3813.5
975.31,3818.4
976.384,3809.75
977.459,3807.65
978.533,3807.55
979.607,3799.1
980.68,3804.15
981.754,3801.45
982.827,3797.85
983.901,3795.8
984.974,3793.95
986.047,3792.85
987.119,3793.75
988.192,3792.0
989.264,3787.6
990.337,3783.8
991.409,3781.35
992.481,3777.6
993.553,3776.65
994.624,3776.3
995.696,3770.9
996.767,3769.75
997.838,3766.05
998.909,3767.55
999.98,3763.35
1001.05,3762.8
1002.12,3758.75
1003.19,3754.8
1004.26,3755.05
1005.33,3755.4
1006.4,3753.45
1007.47,3749.5
1008.54,3747.55
1009.61,3743.95
1010.68,3745.55
1011.75,3746.25
1012.82,3742.45
1013.88,3744.25
1014.95,3742.4
1016.02,3739.65
1017.09,3737.0
1018.16,3736.85
1019.22,3736.25
1020.29,3736.7
1021.36,3732.8
1022.43,3732.25
1023.49,3730.75
1024.56,3728.45
1025.63,3724.4
1026.69,3724.35
1027.76,3723.6
1028.83,3720.95
1029.89,3719.1
1030.96,3719.95
1032.02,3719.8
1033.09,3716.35
1034.15,3721.5
1035.22,3717.05
1036.28,3716.55
1037.35,3717.05
1038.41,3714.85
1039.48,3715.8
1040.54,3712.3
1041.6,3712.5
1042.67,3712.05
1043.73,3709.95
1044.79,3710.75
1045.86,3711.15
1046.92,3712.35
1047.98,3709.65
1049.05,3707.9
1050.11,3709.0
1051.17,3708.85
1052.23,3708.05
1053.29,3707.7
1054.36,3708.85
1055.42,3708.2
1056.48,3707.3
1057.54,3706.1
1058.6,3706.6
1059.66,3705.8
1060.72,3704.9
1061.78,3705.3
1062.84,3708.5
1063.9,3705.9
1064.96,3705.65
1066.02,3704.25
1067.08,3705.5
1067.88,3705.15

File: VLFR_07-PET_bio_Raman_6e0fda1f.csv
nm,Intensity
791.496,11502.3
792.594,10781.9
793.692,10364.2
794.79,10179.6
795.888,10022.3
796.986,10070.4
798.083,9937.0
799.181,10016.8
800.278,9884.5
801.375,9998.4
802.473,9796.9
803.57,9667.5
804.667,9635.4
805.764,9544.0
806.86,9538.0
807.957,9363.5
809.054,9323.2
810.15,9220.3
811.246,9187.7
812.343,9102.2
813.439,9017.1
814.535,8951.3
815.631,8882.1
816.727,8821.4
817.822,8659.7
818.918,8678.6
820.013,8424.3
821.109,8404.0
822.204,8345.4
823.299,8203.4
824.394,8146.3
825.489,8384.1
826.584,8056.2
827.679,7880.6
828.774,7900.8
829.868,7806.9
830.963,7810.8
832.057,7603.5
833.151,7592.9
834.245,7497.9
835.339,7536.6
836.433,7536.9
837.527,7555.0
838.621,7440.0
839.714,7374.4
840.808,7576.7
841.901,7399.9
842.994,7235.7
844.087,7094.0
845.18,6998.0
846.273,6988.0
847.366,6935.3
848.458,6872.9
849.551,6827.3
850.643,6795.9
851.735,6801.2
852.828,6691.8
853.92,6684.7
855.012,6655.5
856.103,6596.4
857.195,6551.7
858.287,6614.1
859.378,6687.2
860.469,6596.2
861.56,6459.2
862.651,6358.7
863.742,6430.5
864.833,6358.4
865.924,6282.7
867.014,6228.1
868.105,6168.0
869.195,6161.1
870.285,6251.1
871.376,6345.6
872.465,6415.0
873.555,6354.6
874.645,6154.1
875.735,6086.3
876.824,6002.7
877.913,5942.1
879.002,5914.1
880.092,5843.6
881.18,5880.8
882.269,5873.9
883.358,5813.7
884.446,5763.7
885.535,5764.1
886.623,5670.2
887.711,5657.1
888.799,5584.6
889.887,5594.7
890.975,5559.9
892.062,5521.8
893.15,5501.1
894.237,5453.3
895.325,5369.7
896.412,5440.0
897.499,5746.5
898.585,5800.0
899.672,5436.4
900.759,5261.4
901.845,5221.1
902.931,5161.2
904.017,5181.6
905.103,5165.9
906.189,5285.8
907.275,5508.8
908.361,5331.5
909.446,5106.7
910.531,5009.0
911.616,4937.2
912.701,4916.4
913.786,4876.4
914.871,4832.7
915.956,4813.3
917.04,4776.3
918.124,4763.3
919.209,4735.9
920.293,4693.8
921.376,4666.1
922.46,4665.3
923.544,4606.1
924.627,4603.5
925.711,4573.1
926.794,4544.1
927.877,4536.6
928.96,4508.5
930.042,4458.5
931.125,4467.0
932.207,4432.0
933.29,4380.7
934.372,4378.6
935.454,4342.4
936.536,4331.0
937.617,4321.7
938.699,4306.8
939.78,4280.9
940.861,4268.0
941.943,4249.5
943.023,4217.6
944.104,4205.2
945.185,4182.2
946.265,4178.9
947.346,4163.6
948.426,4127.3
949.506,4130.0
950.586,4120.6
951.665,4100.4
952.745,4098.0
953.824,4081.8
954.904,4063.6
955.983,4052.0
957.062,4038.9
958.141,4018.4
959.219,4022.1
960.298,4001.8
961.376,3997.0
962.454,3985.5
963.532,3970.4
964.61,3973.2
965.688,3955.1
966.765,3950.9
967.842,3941.3
968.92,3934.9
969.997,3926.8
971.074,3912.4
972.15,3912.3
973.227,3900.8
974.303,3892.0
975.379,3895.7
976.455,3883.7
977.531,3878.3
978.607,3869.0
979.683,3871.3
980.758,3856.9
981.833,3853.1
982.908,3857.1
983.983,3844.0
985.058,3835.6
986.133,3834.3
987.207,3832.3
988.281,3821.9
989.355,3821.3
990.429,3809.4
991.503,3809.8
992.577,3811.4
993.65,3802.8
994.723,3802.5
995.796,3798.7
996.869,3789.0
997.942,3790.2
999.014,3787.4
1000.09,3785.8
1001.16,3781.4
1002.23,3775.4
1003.3,3769.5
1004.37,3774.1
1005.45,3766.3
1006.52,3768.4
1007.59,3763.7
1008.66,3761.0
1009.73,3760.6
1010.8,3756.1
1011.87,3756.4
1012.94,3755.0
1014.01,3753.2
1015.08,3752.6
1016.15,3749.5
1017.22,3747.4
1018.29,3745.1
1019.36,3745.0
1020.43,3743.8
1021.5,3746.7
1022.57,3745.8
1023.64,3745.7
1024.7,3743.1
1025.77,3737.2
1026.84,3735.2
1027.91,3732.0
1028.97,3729.5
1030.04,3728.0
1031.11,3727.8
1032.18,3729.2
1033.24,3728.1
1034.31,3731.2
1035.38,3728.5
1036.44,3725.4
1037.51,3724.8
1038.58,3721.9
1039.64,3720.7
1040.71,3720.7
1041.77,3720.5
1042.84,3718.6
1043.9,3717.2
1044.97,3716.9
1046.03,3716.9
1047.1,3718.0
1048.16,3715.0
1049.22,3715.1
1050.29,3713.3
1051.35,3713.1
1052.42,3715.1
1053.48,3711.9
1054.54,3713.5
1055.61,3713.6
1056.67,3713.3
1057.73,3711.9
1058.79,3713.7
1059.86,3711.1
1060.92,3712.6
1061.98,3713.0
1063.04,3712.4
1064.1,3712.1
1065.16,3711.1
1066.22,3712.2
1067.29,3712.0
1068.08,3710.4

File: VLFR_07-PET_bio_Raman_7b4890d1.csv
nm,Intensity
791.377,5497.88
792.477,5434.18
793.576,5432.28
794.676,5370.12
795.775,5336.28
796.874,5320.62
797.973,5359.46
799.072,5333.82
800.171,5293.8
801.27,5288.66
802.368,5296.36
803.467,5272.7
804.565,5241.18
805.664,5282.24
806.762,5246.04
807.86,5254.52
808.958,5217.16
810.056,5199.4
811.153,5163.44
812.251,5153.38
813.349,5132.02
814.446,5110.58
815.543,5089.14
816.64,5052.12
817.737,5041.5
818.834,5044.96
819.931,5038.2
821.028,5077.82
822.125,4986.84
823.221,4937.6
824.317,4995.28
825.414,4980.1
826.51,4975.78
827.606,4952.42
828.702,4933.7
829.797,4931.94
830.893,4908.52
831.988,4891.12
833.084,4912.76
834.179,4864.7
835.274,4862.58
836.369,4865.88
837.464,4906.66
838.559,4854.28
839.654,4855.38
840.748,4829.32
841.843,4826.58
842.937,4793.46
844.031,4789.14
845.125,4794.3
846.219,4766.14
847.313,4754.62
848.407,4790.46
849.5,4722.56
850.593,4715.9
851.687,4727.5
852.78,4697.92
853.873,4662.8
854.966,4650.68
856.059,4670.4
857.151,4665.72
858.244,4652.64
859.336,4653.16
860.428,4630.56
861.52,4618.76
862.612,4622.52
863.704,4618.08
864.796,4586.82
865.888,4569.72
866.979,4543.98
868.07,4581.46
869.162,4549.56
870.253,4547.64
871.344,4573.2
872.434,4522.96
873.525,4547.16
874.615,4518.86
875.706,4495.02
876.796,4508.0
877.886,4495.96
878.976,4499.12
880.066,4468.02
881.156,4431.82
882.245,4451.36
883.335,4443.36
884.424,4439.44
885.513,4443.2
886.602,4403.74
887.691,4390.32
888.78,4396.46
889.868,4374.32
890.957,4368.42
892.045,4356.6
893.133,4335.6
894.221,4324.36
895.309,4295.96
896.397,4298.5
897.484,4282.96
898.571,4268.56
899.659,4253.14
900.746,4245.76
901.833,4247.12
902.92,4254.4
904.006,4231.28
905.093,4242.66
906.179,4216.78
907.266,4199.32
908.352,4172.86
909.438,4182.18
910.523,4171.76
911.609,4163.62
912.695,4149.2
913.78,4143.44
914.865,4129.2
915.95,4130.32
917.035,4115.88
918.12,4124.1
919.204,4115.26
920.289,4106.92
921.373,4097.98
922.457,4100.04
923.541,4080.26
924.625,4073.74
925.709,4071.18
926.792,4056.6
927.876,4046.74
928.959,4034.58
930.042,4018.84
931.125,3992.44
932.208,3989.58
933.29,3981.46
934.373,3971.84
935.455,3970.62
936.537,3962.08
937.619,3964.52
938.701,3957.38
939.782,3968.22
940.864,3955.36
941.945,3952.54
943.026,3935.0
944.107,3934.5
945.188,3927.28
946.269,3930.38
947.349,3918.78
948.43,3918.7
949.51,3919.42
950.59,3914.72
951.67,3908.68
952.75,3908.96
953.829,3899.74
954.909,3899.74
955.988,3897.06
957.067,3897.44
958.146,3893.94
959.224,3889.14
960.303,3889.08
961.381,3883.88
962.459,3882.36
963.537,3880.76
964.615,3881.38
965.693,3875.82
966.771,3873.64
967.848,3879.18
968.925,3872.84
970.002,3872.78
971.079,3870.22
972.156,3868.74
973.232,3859.94
974.309,3859.5
975.385,3855.12
976.461,3855.82
977.537,3853.0
978.612,3853.46
979.688,3852.96
980.763,3849.44
981.838,3850.18
982.913,3848.1
983.988,3845.42
985.063,3849.62
986.137,3845.3
987.211,3842.24
988.285,3841.48
989.359,3840.28
990.433,3838.98
991.506,3835.66
992.58,3832.18
993.653,3835.74
994.726,3832.44
995.799,3831.38
996.872,3827.38
997.944,3827.96
999.016,3827.68
1000.09,3825.82
1001.16,3821.86
1002.23,3822.5
1003.3,3817.34
1004.38,3816.7
1005.45,3814.18
1006.52,3814.06
1007.59,3814.52
1008.66,3812.46
1009.73,3810.2
1010.8,3810.86
1011.87,3809.56
1012.94,3807.3
1014.01,3809.6
1015.08,3806.82
1016.15,3805.9
1017.22,3805.16
1018.29,3803.08
1019.36,3802.26
1020.42,3801.42
1021.49,3800.16
1022.56,3799.3
1023.63,3797.7
1024.7,3797.08
1025.76,3797.24
1026.83,3793.0
1027.9,3792.24
1028.97,3793.28
1030.03,3791.24
1031.1,3790.22
1032.17,3791.4
1033.23,3791.26
1034.3,3789.92
1035.36,3788.28
1036.43,3790.06
1037.5,3787.56
1038.56,3787.86
1039.63,3789.26
1040.69,3788.52
1041.76,3786.6
1042.82,3786.44
1043.89,3787.78
1044.95,3784.96
1046.01,3784.98
1047.08,3786.36
1048.14,3786.5
1049.2,3784.1
1050.27,3784.28
1051.33,3783.88
1052.39,3783.96
1053.46,3782.5
1054.52,3782.94
1055.58,3784.68
1056.64,3781.74
1057.7,3782.78
1058.77,3782.52
1059.83,3783.74
1060.89,3782.32
1061.95,3781.68
1063.01,3781.48
1064.07,3781.84
1065.13,3781.14
1066.19,3781.68
1067.25,3781.84
1068.05,3781.36

File: VLFR_07-PET_bio_Raman_8abdf619.csv
nm,Intensity
791.377,10360.3
792.477,9802.1
793.576,9243.8
794.676,8891.5
795.775,8788.5
796.874,8707.1
797.973,8744.0
799.072,8680.2
800.171,8649.4
801.27,8671.5
802.368,8582.7
803.467,8519.8
804.565,8427.7
805.664,8419.1
806.762,8234.8
807.86,8253.8
808.958,8127.3
810.056,8114.4
811.153,8012.2
812.251,7909.6
813.349,7894.9
814.446,7747.6
815.543,7733.8
816.64,7626.2
817.737,7512.7
818.834,7508.1
819.931,7431.0
821.028,7437.1
822.125,7380.2
823.221,7280.5
824.317,7129.3
825.414,7335.6
826.51,7173.5
827.606,7079.3
828.702,7059.7
829.797,7041.4
830.893,7021.8
831.988,6940.3
833.084,6791.6
834.179,6789.4
835.274,6728.3
836.369,6701.5
837.464,6844.2
838.559,6724.8
839.654,6730.5
840.748,6814.0
841.843,6923.3
842.937,6584.9
844.031,6552.7
845.125,6463.0
846.219,6298.7
847.313,6289.4
848.407,6213.1
849.5,6224.4
850.593,6192.1
851.687,6262.4
852.78,6132.8
853.873,6161.9
854.966,6071.9
856.059,6067.0
857.151,6003.6
858.244,6087.4
859.336,6169.1
860.428,6118.5
861.52,5988.7
862.612,5886.1
863.704,5893.9
864.796,5895.1
865.888,5858.0
866.979,5791.0
868.07,5712.4
869.162,5744.6
870.253,5822.0
871.344,5854.0
872.434,5953.3
873.525,6014.6
874.615,5770.3
875.706,5648.5
876.796,5583.0
877.886,5579.0
878.976,5569.5
880.066,5556.6
881.156,5500.6
882.245,5501.8
883.335,5509.2
884.424,5398.8
885.513,5488.4
886.602,5421.8
887.691,5370.5
888.78,5350.9
889.868,5333.3
890.957,5252.8
892.045,5314.6
893.133,5272.7
894.221,5185.3
895.309,5213.0
896.397,5194.6
897.484,5377.0
898.571,5795.6
899.659,5432.8
900.746,5102.4
901.833,5078.3
902.92,4984.3
904.006,5009.5
905.093,4993.0
906.179,5071.9
907.266,5299.8
908.352,5358.6
909.438,5051.1
910.523,4874.7
911.609,4833.4
912.695,4798.7
913.78,4784.9
914.865,4755.8
915.95,4738.2
917.035,4694.1
918.12,4639.8
919.204,4640.3
920.289,4626.6
921.373,4595.5
922.457,4568.2
923.541,4576.6
924.625,4534.3
925.709,4504.2
926.792,4498.3
927.876,4466.5
928.959,4442.0
930.042,4432.8
931.125,4417.2
932.208,4370.3
933.29,4357.5
934.373,4351.8
935.455,4332.1
936.537,4326.7
937.619,4294.5
938.701,4288.7
939.782,4247.9
940.864,4253.2
941.945,4220.2
943.026,4215.6
944.107,4202.0
945.188,4193.3
946.269,4179.5
947.349,4154.5
948.43,4149.7
949.51,4130.2
950.59,4125.8
951.67,4112.7
952.75,4102.7
953.829,4092.9
954.909,4075.9
955.988,4084.4
957.067,4062.6
958.146,4041.8
959.224,4054.5
960.303,4036.6
961.381,4028.8
962.459,4009.4
963.537,4011.7
964.615,4000.8
965.693,3995.8
966.771,3990.7
967.848,3981.2
968.925,3971.0
970.002,3967.1
971.079,3957.1
972.156,3952.1
973.232,3950.3
974.309,3947.3
975.385,3931.4
976.461,3929.6
977.537,3921.9
978.612,3912.1
979.688,3919.7
980.763,3910.0
981.838,3904.4
982.913,3904.3
983.988,3895.8
985.063,3893.0
986.137,3887.0
987.211,3888.2
988.285,3885.3
989.359,3878.5
990.433,3871.4
991.506,3864.1
992.58,3867.1
993.653,3862.1
994.726,3858.5
995.799,3852.4
996.872,3853.4
997.944,3851.0
999.016,3847.1
1000.09,3844.8
1001.16,3843.0
1002.23,3838.6
1003.3,3837.4
1004.38,3835.7
1005.45,3830.2
1006.52,3827.7
1007.59,3825.4
1008.66,3819.2
1009.73,3819.2
1010.8,3820.7
1011.87,3818.6
1012.94,3818.5
1014.01,3817.2
1015.08,3814.6
1016.15,3809.7
1017.22,3815.5
1018.29,3808.5
1019.36,3809.2
1020.42,3809.2
1021.49,3812.3
1022.56,3815.1
1023.63,3811.4
1024.7,3806.8
1025.76,3807.5
1026.83,3802.2
1027.9,3799.4
1028.97,3796.9
1030.03,3793.8
1031.1,3793.1
1032.17,3791.8
1033.23,3794.8
1034.3,3791.8
1035.36,3795.3
1036.43,3794.6
1037.5,3787.1
1038.56,3788.2
1039.63,3784.5
1040.69,3786.2
1041.76,3784.4
1042.82,3782.7
1043.89,3782.5
1044.95,3784.0
1046.01,3781.8
1047.08,3782.5
1048.14,3782.5
1049.2,3780.2
1050.27,3779.8
1051.33,3781.5
1052.39,3778.1
1053.46,3779.0
1054.52,3778.0
1055.58,3780.5
1056.64,3778.9
1057.7,3779.7
1058.77,3777.3
1059.83,3777.2
1060.89,3777.5
1061.95,3777.8
1063.01,3777.8
1064.07,3776.1
1065.13,3778.2
1066.19,3777.6
1067.25,3775.0
1068.05,3775.2