Folder: MPX_specDB/spectra (part 11)

File: VLFR_01-LDPE_bio_Raman_a9a08ec7.csv
nm,Intensity
526.508,828.5
527.055,829.9
527.602,829.6
528.149,830.5
528.695,828.5
529.241,829.4
529.787,831.1
530.334,828.4
530.879,830.7
531.425,829.2
531.971,835.1
532.516,829.9
533.062,828.7
533.607,831.4
534.152,939.2
534.697,922.8
535.242,905.5
535.786,889.8
536.331,881.3
536.876,875.0
537.42,871.7
537.964,872.5
538.508,867.7
539.052,868.2
539.596,863.5
540.14,859.8
540.683,860.6
541.227,856.0
541.77,858.1
542.313,857.0
542.856,856.6
543.399,857.1
543.942,854.2
544.485,852.6
545.027,852.2
545.57,852.9
546.112,855.0
546.654,851.2
547.196,854.0
547.738,853.7
548.28,851.0
548.822,851.5
549.363,850.3
549.905,850.2
550.446,851.7
550.988,849.7
551.529,850.8
552.07,852.9
552.611,851.6
553.152,854.5
553.692,856.0
554.233,855.3
554.773,859.4
555.314,857.6
555.854,861.5
556.394,862.4
556.934,865.0
557.474,870.7
558.014,873.6
558.553,873.0
559.093,870.6
559.632,870.0
560.172,866.9
560.711,869.6
561.25,871.2
561.789,870.3
562.328,876.0
562.867,880.7
563.406,885.3
563.944,950.7
564.483,911.2
565.021,898.8
565.559,894.0
566.098,967.4
566.636,902.4
567.174,895.8
567.711,902.4
568.249,893.4
568.787,894.4
569.324,898.0
569.862,897.6
570.399,904.1
570.936,915.3
571.474,1024.5
572.011,960.3
572.548,931.8
573.084,924.1
573.621,931.0
574.158,949.0
574.694,939.5
575.231,954.9
575.767,1010.4
576.303,1148.7
576.84,1088.4
577.376,1061.3
577.912,1032.2
578.447,1042.1
578.983,1061.5
579.519,1072.6
580.054,1093.6
580.59,1115.4
581.125,1145.7
581.661,1148.1
582.196,1177.7
582.731,1194.7
583.266,1218.1
583.801,1234.7
584.336,1244.7
584.87,1263.5
585.405,1280.9
585.94,1291.9
586.474,1321.2
587.008,1347.9
587.543,1365.5
588.077,1390.4
588.611,1410.2
589.145,1425.7
589.679,1457.8
590.213,1476.6
590.747,1508.6
591.28,1531.0
591.814,1545.1
592.347,1561.6
592.881,1565.5
593.414,1569.1
593.947,1582.2
594.48,1577.5
595.014,1607.0
595.547,1612.7
596.079,1621.8
596.612,1635.8
597.145,1636.4
597.678,1671.0
598.21,1695.1
598.743,1703.7
599.275,1714.4
599.807,1725.1
600.34,1734.4
600.872,1720.4
601.404,1711.5
601.936,1710.4
602.468,1688.9
603.0,1657.4
603.532,1648.3
604.063,1616.6
604.595,1586.5
605.126,1557.1
605.658,1507.6
606.189,1484.1
606.721,1452.6
607.252,1433.9
607.783,1407.2
608.314,1390.4
608.845,1372.6
609.376,1354.2
609.907,1339.1
610.438,1319.8
610.968,1302.7
611.499,1300.1
612.03,1286.6
612.56,1279.8
613.091,1277.0
613.621,1269.2
614.151,1255.0
614.681,1239.9
615.212,1229.3
615.742,1225.2
616.272,1217.4
616.802,1208.5
617.332,1207.9
617.861,1196.1
618.391,1195.4
618.921,1180.9
619.45,1177.5
619.98,1173.8
620.509,1165.8
621.039,1166.1
621.568,1180.0
622.097,1209.7
622.627,1201.4
623.156,1170.6
623.685,1153.9
624.214,1158.3
624.743,1148.1
625.272,1153.6
625.801,1169.9
626.33,1197.9
626.858,1492.0
627.387,2088.1
627.916,1728.5
628.444,2016.7
628.973,1786.3
629.501,1644.5
630.029,1525.2
630.558,1479.8
631.086,1322.4
631.614,1222.8
632.142,1191.9
632.67,1174.3
633.198,1167.7
633.726,1172.6
634.254,1170.5
634.782,1169.5
635.31,1168.8
635.838,1175.6
636.365,1180.9
636.893,1185.0
637.421,1185.7
637.948,1181.4
638.476,1192.6
639.003,1191.7
639.531,1193.7
640.058,1202.9
640.585,1210.3
641.113,1215.1
641.64,1221.0
642.167,1222.6
642.694,1230.6
643.221,1227.0
643.748,1228.0
644.275,1231.9
644.802,1239.7
645.329,1240.0
645.856,1235.9
646.382,1241.9
646.909,1245.8
647.436,1238.7
647.962,1237.4
648.489,1243.8
649.016,1242.3
649.542,1235.9
650.069,1230.0
650.595,1226.0
651.121,1234.6
651.648,1228.9
652.174,1240.2
652.7,1238.9
653.227,1230.0
653.753,1233.6
654.279,1222.7
654.805,1224.4
655.331,1219.4
655.857,1221.5
656.383,1207.8
656.909,1201.1
657.435,1198.7
657.961,1179.4
658.487,1173.2
659.013,1171.5
659.538,1166.2
660.064,1152.7
660.59,1139.6
661.116,1127.9
661.641,1109.8
662.167,1102.7
662.692,1094.5
663.087,1089.7

File: VLFR_01-LDPE_bio_Raman_a30f15fb.csv
nm,Intensity
526.508,829.6
527.055,830.1
527.602,830.4
528.149,831.5
528.695,830.4
529.241,831.9
529.787,831.3
530.334,829.8
530.879,829.9
531.425,830.5
531.971,833.7
532.516,832.0
533.062,829.9
533.607,831.0
534.152,905.2
534.697,892.7
535.242,879.5
535.786,862.5
536.331,857.3
536.876,855.1
537.42,854.7
537.964,849.8
538.508,848.7
539.052,847.2
539.596,845.2
540.14,845.0
540.683,843.2
541.227,841.4
541.77,841.4
542.313,840.8
542.856,839.6
543.399,839.7
543.942,841.8
544.485,841.5
545.027,840.0
545.57,840.0
546.112,838.7
546.654,839.9
547.196,839.7
547.738,837.5
548.28,837.0
548.822,838.2
549.363,837.0
549.905,837.1
550.446,838.2
550.988,837.3
551.529,838.7
552.07,836.3
552.611,838.6
553.152,839.5
553.692,840.7
554.233,841.4
554.773,843.2
555.314,843.6
555.854,844.7
556.394,844.1
556.934,847.7
557.474,847.2
558.014,851.1
558.553,850.7
559.093,847.5
559.632,845.9
560.172,848.8
560.711,845.2
561.25,846.4
561.789,848.2
562.328,851.2
562.867,851.1
563.406,856.2
563.944,906.7
564.483,870.9
565.021,864.9
565.559,858.6
566.098,907.0
566.636,862.8
567.174,855.5
567.711,859.9
568.249,850.0
568.787,850.7
569.324,853.3
569.862,854.8
570.399,857.7
570.936,865.4
571.474,954.3
572.011,894.3
572.548,868.8
573.084,865.2
573.621,864.6
574.158,872.3
574.694,864.0
575.231,869.4
575.767,906.3
576.303,1018.1
576.84,966.4
577.376,933.7
577.912,893.2
578.447,886.5
578.983,890.9
579.519,898.1
580.054,899.7
580.59,906.4
581.125,907.5
581.661,917.7
582.196,918.0
582.731,931.6
583.266,933.5
583.801,945.1
584.336,953.6
584.87,961.5
585.405,970.2
585.94,975.5
586.474,993.0
587.008,1007.4
587.543,1018.8
588.077,1029.0
588.611,1047.2
589.145,1058.5
589.679,1065.4
590.213,1080.0
590.747,1094.6
591.28,1107.1
591.814,1112.7
592.347,1121.3
592.881,1132.8
593.414,1134.6
593.947,1150.0
594.48,1155.9
595.014,1154.0
595.547,1165.3
596.079,1180.8
596.612,1193.4
597.145,1201.1
597.678,1222.6
598.21,1231.9
598.743,1240.8
599.275,1248.4
599.807,1261.9
600.34,1253.4
600.872,1251.2
601.404,1257.5
601.936,1256.2
602.468,1244.9
603.0,1235.5
603.532,1227.0
604.063,1207.5
604.595,1194.7
605.126,1173.0
605.658,1155.7
606.189,1134.1
606.721,1127.8
607.252,1104.7
607.783,1099.3
608.314,1090.6
608.845,1077.8
609.376,1075.6
609.907,1064.9
610.438,1061.6
610.968,1051.1
611.499,1044.8
612.03,1041.4
612.56,1038.2
613.091,1038.4
613.621,1030.6
614.151,1024.9
614.681,1021.6
615.212,1017.8
615.742,1012.3
616.272,1007.8
616.802,1010.2
617.332,1005.9
617.861,1002.7
618.391,998.9
618.921,998.3
619.45,995.8
619.98,996.1
620.509,990.7
621.039,996.0
621.568,1011.5
622.097,1027.1
622.627,1027.1
623.156,993.8
623.685,983.3
624.214,984.1
624.743,974.9
625.272,983.5
625.801,990.8
626.33,1010.9
626.858,1260.5
627.387,1744.1
627.916,1441.4
628.444,1664.6
628.973,1480.2
629.501,1373.8
630.029,1254.9
630.558,1224.8
631.086,1094.8
631.614,1014.1
632.142,991.7
632.67,978.1
633.198,973.7
633.726,970.2
634.254,967.5
634.782,964.0
635.31,969.6
635.838,966.7
636.365,970.8
636.893,971.3
637.421,972.9
637.948,971.5
638.476,973.0
639.003,977.6
639.531,983.0
640.058,977.5
640.585,984.8
641.113,987.3
641.64,988.2
642.167,995.7
642.694,994.9
643.221,996.0
643.748,996.6
644.275,1001.3
644.802,995.9
645.329,999.5
645.856,1003.2
646.382,997.8
646.909,1004.1
647.436,1009.3
647.962,1007.5
648.489,1007.8
649.016,1012.4
649.542,1008.3
650.069,1008.0
650.595,1010.1
651.121,1009.0
651.648,1016.9
652.174,1018.9
652.7,1017.9
653.227,1019.5
653.753,1022.7
654.279,1013.6
654.805,1019.8
655.331,1020.2
655.857,1013.6
656.383,1001.8
656.909,1006.8
657.435,1005.1
657.961,1000.2
658.487,994.4
659.013,987.9
659.538,988.5
660.064,983.8
660.59,979.0
661.116,973.7
661.641,961.2
662.167,959.8
662.692,958.0
663.087,949.0

File: VLFR_01-LDPE_bio_Raman_a57e93d4.csv
nm,Intensity
526.547,832.05
527.095,830.8
527.642,833.2
528.189,832.65
528.736,832.15
529.283,832.05
529.829,832.3
530.376,832.15
530.922,833.4
531.468,832.65
532.014,835.7
532.56,832.65
533.106,832.85
533.651,833.35
534.196,907.5
534.742,891.9
535.287,881.75
535.832,872.8
536.376,868.7
536.921,866.3
537.465,863.55
538.01,863.75
538.554,862.0
539.098,859.95
539.642,858.15
540.186,856.0
540.729,855.75
541.273,853.6
541.816,853.6
542.36,854.75
542.903,854.9
543.446,853.55
543.988,853.6
544.531,852.55
545.074,852.05
545.616,851.75
546.158,852.2
546.701,851.1
547.243,851.45
547.785,850.25
548.326,851.0
548.868,850.65
549.41,850.55
549.951,849.25
550.492,849.0
551.034,850.85
551.575,849.15
552.116,850.55
552.656,850.7
553.197,851.05
553.738,853.1
554.278,852.2
554.819,855.7
555.359,855.3
555.899,858.2
556.439,858.1
556.979,860.0
557.519,861.85
558.058,865.95
558.598,864.85
559.137,862.45
559.677,861.6
560.216,860.8
560.755,860.75
561.294,861.15
561.833,862.5
562.371,866.55
562.91,869.75
563.449,876.1
563.987,938.15
564.525,895.45
565.064,889.4
565.602,882.45
566.14,963.05
566.678,890.4
567.216,880.65
567.753,881.2
568.291,881.85
568.828,884.15
569.366,887.15
569.903,889.2
570.44,895.7
570.977,901.95
571.514,1019.4
572.051,932.75
572.588,916.3
573.125,914.75
573.661,920.25
574.198,935.0
574.734,934.6
575.271,949.3
575.807,995.55
576.343,1082.65
576.879,1054.0
577.415,1035.5
577.951,1024.0
578.486,1040.95
579.022,1058.7
579.557,1077.2
580.093,1098.2
580.628,1120.75
581.164,1142.0
581.699,1154.55
582.234,1170.65
582.769,1192.1
583.304,1203.8
583.838,1219.8
584.373,1226.35
584.908,1245.85
585.442,1253.1
585.977,1267.95
586.511,1277.4
587.045,1301.05
587.58,1319.8
588.114,1327.2
588.648,1342.8
589.182,1359.35
589.715,1372.65
590.249,1389.2
590.783,1400.2
591.316,1418.55
591.85,1430.35
592.383,1422.05
592.917,1429.3
593.45,1431.65
593.983,1432.1
594.516,1434.65
595.049,1444.65
595.582,1448.85
596.115,1451.15
596.648,1472.45
597.18,1472.7
597.713,1490.95
598.245,1508.2
598.778,1529.0
599.31,1530.3
599.842,1536.25
600.375,1529.2
600.907,1542.65
601.439,1530.15
601.971,1519.95
602.503,1511.25
603.034,1500.05
603.566,1483.1
604.098,1454.6
604.629,1426.4
605.161,1401.8
605.692,1371.6
606.224,1348.55
606.755,1325.4
607.286,1307.5
607.817,1288.85
608.348,1275.9
608.879,1259.3
609.41,1245.3
609.941,1235.05
610.472,1217.95
611.002,1217.55
611.533,1201.1
612.063,1195.3
612.594,1192.4
613.124,1185.95
613.655,1175.25
614.185,1171.2
614.715,1162.4
615.245,1153.9
615.775,1147.1
616.305,1135.45
616.835,1132.85
617.365,1131.85
617.895,1126.05
618.425,1119.0
618.954,1118.35
619.484,1115.9
620.013,1112.7
620.543,1110.1
621.072,1107.9
621.602,1113.6
622.131,1135.75
622.66,1130.1
623.189,1112.1
623.718,1106.6
624.247,1106.3
624.776,1106.0
625.305,1107.45
625.834,1118.5
626.363,1141.15
626.891,1345.5
627.42,1676.1
627.949,1461.7
628.477,1689.3
629.006,1540.4
629.534,1456.0
630.062,1374.05
630.591,1347.15
631.119,1237.55
631.647,1183.0
632.175,1160.9
632.703,1152.15
633.231,1151.8
633.759,1147.5
634.287,1150.65
634.815,1155.05
635.343,1156.55
635.871,1152.8
636.398,1156.65
636.926,1161.6
637.454,1158.05
637.981,1162.6
638.509,1160.35
639.036,1170.65
639.564,1170.3
640.091,1175.05
640.618,1178.65
641.146,1186.0
641.673,1189.45
642.2,1193.05
642.727,1190.15
643.254,1194.45
643.781,1195.3
644.308,1191.5
644.835,1192.9
645.362,1196.3
645.889,1192.55
646.416,1189.95
646.942,1196.4
647.469,1196.3
647.996,1190.9
648.522,1189.6
649.049,1188.95
649.576,1184.5
650.102,1182.15
650.629,1181.2
651.155,1180.4
651.682,1181.75
652.208,1183.45
652.734,1185.55
653.261,1185.5
653.787,1184.75
654.313,1185.0
654.839,1182.6
655.365,1175.15
655.892,1171.65
656.418,1171.05
656.944,1164.5
657.47,1152.05
657.996,1143.45
658.522,1142.4
659.048,1129.9
659.574,1122.9
660.099,1113.6
660.625,1104.05
661.151,1094.7
661.677,1082.2
662.203,1066.55
662.728,1065.85
663.123,1054.9

File: VLFR_01-LDPE_bio_Raman_a94ccc1d.csv
nm,Intensity
526.508,829.4
527.055,830.6
527.602,830.1
528.149,829.5
528.695,830.5
529.241,826.9
529.787,829.5
530.334,829.0
530.879,829.5
531.425,829.1
531.971,838.6
532.516,831.7
533.062,829.0
533.607,830.4
534.152,853.8
534.697,850.9
535.242,847.3
535.786,844.3
536.331,843.7
536.876,843.7
537.42,845.0
537.964,842.4
538.508,843.1
539.052,844.2
539.596,845.1
540.14,842.2
540.683,843.8
541.227,840.9
541.77,843.2
542.313,842.3
542.856,843.2
543.399,842.4
543.942,842.4
544.485,842.1
545.027,841.7
545.57,841.0
546.112,842.8
546.654,841.2
547.196,841.3
547.738,843.5
548.28,842.5
548.822,841.3
549.363,842.6
549.905,843.8
550.446,842.4
550.988,844.2
551.529,843.6
552.07,843.0
552.611,843.8
553.152,843.6
553.692,843.7
554.233,844.1
554.773,843.8
555.314,843.3
555.854,845.0
556.394,845.2
556.934,845.1
557.474,846.1
558.014,846.4
558.553,847.5
559.093,845.4
559.632,848.0
560.172,845.9
560.711,847.0
561.25,847.8
561.789,847.0
562.328,846.9
562.867,848.1
563.406,849.9
563.944,857.9
564.483,851.4
565.021,853.7
565.559,851.1
566.098,860.7
566.636,851.2
567.174,849.6
567.711,850.8
568.249,850.3
568.787,853.8
569.324,851.4
569.862,852.4
570.399,853.6
570.936,853.2
571.474,868.4
572.011,859.6
572.548,858.2
573.084,855.2
573.621,854.5
574.158,855.8
574.694,856.1
575.231,857.0
575.767,864.8
576.303,879.3
576.84,873.1
577.376,869.7
577.912,867.3
578.447,863.9
578.983,866.7
579.519,868.7
580.054,871.3
580.59,871.3
581.125,871.9
581.661,874.9
582.196,880.4
582.731,882.6
583.266,887.5
583.801,887.0
584.336,891.4
584.87,893.3
585.405,900.0
585.94,899.8
586.474,910.3
587.008,912.6
587.543,916.5
588.077,920.6
588.611,929.0
589.145,931.6
589.679,931.3
590.213,935.9
590.747,941.2
591.28,942.1
591.814,945.6
592.347,950.8
592.881,947.0
593.414,952.9
593.947,955.9
594.48,958.5
595.014,966.4
595.547,963.7
596.079,977.1
596.612,980.8
597.145,981.9
597.678,988.1
598.21,999.1
598.743,1006.0
599.275,1011.9
599.807,1019.5
600.34,1015.2
600.872,1017.1
601.404,1019.2
601.936,1019.7
602.468,1010.6
603.0,1003.9
603.532,1003.4
604.063,1002.0
604.595,989.0
605.126,981.0
605.658,974.9
606.189,967.2
606.721,959.4
607.252,955.3
607.783,951.6
608.314,945.9
608.845,939.8
609.376,943.7
609.907,937.3
610.438,931.0
610.968,932.1
611.499,931.9
612.03,928.1
612.56,924.4
613.091,922.0
613.621,925.1
614.151,918.7
614.681,919.2
615.212,915.5
615.742,911.4
616.272,911.4
616.802,909.9
617.332,908.8
617.861,913.0
618.391,910.2
618.921,907.5
619.45,904.1
619.98,906.7
620.509,906.3
621.039,904.1
621.568,904.0
622.097,909.2
622.627,904.8
623.156,900.9
623.685,900.3
624.214,897.0
624.743,897.8
625.272,899.2
625.801,899.3
626.33,906.9
626.858,945.0
627.387,1039.5
627.916,979.7
628.444,1025.2
628.973,989.8
629.501,970.6
630.029,942.6
630.558,941.9
631.086,913.6
631.614,903.9
632.142,901.3
632.67,896.1
633.198,895.8
633.726,896.2
634.254,896.4
634.782,896.5
635.31,897.1
635.838,897.5
636.365,900.0
636.893,897.8
637.421,902.2
637.948,903.8
638.476,901.6
639.003,900.9
639.531,907.0
640.058,906.1
640.585,903.4
641.113,909.6
641.64,911.9
642.167,910.9
642.694,911.3
643.221,908.0
643.748,911.4
644.275,909.7
644.802,912.1
645.329,910.5
645.856,910.4
646.382,910.5
646.909,913.7
647.436,915.4
647.962,914.5
648.489,914.2
649.016,911.0
649.542,912.9
650.069,911.5
650.595,912.6
651.121,914.4
651.648,913.1
652.174,913.5
652.7,916.3
653.227,913.9
653.753,917.0
654.279,918.8
654.805,913.7
655.331,913.2
655.857,916.0
656.383,911.3
656.909,912.2
657.435,911.9
657.961,908.2
658.487,906.9
659.013,905.7
659.538,901.3
660.064,902.3
660.59,896.4
661.116,893.8
661.641,896.6
662.167,893.0
662.692,891.3
663.087,892.2

File: VLFR_01-LDPE_bio_Raman_a5824c6a.csv
nm,Intensity
526.495,828.7
527.042,829.0
527.589,829.6
528.136,827.9
528.682,830.5
529.229,829.2
529.775,829.1
530.321,829.0
530.867,829.6
531.413,829.4
531.959,832.5
532.505,829.3
533.051,829.2
533.596,832.4
534.141,1038.1
534.687,1042.8
535.232,1021.2
535.777,1012.6
536.321,1006.1
536.866,996.2
537.41,995.3
537.955,999.7
538.499,996.8
539.043,998.1
539.587,1004.1
540.131,997.9
540.675,1005.7
541.219,1010.5
541.762,1013.2
542.305,1016.6
542.849,1018.0
543.392,1028.9
543.935,1025.6
544.478,1036.3
545.02,1042.3
545.563,1048.5
546.106,1050.4
546.648,1060.2
547.19,1068.8
547.732,1069.8
548.274,1082.6
548.816,1089.8
549.358,1095.4
549.9,1106.9
550.441,1117.2
550.983,1119.1
551.524,1133.5
552.065,1144.3
552.606,1154.7
553.147,1169.6
553.688,1176.6
554.229,1196.7
554.769,1202.1
555.31,1215.5
555.85,1229.4
556.391,1246.4
556.931,1262.4
557.471,1283.5
558.011,1303.4
558.551,1326.4
559.09,1343.7
559.63,1372.8
560.169,1404.0
560.709,1433.1
561.248,1456.8
561.787,1472.0
562.326,1504.0
562.865,1544.6
563.404,1582.1
563.943,1628.8
564.481,1665.1
565.02,1693.3
565.558,1745.5
566.096,1787.6
566.634,1814.8
567.172,1859.3
567.71,1892.2
568.248,1929.6
568.786,2011.5
569.324,2081.1
569.861,2129.1
570.399,2182.7
570.936,2247.7
571.473,2336.0
572.01,2382.5
572.547,2426.4
573.084,2480.4
573.621,2562.4
574.158,2631.5
574.694,2661.9
575.231,2735.4
575.767,2816.1
576.303,2874.8
576.84,2936.0
577.376,3001.0
577.912,3032.4
578.448,3095.3
578.984,3157.1
579.519,3210.7
580.055,3232.9
580.59,3287.6
581.126,3346.1
581.661,3373.9
582.196,3393.9
582.731,3409.2
583.267,3453.8
583.801,3465.8
584.336,3453.8
584.871,3430.5
585.406,3449.4
585.94,3457.2
586.475,3465.4
587.009,3483.6
587.543,3462.0
588.078,3441.8
588.612,3413.2
589.146,3376.3
589.68,3358.6
590.214,3327.6
590.747,3305.4
591.281,3270.1
591.815,3235.7
592.348,3211.4
592.881,3166.6
593.415,3098.6
593.948,3062.9
594.481,3028.2
595.014,3027.0
595.547,2978.6
596.08,2963.1
596.613,2945.7
597.146,2930.5
597.678,2889.2
598.211,2862.4
598.743,2826.6
599.276,2834.0
599.808,2828.3
600.34,2776.3
600.872,2741.7
601.404,2727.0
601.936,2707.3
602.468,2692.9
603.0,2672.9
603.532,2669.0
604.064,2645.1
604.595,2625.9
605.127,2592.6
605.658,2585.9
606.189,2559.7
606.721,2547.0
607.252,2549.4
607.783,2545.6
608.314,2552.4
608.845,2568.2
609.376,2568.4
609.907,2564.2
610.438,2555.8
610.968,2541.6
611.499,2562.8
612.029,2588.4
612.56,2604.3
613.09,2638.3
613.621,2650.8
614.151,2663.2
614.681,2672.0
615.211,2677.0
615.741,2705.5
616.271,2716.6
616.801,2723.1
617.331,2747.5
617.861,2771.7
618.39,2769.7
618.92,2785.3
619.45,2789.1
619.979,2806.7
620.509,2817.4
621.038,2818.3
621.567,2818.7
622.096,2829.8
622.626,2843.6
623.155,2867.5
623.684,2866.2
624.213,2871.9
624.742,2891.9
625.271,2895.3
625.799,2884.1
626.328,2889.7
626.857,2916.7
627.386,2953.5
627.914,2963.4
628.443,2992.8
628.971,3023.9
629.5,3007.5
630.028,2999.3
630.556,3019.7
631.084,3016.7
631.613,3000.9
632.141,2978.8
632.669,2954.6
633.197,2937.5
633.725,2921.8
634.253,2909.8
634.781,2929.9
635.308,2922.5
635.836,2935.3
636.364,2920.9
636.891,2916.0
637.419,2914.7
637.947,2887.7
638.474,2911.7
639.002,2905.8
639.529,2883.8
640.056,2894.4
640.584,2890.6
641.111,2874.6
641.638,2858.4
642.165,2837.6
642.692,2833.1
643.219,2800.4
643.746,2802.8
644.273,2760.7
644.8,2735.3
645.327,2738.9
645.854,2718.7
646.381,2705.0
646.908,2693.6
647.434,2693.3
647.961,2657.8
648.488,2652.1
649.014,2622.2
649.541,2612.1
650.067,2603.0
650.594,2590.6
651.12,2564.1
651.646,2571.0
652.173,2557.2
652.699,2530.6
653.225,2514.0
653.752,2521.4
654.278,2514.2
654.804,2490.9
655.33,2486.1
655.856,2461.4
656.382,2474.1
656.908,2440.9
657.434,2429.8
657.96,2422.4
658.486,2416.3
659.012,2396.7
659.538,2393.5
660.064,2377.0
660.589,2376.4
661.115,2350.3
661.641,2325.9
662.166,2313.4
662.692,2310.4
663.086,2301.5

File: VLFR_01-LDPE_bio_Raman_a6618530.csv
nm,Intensity
528.626,1868.5
529.132,1867.1
529.637,1866.6
530.143,1868.3
530.648,1867.5
531.153,1869.1
531.658,1897.9
532.164,3357.2
532.669,1868.3
533.174,1868.2
533.679,2012.0
534.184,2541.8
534.689,2515.0
535.194,2433.8
535.699,2345.2
536.203,2272.2
536.708,2234.6
537.213,2212.5
537.717,2203.3
538.222,2179.4
538.726,2173.7
539.231,2155.9
539.735,2160.3
540.239,2151.0
540.744,2159.1
541.248,2153.8
541.752,2161.1
542.256,2161.9
542.76,2155.2
543.264,2151.2
543.768,2156.9
544.272,2152.1
544.776,2157.6
545.28,2141.1
545.784,2152.6
546.287,2149.1
546.791,2167.2
547.294,2175.7
547.798,2171.4
548.301,2176.9
548.805,2158.1
549.308,2158.6
549.811,2159.2
550.315,2165.7
550.818,2164.9
551.321,2171.8
551.824,2176.1
552.327,2179.8
552.83,2176.3
553.333,2187.3
553.835,2196.6
554.338,2205.9
554.841,2202.7
555.343,2210.9
555.846,2215.9
556.349,2217.8
556.851,2245.3
557.353,2262.0
557.856,2276.0
558.358,2274.9
558.86,2260.9
559.362,2262.0
559.864,2279.6
560.366,2257.4
560.868,2271.7
561.37,2280.8
561.872,2306.1
562.374,2297.9
562.876,2318.6
563.377,2330.8
563.879,2490.7
564.38,2409.0
564.882,2372.6
565.383,2339.6
565.885,2447.4
566.386,2409.7
566.887,2321.0
567.388,2325.1
567.889,2307.7
568.391,2322.9
568.892,2338.2
569.392,2333.7
569.893,2374.4
570.394,2376.0
570.895,2405.8
571.395,2633.9
571.896,2521.3
572.397,2444.9
572.897,2417.9
573.397,2411.0
573.898,2414.1
574.398,2395.3
574.898,2398.0
575.398,2498.3
575.898,2648.6
576.398,2854.4
576.898,2732.9
577.398,2572.4
577.898,2517.7
578.398,2501.7
578.897,2522.9
579.397,2519.0
579.896,2570.2
580.396,2575.9
580.895,2605.0
581.395,2629.9
581.894,2651.0
582.393,2688.9
582.892,2698.2
583.391,2718.8
583.89,2768.3
584.389,2795.5
584.888,2794.6
585.387,2796.9
585.886,2817.1
586.384,2838.5
586.883,2851.2
587.381,2887.8
587.88,2935.6
588.378,2978.3
588.876,2963.7
589.375,3012.7
589.873,3034.3
590.371,3054.4
590.869,3094.2
591.367,3151.3
591.865,3142.3
592.363,3151.3
592.86,3192.3
593.358,3201.2
593.856,3212.2
594.353,3246.5
594.851,3302.2
595.348,3336.7
595.845,3405.3
596.342,3442.6
596.84,3475.1
597.337,3591.5
597.834,3591.1
598.331,3691.5
598.828,3761.7
599.324,3793.2
599.821,3817.4
600.318,3790.8
600.814,3842.8
601.311,3860.4
601.807,3834.6
602.304,3776.2
602.8,3756.6
603.296,3729.0
603.792,3687.2
604.288,3644.5
604.784,3575.9
605.28,3486.2
605.776,3479.0
606.272,3435.7
606.767,3357.2
607.263,3339.8
607.759,3259.8
608.254,3219.2
608.749,3166.7
609.245,3173.3
609.74,3149.1
610.235,3137.8
610.73,3083.8
611.225,3082.5
611.72,3016.3
612.215,2988.0
612.71,2990.3
613.204,2982.6
613.699,2957.6
614.194,2931.1
614.688,2910.5
615.182,2884.7
615.677,2879.2
616.171,2862.4
616.665,2878.6
617.159,2827.1
617.653,2839.8
618.147,2842.9
618.641,2829.4
619.135,2819.2
619.628,2834.6
620.122,2807.5
620.615,2792.5
621.109,2805.6
621.602,2844.9
622.095,2912.3
622.589,2849.8
623.082,2774.0
623.575,2756.8
624.068,2736.7
624.561,2749.5
625.053,2772.9
625.546,2715.6
626.039,2817.9
626.531,3022.9
627.024,4357.6
627.516,4501.1
628.008,4191.3
628.501,4903.8
628.993,4325.1
629.485,3958.5
629.977,3816.4
630.469,3771.7
630.96,3324.5
631.452,3013.0
631.944,2917.1
632.435,2845.6
632.927,2785.3
633.418,2740.6
633.91,2718.8
634.401,2715.1
634.892,2704.2
635.383,2671.4
635.874,2677.1
636.365,2663.8
636.856,2662.8
637.346,2674.4
637.837,2665.0
638.327,2675.9
638.818,2686.3
639.308,2661.2
639.799,2669.7
640.289,2673.9
640.779,2671.0
641.269,2670.1
641.759,2660.6
642.249,2688.3
642.738,2671.1
643.228,2681.3
643.718,2706.1
644.207,2702.4
644.697,2736.0
645.186,2696.8
645.675,2702.8
646.164,2702.8
646.653,2683.9
647.142,2710.0
647.631,2713.3
648.12,2699.0
648.609,2678.1
649.098,2678.5
649.586,2685.8
650.075,2675.6
650.563,2675.7
651.051,2670.2
651.539,2676.2
652.027,2654.3
652.515,2635.8
653.003,2644.1
653.491,2646.5
653.979,2653.1
654.467,2639.0
654.954,2637.4
655.442,2604.2
655.929,2629.0
656.416,2615.5
656.904,2562.6
657.391,2581.8
657.878,2539.9
658.365,2524.4
658.851,2498.5
659.338,2498.4
659.825,2472.2
660.311,2474.9
660.798,2440.1
661.041,2451.3