Folder: MPX_specDB/spectra (part 161)

File: VLFR_08-PLA_nobio_Raman_fbf7bdea.csv
nm,Intensity
526.5,829.2
527.047,828.6
527.594,829.1
528.14,829.0
528.687,828.6
529.233,828.1
529.779,829.5
530.325,830.9
530.871,828.3
531.417,830.4
531.962,836.6
532.508,829.6
533.053,829.2
533.599,829.7
534.144,916.2
534.689,898.8
535.234,877.9
535.778,876.5
536.323,871.1
536.867,872.6
537.412,867.6
537.956,864.8
538.5,863.2
539.044,863.9
539.588,862.2
540.132,859.2
540.675,865.8
541.219,867.1
541.762,863.4
542.305,860.9
542.848,860.3
543.391,869.4
543.934,875.7
544.477,864.7
545.02,859.4
545.562,860.2
546.105,857.9
546.647,858.1
547.189,859.5
547.731,860.6
548.273,861.0
548.815,860.1
549.356,858.9
549.898,860.7
550.439,861.0
550.981,859.2
551.522,865.4
552.063,866.0
552.604,867.0
553.145,863.6
553.686,865.4
554.226,865.2
554.767,866.8
555.307,861.7
555.848,861.2
556.388,861.1
556.928,863.3
557.468,869.9
558.008,907.6
558.547,874.6
559.087,868.1
559.626,868.0
560.166,868.5
560.705,863.5
561.244,864.0
561.783,864.9
562.322,864.2
562.861,864.8
563.4,878.1
563.939,871.6
564.477,867.0
565.015,877.1
565.554,877.4
566.092,885.1
566.63,872.5
567.168,864.5
567.706,868.5
568.244,869.2
568.781,870.2
569.319,867.6
569.857,871.0
570.394,869.4
570.931,871.1
571.468,875.8
572.005,875.8
572.542,872.0
573.079,875.1
573.616,875.6
574.153,874.9
574.689,877.5
575.226,870.0
575.762,870.5
576.298,875.3
576.834,895.0
577.371,879.9
577.907,870.9
578.442,870.3
578.978,868.7
579.514,873.7
580.049,870.8
580.585,871.3
581.12,872.2
581.656,872.7
582.191,871.1
582.726,869.5
583.261,869.6
583.796,874.7
584.331,869.6
584.865,871.1
585.4,872.3
585.935,873.1
586.469,878.9
587.004,888.9
587.538,897.1
588.072,880.1
588.606,874.6
589.14,871.1
589.674,872.7
590.208,870.0
590.742,871.5
591.275,870.6
591.809,871.8
592.342,870.7
592.876,870.8
593.409,869.2
593.942,868.8
594.476,872.0
595.009,871.5
595.542,872.2
596.075,871.3
596.607,872.5
597.14,870.7
597.673,869.6
598.205,871.8
598.738,872.3
599.27,869.8
599.803,871.5
600.335,867.6
600.867,868.7
601.399,871.0
601.931,867.6
602.463,870.2
602.995,871.9
603.527,869.5
604.058,873.1
604.59,869.0
605.122,869.0
605.653,866.7
606.184,866.4
606.716,868.9
607.247,868.8
607.778,867.2
608.309,868.1
608.84,867.9
609.371,868.8
609.902,867.7
610.433,869.7
610.964,867.6
611.494,866.7
612.025,865.2
612.556,872.0
613.086,868.9
613.616,867.7
614.147,867.9
614.677,867.4
615.207,871.6
615.737,869.1
616.267,868.8
616.797,868.6
617.327,865.6
617.857,867.8
618.387,869.1
618.917,868.0
619.446,868.2
619.976,866.1
620.505,866.7
621.035,867.1
621.564,866.6
622.093,867.7
622.623,871.0
623.152,873.5
623.681,869.3
624.21,867.1
624.739,867.4
625.268,867.0
625.797,866.3
626.326,866.5
626.855,869.0
627.383,863.9
627.912,870.0
628.441,891.1
628.969,887.5
629.498,886.9
630.026,888.3
630.554,907.6
631.083,1028.9
631.611,952.8
632.139,909.0
632.667,901.5
633.195,927.3
633.724,918.2
634.252,888.5
634.779,872.8
635.307,866.4
635.835,866.9
636.363,863.9
636.891,864.5
637.418,864.0
637.946,865.5
638.474,863.4
639.001,861.8
639.529,862.9
640.056,862.0
640.583,862.3
641.111,860.1
641.638,863.4
642.165,862.0
642.692,863.3
643.22,860.6
643.747,861.8
644.274,860.3
644.801,860.8
645.328,857.5
645.854,859.7
646.381,857.9
646.908,858.8
647.435,859.7
647.962,861.1
648.488,859.1
649.015,858.1
649.542,858.0
650.068,859.0
650.595,855.8
651.121,855.5
651.648,858.7
652.174,856.8
652.7,856.5
653.227,857.9
653.753,856.4
654.279,855.0
654.805,855.0
655.331,857.2
655.858,856.8
656.384,856.0
656.91,856.9
657.436,856.7
657.962,854.6
658.488,854.2
659.013,855.9
659.539,855.2
660.065,854.4
660.591,853.2
661.117,853.1
661.642,853.0
662.168,852.5
662.694,854.8
663.088,853.2

File: VLFR_09-PET_bio_Raman_0b2b108d.csv
nm,Intensity
528.637,1852.4
529.143,1849.5
529.648,1853.6
530.153,1853.6
530.659,1853.1
531.164,1859.2
531.669,1909.1
532.174,3625.4
532.679,1862.7
533.184,1871.7
533.689,4141.2
534.194,9857.1
534.699,9492.8
535.203,8818.1
535.708,8414.5
536.213,8013.5
536.717,8320.6
537.222,8283.9
537.726,8426.7
538.231,8385.7
538.735,8635.6
539.24,8884.2
539.744,8991.1
540.248,9162.4
540.752,9127.4
541.256,9342.5
541.761,9577.5
542.265,9655.9
542.769,9650.6
543.272,10007.4
543.776,10169.8
544.28,10312.3
544.784,10456.9
545.288,10440.2
545.791,10453.3
546.295,10795.6
546.798,10838.6
547.302,11174.1
547.805,10938.3
548.308,11437.1
548.812,11678.4
549.315,11400.7
549.818,11774.8
550.321,12158.4
550.824,12503.6
551.327,12276.1
551.83,12371.0
552.333,12680.1
552.836,13069.0
553.339,12496.1
553.842,12769.6
554.344,13235.3
554.847,13229.8
555.349,13710.0
555.852,13776.0
556.354,14066.6
556.857,14195.6
557.359,15279.4
557.861,15010.7
558.363,14912.0
558.866,14815.5
559.368,14868.6
559.87,14726.8
560.372,14997.1
560.873,15163.0
561.375,15628.5
561.877,15571.0
562.379,15806.9
562.88,15746.8
563.382,16111.4
563.883,16044.2
564.385,16550.0
564.886,17040.1
565.388,17353.1
565.889,17848.1
566.39,16707.3
566.891,16746.4
567.392,17134.5
567.893,17158.8
568.394,17417.4
568.895,17035.2
569.396,17725.4
569.897,17768.2
570.398,18058.5
570.898,19556.9
571.399,20291.5
571.899,19383.7
572.4,19136.0
572.9,18506.9
573.4,18286.0
573.901,18661.9
574.401,18830.9
574.901,18460.6
575.401,19283.1
575.901,19183.2
576.401,19872.8
576.901,19500.3
577.401,19436.5
577.9,19359.2
578.4,19258.8
578.9,19101.6
579.399,19694.4
579.899,20025.2
580.398,19955.4
580.897,20166.0
581.397,20161.9
581.896,24619.5
582.395,23329.4
582.894,20041.5
583.393,19683.2
583.892,20080.1
584.391,19739.1
584.889,20337.4
585.388,20928.2
585.887,24203.6
586.385,22778.6
586.884,20430.0
587.382,20629.9
587.881,20489.8
588.379,20692.4
588.877,20655.6
589.375,20291.6
589.874,20300.2
590.372,20718.9
590.87,20571.9
591.367,21008.9
591.865,20695.1
592.363,20415.4
592.861,20772.9
593.358,21344.0
593.856,20783.5
594.353,20729.9
594.851,20598.1
595.348,20901.9
595.845,21392.8
596.342,21542.4
596.84,21735.9
597.337,21759.1
597.833,21473.7
598.33,21235.1
598.827,21715.3
599.324,21327.9
599.821,21847.2
600.317,21786.4
600.814,22297.6
601.31,22250.8
601.807,22066.3
602.303,22363.4
602.799,22637.1
603.295,22177.4
603.791,22939.7
604.287,22653.0
604.783,22680.2
605.279,22348.1
605.775,23252.5
606.271,23060.5
606.766,23240.7
607.262,23374.8
607.757,24163.5
608.253,23828.2
608.748,23821.0
609.243,24067.9
609.738,24343.3
610.233,24535.4
610.729,24094.8
611.223,24825.2
611.718,25206.3
612.213,25348.8
612.708,25059.7
613.202,25537.1
613.697,25699.8
614.192,25776.8
614.686,26362.2
615.18,26280.1
615.675,26748.5
616.169,27086.0
616.663,27221.6
617.157,27533.3
617.651,27751.8
618.145,26775.7
618.638,28310.8
619.132,28254.3
619.626,28623.6
620.119,29025.5
620.613,28308.1
621.106,29104.7
621.599,29075.7
622.093,29385.3
622.586,28960.1
623.079,29896.0
623.572,30117.2
624.065,30380.5
624.558,30804.0
625.05,31033.1
625.543,31133.7
626.036,30515.2
626.528,30291.8
627.02,30831.4
627.513,31107.5
628.005,32391.4
628.497,31643.7
628.989,31457.2
629.481,32174.9
629.973,32113.3
630.465,32617.7
630.957,32451.2
631.449,33175.4
631.94,33364.6
632.432,32482.7
632.923,32285.6
633.414,33854.0
633.906,32436.4
634.397,33008.2
634.888,32726.4
635.379,32019.4
635.87,32840.8
636.361,33630.0
636.852,33203.2
637.342,33029.4
637.833,32882.2
638.323,32901.0
638.814,33026.6
639.304,33348.8
639.794,31960.4
640.285,32776.7
640.775,33683.7
641.265,32856.3
641.755,31621.4
642.244,32729.3
642.734,32140.7
643.224,32017.3
643.713,31673.9
644.203,31871.7
644.692,31162.5
645.181,32612.4
645.671,31885.2
646.16,32011.0
646.649,31151.7
647.138,30900.1
647.627,30411.5
648.115,30357.6
648.604,30810.6
649.093,29810.3
649.581,30044.6
650.07,30162.8
650.558,29464.7
651.046,30441.9
651.534,30423.9
652.023,30122.6
652.511,28858.0
652.998,29283.9
653.486,27714.5
653.974,27444.5
654.462,27421.9
654.949,27682.7
655.437,27321.2
655.924,26950.7
656.411,27441.9
656.898,26515.4
657.385,26472.1
657.872,25918.7
658.359,25165.4
658.846,24715.2
659.333,24523.0
659.82,23537.8
660.306,24541.2
660.793,23478.1
661.036,24411.1

File: VLFR_09-PET_bio_Raman_1b88fd26.csv
nm,Intensity
526.549,832.7
527.096,831.3
527.643,831.4
528.19,832.6
528.737,832.45
529.283,832.6
529.83,833.05
530.376,832.35
530.922,832.7
531.468,832.5
532.014,840.1
532.559,833.2
533.105,833.25
533.65,855.9
534.196,2482.5
534.741,2255.0
535.286,1989.25
535.83,1892.8
536.375,1792.05
536.92,1766.3
537.464,1728.25
538.008,1732.65
538.553,1741.9
539.097,1744.6
539.641,1782.9
540.184,1829.45
540.728,1794.4
541.271,1788.1
541.815,1796.5
542.358,1805.85
542.901,1818.0
543.444,1833.3
543.987,1861.95
544.53,1859.3
545.072,1880.6
545.615,1890.5
546.157,1902.2
546.699,1922.0
547.242,1922.85
547.784,1928.1
548.325,1939.8
548.867,1982.95
549.409,1977.8
549.95,1976.85
550.492,2044.7
551.033,2020.15
551.574,2023.6
552.115,2048.7
552.656,2062.45
553.197,2068.15
553.737,2077.7
554.278,2093.65
554.818,2105.35
555.358,2132.0
555.899,2177.4
556.439,2193.8
556.979,2224.3
557.518,2575.35
558.058,2307.65
558.598,2242.9
559.137,2217.95
559.677,2217.55
560.216,2243.6
560.755,2268.95
561.294,2287.2
561.833,2356.65
562.372,2390.5
562.91,2341.35
563.449,2350.75
563.987,2370.15
564.526,2450.65
565.064,2725.7
565.602,2616.05
566.14,2583.5
566.678,2460.55
567.216,2435.6
567.754,2558.7
568.291,2493.9
568.829,2489.7
569.366,2515.0
569.904,2563.45
570.441,2635.1
570.978,2955.3
571.515,3380.45
572.052,2858.7
572.589,2670.45
573.125,2649.6
573.662,2639.9
574.199,2679.15
574.735,2673.4
575.271,2767.3
575.807,2750.7
576.344,2736.7
576.88,2802.2
577.415,2782.45
577.951,2750.3
578.487,2767.15
579.023,2767.4
579.558,2763.1
580.094,2789.2
580.629,2812.15
581.164,2861.8
581.699,3155.5
582.234,6265.4
582.769,3050.9
583.304,2909.7
583.839,2899.55
584.374,2908.15
584.908,2940.65
585.443,3129.55
585.977,4456.7
586.511,3707.6
587.046,3068.25
587.58,3011.25
588.114,2963.6
588.648,2963.2
589.182,2955.85
589.716,2974.7
590.249,2965.15
590.783,2981.95
591.316,3005.45
591.85,3003.0
592.383,3016.7
592.917,2990.45
593.45,3000.6
593.983,3002.4
594.516,3031.65
595.049,3040.3
595.582,3056.85
596.115,3071.4
596.647,3081.95
597.18,3091.75
597.712,3100.2
598.245,3119.85
598.777,3131.95
599.31,3164.15
599.842,3163.05
600.374,3156.25
600.906,3158.8
601.438,3153.5
601.97,3162.7
602.502,3187.4
603.034,3218.65
603.565,3221.55
604.097,3236.15
604.628,3232.9
605.16,3206.4
605.691,3222.3
606.223,3199.95
606.754,3223.8
607.285,3270.4
607.816,3286.7
608.347,3296.5
608.878,3338.4
609.409,3348.15
609.94,3361.15
610.47,3364.55
611.001,3384.95
611.532,3424.45
612.062,3457.95
612.593,3517.35
613.123,3564.85
613.653,3594.9
614.184,3636.85
614.714,3659.75
615.244,3662.1
615.774,3690.1
616.304,3716.75
616.834,3748.65
617.364,3794.1
617.894,3837.25
618.423,3891.6
618.953,3901.3
619.482,3895.65
620.012,3930.15
620.541,3950.95
621.071,3968.0
621.6,4007.95
622.13,4046.4
622.659,4073.35
623.188,4131.9
623.717,4167.6
624.246,4215.8
624.775,4261.8
625.304,4276.85
625.833,4294.05
626.362,4300.5
626.89,4340.1
627.419,4362.25
627.948,4384.8
628.476,4439.0
629.005,4476.3
629.533,4548.15
630.061,4557.45
630.59,4605.95
631.118,4656.9
631.646,4778.6
632.175,4823.05
632.703,4757.55
633.231,4786.35
633.759,4754.75
634.287,4728.45
634.815,4725.5
635.342,4788.35
635.87,4902.85
636.398,5121.6
636.926,5072.05
637.453,4918.25
637.981,4896.45
638.509,4910.55
639.036,4937.6
639.563,4942.25
640.091,4964.0
640.618,4994.3
641.146,4995.6
641.673,5031.45
642.2,5058.2
642.727,5061.25
643.254,5027.7
643.781,5007.0
644.309,5017.2
644.836,4993.65
645.362,5011.15
645.889,5029.65
646.416,5061.3
646.943,5104.2
647.47,5113.25
647.997,5101.05
648.523,5097.1
649.05,5099.4
649.577,5113.3
650.103,5090.5
650.63,5091.2
651.156,5084.0
651.683,5120.15
652.209,5156.3
652.735,5150.4
653.262,5136.55
653.788,5189.25
654.314,5198.25
654.841,5147.95
655.367,5177.25
655.893,5169.85
656.419,5186.0
656.945,5199.85
657.471,5218.65
657.997,5221.3
658.523,5228.0
659.049,5226.95
659.575,5256.05
660.101,5267.55
660.627,5231.5
661.153,5218.3
661.679,5182.05
662.205,5152.3
662.731,5192.9
663.125,5167.9

File: VLFR_09-PET_bio_Raman_1fa49f1a.csv
nm,Intensity
526.493,829.15
527.039,830.0
527.586,831.5
528.133,828.85
528.679,829.35
529.225,828.7
529.771,830.0
530.317,829.7
530.863,829.3
531.409,829.15
531.955,831.0
532.5,830.8
533.046,829.9
533.591,836.15
534.136,1663.15
534.681,1712.8
535.226,1670.25
535.771,1703.1
536.315,1702.65
536.86,1716.75
537.404,1714.7
537.948,1745.5
538.493,1749.45
539.037,1759.05
539.58,1779.2
540.124,1798.45
540.668,1798.75
541.211,1829.0
541.755,1839.1
542.298,1848.8
542.841,1864.8
543.384,1886.8
543.927,1907.25
544.47,1919.85
545.013,1942.2
545.555,2072.65
546.098,1976.05
546.64,1985.95
547.182,2001.1
547.724,2009.05
548.266,2022.3
548.808,2028.6
549.35,2045.05
549.892,2070.15
550.433,2076.85
550.974,2085.0
551.516,2110.2
552.057,2113.05
552.598,2132.2
553.139,2139.95
553.68,2152.75
554.22,2162.95
554.761,2180.15
555.301,2179.4
555.842,2190.05
556.382,2201.7
556.922,2221.95
557.462,2248.55
558.002,2242.65
558.542,2242.05
559.082,2257.25
559.621,2276.6
560.161,2304.85
560.7,2324.35
561.239,2323.4
561.778,2326.25
562.317,2354.45
562.856,2373.1
563.395,2384.8
563.934,2413.75
564.472,2425.05
565.011,2469.7
565.549,2466.5
566.088,2480.0
566.626,2484.3
567.164,2471.65
567.702,2490.45
568.24,2499.8
568.777,2527.8
569.315,2550.2
569.853,2567.9
570.39,2587.55
570.927,2589.25
571.465,2617.25
572.002,2606.05
572.539,2621.0
573.076,2652.05
573.612,2660.9
574.149,2669.2
574.686,2684.25
575.222,2692.45
575.759,2706.15
576.295,2721.2
576.831,2736.85
577.367,2756.75
577.903,2746.1
578.439,2772.95
578.975,2789.95
579.511,2803.5
580.046,2796.95
580.582,2798.5
581.117,2815.5
581.653,2825.2
582.188,2986.5
582.723,2870.5
583.258,2875.55
583.793,2879.45
584.328,2881.6
584.863,2883.55
585.398,2908.95
585.932,2974.7
586.467,2976.55
587.001,2958.4
587.535,2955.5
588.07,2947.0
588.604,2942.1
589.138,2929.3
589.672,2931.0
590.206,2948.8
590.739,2965.85
591.273,2982.0
591.807,2985.45
592.34,2985.35
592.873,2972.4
593.407,2967.65
593.94,2974.3
594.473,2981.1
595.006,3017.05
595.539,3026.25
596.072,3034.5
596.605,3054.45
597.138,3058.5
597.67,3061.15
598.203,3093.8
598.735,3106.7
599.268,3105.8
599.8,3105.95
600.332,3089.85
600.865,3102.1
601.397,3095.5
601.929,3095.75
602.46,3101.05
602.992,3117.6
603.524,3138.35
604.056,3135.2
604.587,3133.4
605.119,3099.25
605.65,3099.45
606.182,3086.5
606.713,3089.95
607.244,3095.75
607.775,3128.55
608.306,3130.65
608.837,3152.15
609.368,3152.35
609.899,3144.65
610.43,3150.75
610.961,3153.05
611.491,3164.85
612.022,3199.05
612.552,3229.35
613.083,3255.95
613.613,3278.6
614.143,3281.0
614.673,3280.2
615.203,3286.7
615.734,3278.25
616.263,3271.2
616.793,3285.65
617.323,3317.95
617.853,3318.1
618.383,3336.55
618.912,3334.95
619.442,3335.3
619.971,3332.0
620.501,3322.15
621.03,3338.05
621.56,3336.8
622.089,3349.5
622.618,3381.45
623.147,3394.45
623.676,3400.8
624.205,3414.05
624.734,3430.5
625.263,3422.95
625.792,3419.5
626.321,3426.9
626.849,3428.8
627.378,3440.8
627.906,3433.65
628.435,3440.2
628.963,3461.5
629.492,3453.15
630.02,3480.2
630.548,3495.45
631.077,3504.1
631.605,3499.35
632.133,3487.25
632.661,3482.45
633.189,3494.15
633.717,3470.95
634.245,3470.95
634.773,3463.25
635.3,3471.35
635.828,3499.9
636.356,3497.2
636.883,3518.15
637.411,3491.3
637.938,3492.95
638.466,3494.15
638.993,3491.25
639.521,3492.3
640.048,3507.65
640.575,3496.55
641.103,3500.75
641.63,3500.8
642.157,3499.35
642.684,3489.85
643.211,3459.55
643.738,3440.05
644.265,3422.8
644.792,3410.2
645.319,3409.9
645.845,3407.75
646.372,3391.25
646.899,3400.1
647.425,3418.6
647.952,3417.95
648.479,3388.2
649.005,3389.9
649.532,3374.65
650.058,3373.25
650.585,3350.45
651.111,3358.35
651.637,3363.75
652.164,3360.3
652.69,3352.85
653.216,3342.45
653.742,3357.65
654.268,3340.5
654.794,3341.0
655.32,3331.05
655.846,3318.4
656.372,3302.0
656.898,3333.3
657.424,3317.6
657.95,3314.95
658.476,3315.7
659.002,3298.9
659.528,3304.9
660.053,3319.75
660.579,3299.95
661.105,3282.4
661.63,3269.6
662.156,3253.6
662.681,3274.0
663.076,3257.4

File: VLFR_09-PET_bio_Raman_1ffc1a7c.csv
nm,Intensity
526.508,831.5
527.055,829.5
527.602,830.2
528.149,830.3
528.695,829.3
529.241,830.5
529.787,829.7
530.334,828.7
530.879,829.4
531.425,830.5
531.971,833.1
532.516,832.9
533.062,830.1
533.607,834.0
534.152,1561.4
534.697,1422.4
535.242,1269.5
535.786,1188.9
536.331,1135.1
536.876,1108.1
537.42,1106.6
537.964,1100.9
538.508,1103.7
539.052,1098.0
539.596,1111.4
540.14,1126.1
540.683,1113.2
541.227,1103.8
541.77,1106.4
542.313,1107.7
542.856,1112.6
543.399,1123.1
543.942,1126.8
544.485,1123.5
545.027,1126.9
545.57,1135.6
546.112,1137.1
546.654,1140.8
547.196,1139.3
547.738,1141.2
548.28,1153.7
548.822,1153.9
549.363,1155.2
549.905,1163.3
550.446,1170.2
550.988,1181.5
551.529,1170.6
552.07,1182.2
552.611,1179.6
553.152,1196.5
553.692,1188.1
554.233,1192.8
554.773,1193.9
555.314,1206.8
555.854,1226.1
556.394,1225.3
556.934,1243.4
557.474,1340.8
558.014,1281.3
558.553,1248.3
559.093,1239.0
559.632,1228.9
560.172,1233.7
560.711,1232.1
561.25,1246.6
561.789,1254.7
562.328,1276.4
562.867,1265.5
563.406,1270.8
563.944,1273.3
564.483,1292.1
565.021,1353.0
565.559,1351.7
566.098,1355.4
566.636,1299.8
567.174,1280.2
567.711,1334.8
568.249,1314.3
568.787,1300.2
569.324,1320.7
569.862,1329.7
570.399,1352.5
570.936,1448.3
571.474,1559.2
572.011,1436.7
572.548,1360.5
573.084,1342.5
573.621,1355.1
574.158,1357.5
574.694,1353.7
575.231,1380.7
575.767,1385.1
576.303,1384.8
576.84,1402.6
577.376,1390.9
577.912,1378.2
578.447,1391.8
578.983,1385.7
579.519,1392.0
580.054,1397.7
580.59,1400.1
581.125,1412.1
581.661,1484.4
582.196,2396.2
582.731,1468.9
583.266,1433.9
583.801,1431.7
584.336,1428.5
584.87,1447.8
585.405,1498.8
585.94,1891.4
586.474,1722.6
587.008,1484.8
587.543,1456.2
588.077,1458.1
588.611,1452.7
589.145,1444.9
589.679,1454.2
590.213,1444.8
590.747,1465.6
591.28,1454.7
591.814,1458.2
592.347,1463.9
592.881,1456.5
593.414,1465.5
593.947,1460.2
594.48,1466.3
595.014,1481.8
595.547,1480.3
596.079,1492.6
596.612,1484.7
597.145,1487.8
597.678,1485.0
598.21,1496.0
598.743,1498.8
599.275,1516.6
599.807,1513.4
600.34,1510.4
600.872,1511.8
601.404,1518.4
601.936,1516.2
602.468,1517.5
603.0,1532.6
603.532,1522.5
604.063,1539.3
604.595,1534.8
605.126,1531.6
605.658,1527.0
606.189,1538.2
606.721,1529.0
607.252,1548.0
607.783,1555.5
608.314,1572.8
608.845,1568.3
609.376,1583.2
609.907,1582.3
610.438,1589.6
610.968,1590.5
611.499,1597.9
612.03,1608.2
612.56,1622.8
613.091,1649.8
613.621,1665.6
614.151,1666.6
614.681,1677.1
615.212,1676.7
615.742,1690.9
616.272,1701.4
616.802,1729.4
617.332,1729.8
617.861,1744.2
618.391,1762.1
618.921,1764.5
619.45,1769.3
619.98,1772.5
620.509,1790.0
621.039,1796.4
621.568,1810.6
622.097,1841.1
622.627,1847.2
623.156,1851.9
623.685,1874.1
624.214,1899.6
624.743,1901.1
625.272,1921.2
625.801,1907.7
626.33,1948.8
626.858,1954.8
627.387,1956.6
627.916,1974.0
628.444,1988.8
628.973,2024.7
629.501,2040.3
630.029,2050.2
630.558,2059.7
631.086,2111.6
631.614,2175.0
632.142,2195.8
632.67,2159.5
633.198,2173.6
633.726,2151.0
634.254,2153.5
634.782,2148.6
635.31,2188.8
635.838,2239.4
636.365,2363.8
636.893,2351.8
637.421,2258.8
637.948,2242.6
638.476,2242.6
639.003,2265.9
639.531,2259.5
640.058,2276.3
640.585,2295.6
641.113,2311.8
641.64,2315.6
642.167,2334.9
642.694,2337.6
643.221,2330.5
643.748,2334.6
644.275,2345.7
644.802,2334.8
645.329,2357.3
645.856,2359.8
646.382,2371.2
646.909,2378.6
647.436,2377.8
647.962,2411.1
648.489,2406.7
649.016,2410.6
649.542,2420.1
650.069,2421.5
650.595,2425.3
651.121,2419.2
651.648,2423.7
652.174,2446.1
652.7,2457.3
653.227,2446.5
653.753,2451.6
654.279,2464.4
654.805,2460.7
655.331,2495.0
655.857,2502.5
656.383,2472.4
656.909,2488.7
657.435,2492.3
657.961,2504.1
658.487,2528.2
659.013,2520.3
659.538,2530.8
660.064,2533.2
660.59,2538.7
661.116,2527.3
661.641,2531.7
662.167,2506.1
662.692,2527.7
663.087,2523.7

File: VLFR_09-PET_bio_Raman_2a822e82.csv
nm,Intensity
526.508,830.2
527.055,832.1
527.602,830.0
528.149,831.1
528.695,831.2
529.241,831.1
529.787,831.2
530.334,829.5
530.879,831.2
531.425,831.1
531.971,841.0
532.516,833.3
533.062,830.4
533.607,838.0
534.152,1790.3
534.697,1645.6
535.242,1460.8
535.786,1380.1
536.331,1310.0
536.876,1280.6
537.42,1255.3
537.964,1246.6
538.508,1249.2
539.052,1248.6
539.596,1263.9
540.14,1298.7
540.683,1265.5
541.227,1259.7
541.77,1266.4
542.313,1268.0
542.856,1273.2
543.399,1274.4
543.942,1292.3
544.485,1292.2
545.027,1303.3
545.57,1307.2
546.112,1312.2
546.654,1321.0
547.196,1315.7
547.738,1331.7
548.28,1330.9
548.822,1351.2
549.363,1342.4
549.905,1350.1
550.446,1375.7
550.988,1377.9
551.529,1365.0
552.07,1369.5
552.611,1383.2
553.152,1395.2
553.692,1395.5
554.233,1390.6
554.773,1405.8
555.314,1423.8
555.854,1442.2
556.394,1457.6
556.934,1473.5
557.474,1671.4
558.014,1549.7
558.553,1477.5
559.093,1455.4
559.632,1453.4
560.172,1464.5
560.711,1483.2
561.25,1495.9
561.789,1534.8
562.328,1565.8
562.867,1524.3
563.406,1527.9
563.944,1531.8
564.483,1574.2
565.021,1725.3
565.559,1682.0
566.098,1669.9
566.636,1579.2
567.174,1566.5
567.711,1654.6
568.249,1604.0
568.787,1598.6
569.324,1601.7
569.862,1621.1
570.399,1663.5
570.936,1862.3
571.474,2144.1
572.011,1833.5
572.548,1683.0
573.084,1659.4
573.621,1649.5
574.158,1683.9
574.694,1664.9
575.231,1712.8
575.767,1722.4
576.303,1700.1
576.84,1736.8
577.376,1725.0
577.912,1703.5
578.447,1709.2
578.983,1709.1
579.519,1703.4
580.054,1716.6
580.59,1727.9
581.125,1772.9
581.661,1913.0
582.196,3959.5
582.731,1889.0
583.266,1781.9
583.801,1751.5
584.336,1790.1
584.87,1793.8
585.405,1899.5
585.94,2708.0
586.474,2380.6
587.008,1882.5
587.543,1821.1
588.077,1806.3
588.611,1798.5
589.145,1792.5
589.679,1787.9
590.213,1805.1
590.747,1796.5
591.28,1796.2
591.814,1809.4
592.347,1804.2
592.881,1796.5
593.414,1810.3
593.947,1803.0
594.48,1817.3
595.014,1834.9
595.547,1832.6
596.079,1845.9
596.612,1838.3
597.145,1850.8
597.678,1860.1
598.21,1854.2
598.743,1875.2
599.275,1882.7
599.807,1886.7
600.34,1884.4
600.872,1880.7
601.404,1876.4
601.936,1894.1
602.468,1891.3
603.0,1911.9
603.532,1903.1
604.063,1914.1
604.595,1918.8
605.126,1911.0
605.658,1920.6
606.189,1915.4
606.721,1917.3
607.252,1923.0
607.783,1933.1
608.314,1946.7
608.845,1974.0
609.376,1982.5
609.907,1982.1
610.438,1984.5
610.968,1993.2
611.499,2007.7
612.03,2029.0
612.56,2052.0
613.091,2084.2
613.621,2087.2
614.151,2110.4
614.681,2124.8
615.212,2129.3
615.742,2136.0
616.272,2150.6
616.802,2170.0
617.332,2212.1
617.861,2233.0
618.391,2251.8
618.921,2248.1
619.45,2254.3
619.98,2277.2
620.509,2272.8
621.039,2294.5
621.568,2324.5
622.097,2335.6
622.627,2345.9
623.156,2383.6
623.685,2388.1
624.214,2427.1
624.743,2449.6
625.272,2459.3
625.801,2473.5
626.33,2479.5
626.858,2501.4
627.387,2500.2
627.916,2519.8
628.444,2558.3
628.973,2563.2
629.501,2625.1
630.029,2649.8
630.558,2639.5
631.086,2694.5
631.614,2788.9
632.142,2832.0
632.67,2774.3
633.198,2763.9
633.726,2753.7
634.254,2727.9
634.782,2726.2
635.31,2759.6
635.838,2852.0
636.365,3012.9
636.893,3005.1
637.421,2853.1
637.948,2816.4
638.476,2830.5
639.003,2825.5
639.531,2834.3
640.058,2864.1
640.585,2853.5
641.113,2886.6
641.64,2879.6
642.167,2918.6
642.694,2907.6
643.221,2890.1
643.748,2892.0
644.275,2889.4
644.802,2889.3
645.329,2887.0
645.856,2923.0
646.382,2904.7
646.909,2936.4
647.436,2943.8
647.962,2955.4
648.489,2938.6
649.016,2926.2
649.542,2948.3
650.069,2937.7
650.595,2927.5
651.121,2956.9
651.648,2955.9
652.174,2965.1
652.7,2968.9
653.227,2961.1
653.753,2997.1
654.279,2991.3
654.805,2974.2
655.331,2995.3
655.857,3010.3
656.383,3002.1
656.909,3000.0
657.435,3002.7
657.961,3000.6
658.487,3033.4
659.013,3031.7
659.538,3041.3
660.064,3032.3
660.59,3027.4
661.116,3030.6
661.641,3009.2
662.167,3005.1
662.692,3018.1
663.087,3005.5