Folder: MPX_specDB/spectra (part 140)

File: VLFR_08-PLA_bio_Raman_c955b1d1.csv
nm,Intensity
526.547,831.85
527.095,831.75
527.642,832.3
528.189,833.05
528.736,831.35
529.283,832.15
529.829,832.85
530.376,831.85
530.922,832.3
531.468,832.1
532.014,834.9
532.56,831.85
533.106,831.65
533.651,833.4
534.196,917.05
534.742,896.55
535.287,888.85
535.832,883.05
536.376,883.6
536.921,876.25
537.465,874.6
538.01,870.9
538.554,868.7
539.098,863.7
539.642,861.3
540.186,860.35
540.729,871.4
541.273,871.75
541.816,864.35
542.36,863.2
542.903,864.8
543.446,874.25
543.988,887.2
544.531,869.75
545.074,864.5
545.616,862.4
546.158,870.75
546.701,899.45
547.243,867.8
547.785,864.25
548.326,863.05
548.868,865.75
549.41,868.1
549.951,871.45
550.492,878.9
551.034,865.5
551.575,867.35
552.116,867.15
552.656,868.1
553.197,869.2
553.738,869.45
554.278,868.15
554.819,865.25
555.359,861.7
555.899,862.6
556.439,864.3
556.979,863.0
557.519,868.85
558.058,918.9
558.598,875.1
559.137,869.2
559.677,869.2
560.216,866.3
560.755,864.6
561.294,864.7
561.833,869.95
562.371,1089.2
562.91,870.4
563.449,881.55
563.987,869.8
564.525,868.3
565.064,880.2
565.602,877.25
566.14,891.65
566.678,887.1
567.216,869.65
567.753,870.7
568.291,870.75
568.828,868.25
569.366,871.0
569.903,868.6
570.44,868.85
570.977,869.0
571.514,879.8
572.051,875.5
572.588,876.2
573.125,875.65
573.661,878.9
574.198,876.95
574.734,878.2
575.271,871.5
575.807,872.2
576.343,884.45
576.879,906.65
577.415,877.8
577.951,873.75
578.486,873.65
579.022,872.75
579.557,872.3
580.093,872.5
580.628,870.25
581.164,871.7
581.699,873.25
582.234,874.1
582.769,873.35
583.304,871.65
583.838,873.45
584.373,873.8
584.908,874.15
585.442,870.45
585.977,874.1
586.511,878.2
587.045,892.15
587.58,902.15
588.114,879.6
588.648,873.8
589.182,870.1
589.715,871.35
590.249,871.0
590.783,870.75
591.316,871.15
591.85,868.25
592.383,868.0
592.917,867.85
593.45,867.55
593.983,869.7
594.516,867.75
595.049,868.9
595.582,867.05
596.115,868.1
596.648,869.95
597.18,867.0
597.713,867.9
598.245,869.3
598.778,867.95
599.31,869.15
599.842,867.85
600.375,866.2
600.907,868.6
601.439,868.1
601.971,867.65
602.503,866.9
603.034,867.25
603.566,869.35
604.098,869.55
604.629,866.35
605.161,870.65
605.692,868.6
606.224,866.95
606.755,868.4
607.286,867.1
607.817,868.45
608.348,868.05
608.879,867.1
609.41,867.05
609.941,870.3
610.472,867.55
611.002,868.45
611.533,867.35
612.063,868.3
612.594,867.6
613.124,867.35
613.655,868.45
614.185,870.45
614.715,869.45
615.245,868.55
615.775,867.25
616.305,868.65
616.835,868.7
617.365,868.55
617.895,870.2
618.425,869.15
618.954,868.55
619.484,867.4
620.013,866.3
620.543,866.55
621.072,866.5
621.602,865.4
622.131,867.4
622.66,869.6
623.189,871.4
623.718,871.65
624.247,869.05
624.776,868.0
625.305,864.95
625.834,866.6
626.363,865.4
626.891,866.15
627.42,866.1
627.949,869.65
628.477,894.3
629.006,887.4
629.534,889.55
630.062,890.95
630.591,912.65
631.119,1064.9
631.647,960.95
632.175,915.7
632.703,901.4
633.231,941.25
633.759,924.2
634.287,888.0
634.815,870.95
635.343,865.5
635.871,862.7
636.398,863.5
636.926,863.6
637.454,861.5
637.981,860.35
638.509,861.0
639.036,863.3
639.564,860.35
640.091,861.35
640.618,861.45
641.146,859.85
641.673,860.0
642.2,861.45
642.727,861.65
643.254,858.85
643.781,859.55
644.308,860.2
644.835,859.75
645.362,858.0
645.889,858.1
646.416,857.55
646.942,859.4
647.469,859.8
647.996,858.55
648.522,860.1
649.049,862.8
649.576,866.2
650.102,870.3
650.629,863.35
651.155,861.05
651.682,860.9
652.208,858.55
652.734,858.75
653.261,860.7
653.787,860.6
654.313,858.7
654.839,856.8
655.365,857.75
655.892,856.2
656.418,856.8
656.944,857.15
657.47,857.4
657.996,857.4
658.522,857.05
659.048,856.25
659.574,855.75
660.099,855.7
660.625,854.85
661.151,854.9
661.677,856.15
662.203,854.1
662.728,852.6
663.123,853.4

File: VLFR_08-PLA_bio_Raman_c957802d.csv
nm,Intensity
526.508,829.6
527.055,830.5
527.602,830.1
528.149,830.7
528.695,829.6
529.241,829.6
529.787,829.4
530.334,829.9
530.879,829.3
531.425,828.5
531.971,834.7
532.516,832.1
533.062,829.3
533.607,830.5
534.152,1074.5
534.697,1028.2
535.242,982.6
535.786,965.3
536.331,954.9
536.876,960.1
537.42,952.8
537.964,945.1
538.508,934.3
539.052,934.6
539.596,933.7
540.14,927.8
540.683,945.9
541.227,950.1
541.77,937.9
542.313,930.8
542.856,932.9
543.399,960.0
543.942,966.0
544.485,946.2
545.027,933.9
545.57,930.1
546.112,930.2
546.654,929.4
547.196,934.9
547.738,938.6
548.28,937.3
548.822,937.3
549.363,940.9
549.905,941.2
550.446,941.9
550.988,946.5
551.529,950.6
552.07,951.6
552.611,951.6
553.152,951.3
553.692,950.2
554.233,955.2
554.773,949.9
555.314,948.2
555.854,943.9
556.394,945.4
556.934,946.0
557.474,966.3
558.014,1093.5
558.553,982.5
559.093,964.7
559.632,963.1
560.172,953.8
560.711,956.3
561.25,952.2
561.789,949.1
562.328,955.6
562.867,964.3
563.406,1004.6
563.944,978.6
564.483,967.6
565.021,988.5
565.559,985.3
566.098,1013.1
566.636,984.7
567.174,958.9
567.711,968.2
568.249,968.4
568.787,971.1
569.324,968.3
569.862,968.6
570.399,969.3
570.936,973.4
571.474,985.7
572.011,992.3
572.548,989.3
573.084,986.3
573.621,992.9
574.158,987.0
574.694,997.5
575.231,976.8
575.767,978.0
576.303,994.0
576.84,1062.3
577.376,999.9
577.912,981.1
578.447,976.2
578.983,975.6
579.519,976.9
580.054,976.5
580.59,978.6
581.125,974.8
581.661,976.5
582.196,979.5
582.731,977.7
583.266,980.9
583.801,979.5
584.336,976.0
584.87,980.7
585.405,980.9
585.94,987.3
586.474,1005.7
587.008,1040.3
587.543,1057.2
588.077,1005.9
588.611,988.9
589.145,985.4
589.679,984.2
590.213,979.4
590.747,984.6
591.28,981.2
591.814,977.3
592.347,978.9
592.881,984.1
593.414,978.6
593.947,980.6
594.48,979.7
595.014,979.4
595.547,981.3
596.079,980.1
596.612,981.5
597.145,977.9
597.678,982.9
598.21,982.1
598.743,983.5
599.275,983.1
599.807,984.6
600.34,980.9
600.872,979.1
601.404,979.7
601.936,980.2
602.468,980.8
603.0,982.3
603.532,981.9
604.063,980.5
604.595,977.7
605.126,973.9
605.658,975.0
606.189,977.5
606.721,973.5
607.252,975.7
607.783,970.7
608.314,980.8
608.845,974.6
609.376,974.1
609.907,971.2
610.438,975.7
610.968,972.4
611.499,970.1
612.03,976.9
612.56,977.0
613.091,975.3
613.621,980.0
614.151,975.7
614.681,979.1
615.212,981.9
615.742,980.7
616.272,977.1
616.802,977.2
617.332,976.3
617.861,976.0
618.391,974.9
618.921,977.1
619.45,975.6
619.98,978.4
620.509,977.4
621.039,977.5
621.568,975.0
622.097,978.7
622.627,984.1
623.156,991.0
623.685,979.6
624.214,979.9
624.743,976.3
625.272,973.5
625.801,973.7
626.33,972.8
626.858,977.3
627.387,973.7
627.916,986.0
628.444,1060.9
628.973,1044.6
629.501,1041.5
630.029,1049.3
630.558,1113.1
631.086,1550.7
631.614,1270.5
632.142,1122.1
632.67,1091.0
633.198,1196.6
633.726,1156.0
634.254,1052.2
634.782,991.1
635.31,979.2
635.838,970.8
636.365,965.2
636.893,964.6
637.421,963.7
637.948,965.4
638.476,960.2
639.003,960.2
639.531,961.2
640.058,958.4
640.585,958.6
641.113,961.2
641.64,956.7
642.167,960.0
642.694,956.7
643.221,954.1
643.748,954.4
644.275,950.7
644.802,944.4
645.329,948.7
645.856,950.2
646.382,947.0
646.909,945.6
647.436,944.8
647.962,945.2
648.489,940.7
649.016,938.1
649.542,942.1
650.069,942.6
650.595,937.0
651.121,940.3
651.648,936.0
652.174,934.6
652.7,936.5
653.227,936.9
653.753,939.3
654.279,935.8
654.805,934.9
655.331,935.6
655.857,935.5
656.383,934.2
656.909,933.3
657.435,936.5
657.961,937.8
658.487,931.8
659.013,931.0
659.538,931.9
660.064,934.7
660.59,929.9
661.116,931.9
661.641,927.8
662.167,930.6
662.692,928.4
663.087,931.3

File: VLFR_08-PLA_bio_Raman_c5616893.csv
nm,Intensity
526.547,832.45
527.095,832.55
527.642,831.9
528.189,832.5
528.736,832.35
529.283,831.8
529.829,832.6
530.376,832.15
530.922,832.8
531.468,832.3
532.014,833.9
532.56,833.15
533.106,832.4
533.651,835.1
534.196,1003.7
534.742,962.1
535.287,938.5
535.832,921.6
536.376,919.8
536.921,916.65
537.465,906.7
538.01,905.1
538.554,895.95
539.098,896.85
539.642,889.6
540.186,889.45
540.729,903.2
541.273,904.55
541.816,894.15
542.36,892.05
542.903,893.15
543.446,913.75
543.988,925.3
544.531,900.95
545.074,895.5
545.616,894.3
546.158,896.1
546.701,915.25
547.243,898.25
547.785,893.0
548.326,894.0
548.868,896.8
549.41,898.8
549.951,901.1
550.492,904.7
551.034,901.65
551.575,905.5
552.116,908.4
552.656,911.45
553.197,910.75
553.738,908.85
554.278,910.15
554.819,906.4
555.359,900.3
555.899,900.25
556.439,900.65
556.979,902.9
557.519,913.8
558.058,1017.3
558.598,923.0
559.137,911.5
559.677,909.5
560.216,907.6
560.755,904.25
561.294,902.0
561.833,905.7
562.371,1019.25
562.91,914.0
563.449,936.8
563.987,919.45
564.525,910.7
565.064,931.9
565.602,925.4
566.14,955.2
566.678,928.7
567.216,909.35
567.753,913.2
568.291,913.8
568.828,914.0
569.366,913.3
569.903,913.65
570.44,914.05
570.977,914.05
571.514,932.3
572.051,928.2
572.588,924.1
573.125,925.95
573.661,930.8
574.198,925.9
574.734,938.65
575.271,921.95
575.807,921.6
576.343,941.5
576.879,986.9
577.415,939.75
577.951,923.25
578.486,922.7
579.022,922.1
579.557,923.5
580.093,923.35
580.628,923.65
581.164,922.8
581.699,922.1
582.234,922.6
582.769,927.6
583.304,927.6
583.838,924.75
584.373,928.75
584.908,924.0
585.442,926.1
585.977,927.8
586.511,937.75
587.045,965.5
587.58,984.9
588.114,941.95
588.648,928.95
589.182,925.35
589.715,922.9
590.249,922.25
590.783,924.65
591.316,918.3
591.85,921.8
592.383,921.9
592.917,919.2
593.45,918.75
593.983,918.05
594.516,919.6
595.049,920.35
595.582,919.55
596.115,921.05
596.648,919.55
597.18,918.6
597.713,921.15
598.245,921.7
598.778,920.9
599.31,922.4
599.842,923.9
600.375,921.05
600.907,920.45
601.439,922.75
601.971,921.1
602.503,921.45
603.034,921.0
603.566,922.55
604.098,921.9
604.629,919.65
605.161,920.1
605.692,920.2
606.224,921.45
606.755,920.65
607.286,922.85
607.817,920.3
608.348,921.75
608.879,922.15
609.41,922.7
609.941,921.25
610.472,920.3
611.002,923.0
611.533,920.5
612.063,922.7
612.594,922.8
613.124,923.45
613.655,924.4
614.185,926.15
614.715,924.8
615.245,921.6
615.775,925.35
616.305,924.35
616.835,920.45
617.365,924.9
617.895,920.8
618.425,919.75
618.954,920.95
619.484,921.5
620.013,921.35
620.543,919.75
621.072,919.25
621.602,919.8
622.131,919.85
622.66,925.55
623.189,931.9
623.718,926.1
624.247,923.6
624.776,919.25
625.305,917.55
625.834,915.3
626.363,917.4
626.891,916.55
627.42,920.5
627.949,929.15
628.477,982.25
629.006,970.25
629.534,965.85
630.062,976.65
630.591,1028.85
631.119,1349.05
631.647,1125.2
632.175,1023.25
632.703,1006.8
633.231,1080.8
633.759,1046.65
634.287,968.9
634.815,929.3
635.343,919.0
635.871,916.85
636.398,912.9
636.926,913.05
637.454,911.75
637.981,911.6
638.509,909.95
639.036,912.45
639.564,911.9
640.091,910.45
640.618,908.5
641.146,912.15
641.673,910.55
642.2,910.65
642.727,910.55
643.254,909.0
643.781,905.75
644.308,905.75
644.835,906.5
645.362,906.2
645.889,903.7
646.416,901.2
646.942,904.25
647.469,903.35
647.996,902.35
648.522,903.75
649.049,901.75
649.576,902.3
650.102,900.95
650.629,901.75
651.155,898.25
651.682,901.55
652.208,897.25
652.734,897.4
653.261,901.55
653.787,899.2
654.313,900.95
654.839,896.65
655.365,896.0
655.892,897.85
656.418,894.9
656.944,894.7
657.47,897.05
657.996,895.05
658.522,895.5
659.048,893.2
659.574,892.1
660.099,892.9
660.625,892.5
661.151,890.4
661.677,889.85
662.203,888.7
662.728,890.3
663.123,887.25

File: VLFR_08-PLA_bio_Raman_cb4574df.csv
nm,Intensity
528.626,1858.6
529.132,1858.7
529.637,1860.0
530.143,1858.2
530.648,1858.7
531.153,1863.8
531.658,1895.1
532.164,4960.3
532.669,1863.8
533.174,1863.5
533.679,2297.7
534.184,3479.7
534.689,3096.3
535.194,2887.6
535.699,2684.7
536.203,2608.8
536.708,2661.9
537.213,2529.7
537.717,2563.7
538.222,2436.0
538.726,2395.9
539.231,2376.3
539.735,2279.6
540.239,2355.2
540.744,2495.0
541.248,2458.5
541.752,2370.9
542.256,2347.1
542.76,2355.1
543.264,2543.8
543.768,2713.3
544.272,2520.1
544.776,2352.0
545.28,2286.3
545.784,2258.8
546.287,2277.7
546.791,2285.7
547.294,2315.8
547.798,2274.3
548.301,2307.5
548.805,2323.2
549.308,2309.4
549.811,2313.8
550.315,2317.8
550.818,2372.5
551.321,2368.7
551.824,2409.6
552.327,2422.0
552.83,2414.1
553.333,2358.5
553.835,2450.5
554.338,2435.6
554.841,2376.7
555.343,2325.2
555.846,2307.9
556.349,2308.7
556.851,2334.7
557.353,2542.6
557.856,3529.6
558.358,3168.1
558.86,2545.7
559.362,2504.2
559.864,2435.4
560.366,2386.6
560.868,2361.2
561.37,2360.6
561.872,2376.7
562.374,2373.6
562.876,2528.1
563.377,2868.5
563.879,2632.1
564.38,2471.9
564.882,2714.7
565.383,2709.5
565.885,2957.1
566.386,2854.0
566.887,2481.9
567.388,2442.7
567.889,2548.8
568.391,2490.6
568.892,2495.3
569.392,2484.0
569.893,2452.4
570.394,2460.0
570.895,2490.7
571.395,2688.5
571.896,2750.3
572.397,2629.6
572.897,2647.4
573.397,2659.0
573.898,2648.6
574.398,2691.5
574.898,2545.1
575.398,2489.5
575.898,2509.3
576.398,2975.3
576.898,3332.4
577.398,2664.9
577.898,2511.1
578.398,2466.1
578.897,2458.4
579.397,2448.1
579.896,2455.6
580.396,2437.1
580.895,2438.0
581.395,2436.9
581.894,2451.6
582.393,2432.5
582.892,2453.1
583.391,2445.8
583.89,2474.3
584.389,2475.2
584.888,2461.8
585.387,2470.0
585.886,2492.1
586.384,2601.8
586.883,2944.1
587.381,3210.6
587.88,2907.6
588.378,2540.3
588.876,2458.7
589.375,2469.8
589.873,2443.2
590.371,2450.1
590.869,2426.1
591.367,2451.3
591.865,2456.1
592.363,2462.6
592.86,2462.0
593.358,2464.6
593.856,2444.9
594.353,2453.0
594.851,2444.3
595.348,2452.2
595.845,2431.5
596.342,2462.5
596.84,2454.4
597.337,2444.6
597.834,2451.9
598.331,2441.5
598.828,2463.0
599.324,2453.0
599.821,2474.5
600.318,2445.2
600.814,2463.6
601.311,2456.9
601.807,2475.7
602.304,2458.8
602.8,2462.3
603.296,2476.4
603.792,2455.9
604.288,2447.8
604.784,2435.1
605.28,2443.7
605.776,2464.7
606.272,2462.8
606.767,2449.4
607.263,2462.5
607.759,2470.2
608.254,2471.1
608.749,2467.2
609.245,2439.6
609.74,2492.3
610.235,2457.5
610.73,2434.0
611.225,2467.6
611.72,2443.7
612.215,2446.3
612.71,2450.6
613.204,2459.9
613.699,2451.5
614.194,2462.9
614.688,2455.5
615.182,2446.9
615.677,2466.9
616.171,2461.3
616.665,2475.7
617.159,2483.2
617.653,2467.9
618.147,2452.6
618.641,2423.3
619.135,2432.4
619.628,2462.9
620.122,2454.6
620.615,2452.1
621.109,2436.7
621.602,2440.9
622.095,2495.5
622.589,2545.4
623.082,2594.5
623.575,2556.2
624.068,2511.6
624.561,2475.3
625.053,2466.6
625.546,2446.0
626.039,2446.0
626.531,2438.6
627.024,2444.7
627.516,2517.1
628.008,2764.1
628.501,3327.2
628.993,3042.7
629.485,3092.9
629.977,3145.4
630.469,3853.9
630.96,7136.1
631.452,5644.9
631.944,3914.7
632.435,3635.1
632.927,4224.5
633.418,4517.9
633.91,3690.4
634.401,2902.4
634.892,2580.6
635.383,2471.3
635.874,2405.8
636.365,2389.4
636.856,2369.5
637.346,2376.1
637.837,2363.4
638.327,2353.1
638.818,2336.9
639.308,2329.2
639.799,2328.7
640.289,2351.9
640.779,2341.1
641.269,2342.7
641.759,2337.9
642.249,2318.2
642.738,2305.7
643.228,2312.1
643.718,2310.7
644.207,2283.5
644.697,2285.8
645.186,2270.8
645.675,2278.5
646.164,2259.3
646.653,2260.5
647.142,2261.7
647.631,2238.5
648.12,2240.9
648.609,2228.1
649.098,2236.8
649.586,2218.8
650.075,2225.1
650.563,2226.8
651.051,2229.9
651.539,2212.1
652.027,2203.2
652.515,2205.3
653.003,2194.3
653.491,2184.3
653.979,2187.5
654.467,2188.4
654.954,2166.5
655.442,2168.9
655.929,2182.0
656.416,2176.7
656.904,2163.1
657.391,2195.2
657.878,2154.5
658.365,2154.9
658.851,2122.2
659.338,2153.9
659.825,2125.1
660.311,2135.3
660.798,2152.5
661.041,2118.4

File: VLFR_08-PLA_bio_Raman_cd146a34.csv
nm,Intensity
526.495,829.34
527.042,829.5
527.589,829.43
528.136,829.23
528.682,829.07
529.229,829.44
529.775,828.76
530.321,829.07
530.867,829.39
531.413,829.15
531.959,837.51
532.505,830.56
533.051,829.16
533.596,829.34
534.141,856.4
534.687,856.51
535.232,852.21
535.777,850.82
536.321,848.78
536.866,848.85
537.41,847.47
537.955,846.82
538.499,847.17
539.043,847.29
539.587,847.16
540.131,847.17
540.675,850.19
541.219,852.84
541.762,856.42
542.305,855.39
542.849,857.69
543.392,857.32
543.935,853.11
544.478,856.17
545.02,857.99
545.563,858.66
546.106,854.22
546.648,855.85
547.19,857.49
547.732,854.87
548.274,852.52
548.816,853.04
549.358,852.66
549.9,852.83
550.441,852.93
550.983,851.7
551.524,851.55
552.065,851.13
552.606,851.2
553.147,851.63
553.688,851.61
554.229,851.71
554.769,851.45
555.31,851.64
555.85,852.37
556.391,851.9
556.931,852.12
557.471,853.0
558.011,854.25
558.551,855.65
559.09,857.87
559.63,854.85
560.169,854.07
560.709,856.08
561.248,858.41
561.787,859.36
562.326,857.88
562.865,860.18
563.404,862.82
563.943,866.94
564.481,870.83
565.02,894.84
565.558,880.87
566.096,881.83
566.634,867.88
567.172,864.17
567.71,859.96
568.248,859.7
568.786,858.98
569.324,858.89
569.861,860.71
570.399,862.49
570.936,863.0
571.473,864.31
572.01,865.31
572.547,867.38
573.084,870.51
573.621,867.42
574.158,873.26
574.694,871.84
575.231,867.85
575.767,867.46
576.303,864.78
576.84,866.02
577.376,866.12
577.912,862.57
578.448,860.21
578.984,860.31
579.519,860.53
580.055,860.41
580.59,860.65
581.126,861.27
581.661,861.65
582.196,861.54
582.731,861.6
583.267,861.4
583.801,862.02
584.336,862.3
584.871,862.43
585.406,862.5
585.94,862.45
586.475,863.4
587.009,863.35
587.543,862.97
588.078,863.7
588.612,863.02
589.146,861.94
589.68,863.21
590.214,863.16
590.747,862.12
591.281,863.19
591.815,863.97
592.348,863.94
592.881,863.4
593.415,863.72
593.948,862.8
594.481,863.44
595.014,864.2
595.547,863.46
596.08,863.79
596.613,865.11
597.146,864.88
597.678,864.72
598.211,865.82
598.743,865.29
599.276,865.24
599.808,865.36
600.34,865.07
600.872,865.16
601.404,865.24
601.936,864.87
602.468,864.63
603.0,864.94
603.532,865.6
604.064,865.66
604.595,865.33
605.127,864.19
605.658,864.22
606.189,864.16
606.721,863.98
607.252,863.98
607.783,864.76
608.314,865.41
608.845,865.32
609.376,864.07
609.907,864.57
610.438,864.99
610.968,865.24
611.499,864.59
612.029,865.92
612.56,865.49
613.09,866.13
613.621,865.96
614.151,866.59
614.681,866.71
615.211,866.63
615.741,866.5
616.271,866.31
616.801,866.26
617.331,866.86
617.861,867.71
618.39,867.51
618.92,867.34
619.45,867.81
619.979,867.21
620.509,867.68
621.038,867.32
621.567,868.26
622.096,869.05
622.626,870.22
623.155,870.18
623.684,869.73
624.213,870.34
624.742,870.97
625.271,870.34
625.799,872.71
626.328,874.92
626.857,878.6
627.386,882.68
627.914,889.54
628.443,900.5
628.971,912.02
629.5,908.91
630.028,900.01
630.556,894.37
631.084,893.23
631.613,886.55
632.141,883.23
632.669,875.49
633.197,873.04
633.725,870.01
634.253,868.33
634.781,867.79
635.308,865.83
635.836,866.2
636.364,865.64
636.891,865.22
637.419,865.81
637.947,865.98
638.474,865.84
639.002,866.0
639.529,866.38
640.056,865.75
640.584,866.55
641.111,867.03
641.638,867.31
642.165,866.74
642.692,867.93
643.219,868.16
643.746,867.83
644.273,868.89
644.8,871.21
645.327,871.02
645.854,871.09
646.381,871.62
646.908,872.28
647.434,872.79
647.961,872.48
648.488,872.52
649.014,872.91
649.541,870.8
650.067,870.52
650.594,869.71
651.12,870.48
651.646,869.32
652.173,868.97
652.699,867.35
653.225,867.06
653.752,865.98
654.278,865.03
654.804,865.19
655.33,863.36
655.856,862.46
656.382,862.6
656.908,862.05
657.434,862.15
657.96,862.11
658.486,861.62
659.012,861.36
659.538,860.94
660.064,859.48
660.589,860.32
661.115,859.45
661.641,858.87
662.166,859.07
662.692,859.3
663.086,858.2

File: VLFR_08-PLA_bio_Raman_ce1097ca.csv
nm,Intensity
528.626,1864.7
529.132,1866.6
529.637,1867.2
530.143,1866.3
530.648,1866.6
531.153,1868.6
531.658,1898.0
532.164,5296.7
532.669,1869.9
533.174,1870.1
533.679,2016.4
534.184,2691.2
534.689,2611.3
535.194,2583.0
535.699,2529.4
536.203,2447.1
536.708,2466.5
537.213,2406.3
537.717,2438.9
538.222,2434.5
538.726,2397.7
539.231,2415.5
539.735,2403.0
540.239,2403.6
540.744,2469.5
541.248,2462.5
541.752,2441.1
542.256,2441.9
542.76,2466.6
543.264,2535.9
543.768,2608.4
544.272,2547.8
544.776,2507.7
545.28,2475.7
545.784,2495.2
546.287,2506.8
546.791,2505.5
547.294,2536.7
547.798,2547.2
548.301,2548.4
548.805,2553.1
549.308,2532.9
549.811,2549.0
550.315,2565.3
550.818,2589.5
551.321,2614.3
551.824,2619.5
552.327,2630.2
552.83,2611.8
553.333,2635.8
553.835,2645.6
554.338,2639.4
554.841,2641.7
555.343,2623.5
555.846,2597.9
556.349,2608.7
556.851,2629.8
557.353,2663.8
557.856,2914.2
558.358,2900.6
558.86,2693.4
559.362,2694.9
559.864,2680.2
560.366,2674.0
560.868,2688.3
561.37,2662.3
561.872,2674.8
562.374,2693.2
562.876,2713.1
563.377,2795.5
563.879,2729.0
564.38,2721.2
564.882,2744.9
565.383,2761.7
565.885,2815.9
566.386,2819.2
566.887,2702.0
567.388,2682.3
567.889,2716.7
568.391,2705.3
568.892,2736.8
569.392,2738.3
569.893,2755.7
570.394,2744.4
570.895,2739.9
571.395,2829.3
571.896,2812.2
572.397,2781.4
572.897,2737.1
573.397,2750.8
573.898,2769.3
574.398,2770.5
574.898,2744.1
575.398,2724.0
575.898,2788.6
576.398,2901.2
576.898,2991.8
577.398,2805.9
577.898,2702.8
578.398,2661.3
578.897,2679.9
579.397,2736.3
579.896,2723.7
580.396,2689.0
580.895,2691.7
581.395,2698.1
581.894,2857.2
582.393,2702.7
582.892,2698.2
583.391,2669.4
583.89,2706.4
584.389,2687.9
584.888,2661.5
585.387,2658.5
585.886,2662.8
586.384,2685.0
586.883,2756.1
587.381,2864.5
587.88,2781.0
588.378,2670.8
588.876,2650.9
589.375,2657.8
589.873,2648.4
590.371,2665.1
590.869,2654.8
591.367,2638.9
591.865,2658.1
592.363,2655.4
592.86,2654.7
593.358,2638.2
593.856,2629.8
594.353,2648.9
594.851,2640.9
595.348,2630.7
595.845,2652.9
596.342,2672.8
596.84,2658.9
597.337,2667.2
597.834,2666.6
598.331,2650.2
598.828,2653.5
599.324,2673.5
599.821,2671.1
600.318,2671.4
600.814,2653.3
601.311,2669.6
601.807,2675.7
602.304,2651.4
602.8,2663.0
603.296,2664.8
603.792,2640.5
604.288,2659.5
604.784,2680.0
605.28,2677.0
605.776,2661.5
606.272,2666.6
606.767,2663.9
607.263,2681.0
607.759,2650.6
608.254,2646.8
608.749,2665.2
609.245,2659.8
609.74,2651.5
610.235,2646.0
610.73,2655.1
611.225,2650.3
611.72,2677.6
612.215,2640.8
612.71,2634.9
613.204,2672.4
613.699,2645.9
614.194,2628.1
614.688,2625.6
615.182,2625.1
615.677,2614.9
616.171,2613.0
616.665,2612.6
617.159,2640.6
617.653,2618.6
618.147,2610.9
618.641,2600.1
619.135,2613.7
619.628,2604.3
620.122,2601.0
620.615,2597.1
621.109,2591.6
621.602,2593.6
622.095,2601.9
622.589,2612.1
623.082,2602.9
623.575,2588.5
624.068,2585.7
624.561,2582.6
625.053,2582.3
625.546,2537.4
626.039,2566.4
626.531,2567.5
627.024,2573.8
627.516,2626.9
628.008,2677.0
628.501,2835.5
628.993,2772.0
629.485,2797.4
629.977,2790.0
630.469,2937.3
630.96,3799.2
631.452,3569.2
631.944,3039.2
632.435,2840.1
632.927,2926.7
633.418,3083.7
633.91,2875.8
634.401,2643.1
634.892,2514.1
635.383,2491.0
635.874,2470.9
636.365,2472.8
636.856,2469.7
637.346,2467.8
637.837,2438.1
638.327,2468.5
638.818,2447.5
639.308,2438.9
639.799,2452.1
640.289,2442.9
640.779,2412.1
641.269,2419.9
641.759,2433.2
642.249,2426.4
642.738,2426.1
643.228,2401.5
643.718,2418.2
644.207,2420.1
644.697,2401.2
645.186,2388.3
645.675,2399.0
646.164,2390.7
646.653,2395.9
647.142,2366.5
647.631,2353.1
648.12,2363.5
648.609,2343.3
649.098,2345.3
649.586,2339.9
650.075,2347.4
650.563,2334.9
651.051,2328.0
651.539,2309.7
652.027,2320.4
652.515,2294.0
653.003,2304.8
653.491,2284.0
653.979,2284.3
654.467,2273.0
654.954,2286.0
655.442,2289.8
655.929,2270.0
656.416,2267.7
656.904,2263.1
657.391,2256.2
657.878,2252.2
658.365,2243.7
658.851,2234.2
659.338,2238.9
659.825,2209.7
660.311,2227.0
660.798,2215.0
661.041,2218.6