Folder: MPX_specDB/spectra (part 150)

File: VLFR_08-PLA_nobio_Raman_83f2115e.csv
nm,Intensity
526.486,830.1
527.033,830.9
527.579,829.7
528.126,830.9
528.672,830.5
529.219,829.7
529.765,830.6
530.311,831.6
530.857,830.2
531.403,830.9
531.948,834.0
532.494,832.5
533.039,829.2
533.585,833.3
534.13,1035.1
534.675,1008.8
535.22,976.4
535.764,954.5
536.309,949.0
536.854,953.9
537.398,945.2
537.942,943.1
538.486,937.2
539.03,936.6
539.574,933.3
540.118,929.8
540.662,943.3
541.205,950.9
541.749,940.0
542.292,932.6
542.835,937.7
543.378,956.8
543.921,969.4
544.464,953.5
545.006,941.3
545.549,936.2
546.091,936.7
546.634,943.1
547.176,945.2
547.718,939.2
548.26,945.4
548.802,943.1
549.343,947.0
549.885,945.6
550.426,942.4
550.968,953.2
551.509,951.9
552.05,956.2
552.591,958.7
553.132,964.0
553.673,955.6
554.214,971.8
554.754,962.5
555.295,954.3
555.835,957.0
556.375,952.9
556.915,958.6
557.455,974.3
557.995,1073.1
558.535,993.9
559.075,974.2
559.614,964.4
560.154,971.7
560.693,965.1
561.232,958.6
561.772,963.5
562.311,966.9
562.85,972.7
563.388,1002.9
563.927,988.9
564.466,979.7
565.004,995.7
565.543,995.8
566.081,1021.6
566.619,994.6
567.157,983.5
567.695,984.7
568.233,989.0
568.771,984.8
569.309,989.5
569.846,987.5
570.384,984.5
570.921,991.1
571.458,1001.7
571.995,1007.9
572.532,1002.6
573.069,1004.4
573.606,1011.8
574.143,1004.6
574.68,1015.6
575.216,995.0
575.753,992.2
576.289,1003.6
576.825,1062.2
577.361,1018.7
577.897,997.9
578.433,996.1
578.969,998.0
579.505,999.0
580.041,998.1
580.576,1000.6
581.112,999.3
581.647,996.7
582.183,1001.9
582.718,1003.0
583.253,1007.4
583.788,1004.9
584.323,1008.5
584.858,1004.4
585.392,1005.0
585.927,1007.3
586.462,1018.6
586.996,1053.2
587.53,1078.9
588.065,1035.4
588.599,1011.3
589.133,1009.0
589.667,1010.8
590.201,1005.0
590.735,1014.8
591.268,1009.0
591.802,1010.0
592.335,1014.7
592.869,1005.5
593.402,1006.9
593.936,1006.1
594.469,1013.1
595.002,1010.9
595.535,1013.4
596.068,1011.2
596.601,1016.8
597.133,1015.3
597.666,1017.5
598.199,1016.5
598.731,1024.1
599.264,1020.8
599.796,1024.4
600.328,1020.2
600.86,1023.9
601.393,1021.1
601.925,1022.9
602.457,1022.3
602.988,1028.1
603.52,1032.2
604.052,1023.0
604.583,1027.4
605.115,1026.9
605.646,1022.6
606.178,1024.4
606.709,1022.4
607.24,1025.2
607.771,1029.0
608.302,1031.5
608.833,1033.4
609.364,1037.4
609.895,1040.0
610.426,1036.1
610.957,1032.5
611.487,1034.2
612.018,1042.3
612.548,1045.5
613.078,1043.1
613.609,1049.0
614.139,1048.3
614.669,1052.7
615.199,1047.0
615.729,1043.6
616.259,1051.9
616.789,1050.6
617.319,1059.0
617.849,1052.1
618.378,1054.6
618.908,1052.2
619.437,1055.9
619.967,1055.1
620.496,1051.4
621.025,1053.6
621.555,1054.7
622.084,1056.9
622.613,1066.4
623.142,1075.7
623.671,1069.6
624.2,1065.7
624.729,1062.6
625.258,1060.1
625.786,1055.8
626.315,1052.1
626.844,1064.7
627.372,1060.0
627.901,1071.3
628.429,1138.7
628.957,1124.9
629.486,1113.6
630.014,1124.7
630.542,1170.2
631.07,1538.3
631.598,1321.0
632.126,1182.5
632.654,1160.4
633.182,1243.3
633.71,1218.8
634.237,1118.5
634.765,1068.6
635.293,1053.2
635.82,1040.3
636.348,1043.4
636.875,1043.6
637.403,1037.6
637.93,1041.4
638.458,1037.3
638.985,1036.9
639.512,1032.7
640.039,1031.2
640.566,1030.4
641.093,1030.1
641.62,1032.8
642.147,1030.4
642.674,1029.5
643.201,1027.0
643.728,1021.9
644.255,1019.3
644.781,1012.5
645.308,1016.3
645.835,1012.6
646.361,1007.1
646.888,1013.5
647.414,1007.0
647.941,1005.3
648.467,1007.2
648.993,1004.3
649.52,1005.3
650.046,999.7
650.572,998.9
651.098,1001.5
651.625,995.0
652.151,991.6
652.677,995.9
653.203,993.7
653.729,994.0
654.255,995.8
654.78,994.0
655.306,990.5
655.832,987.3
656.358,985.9
656.884,994.9
657.409,985.4
657.935,987.7
658.461,983.7
658.986,983.0
659.512,982.0
660.037,985.1
660.563,981.2
661.088,976.9
661.614,974.6
662.139,970.7
662.664,978.9
663.058,977.4

File: VLFR_08-PLA_nobio_Raman_090e5ac3.csv
nm,Intensity
526.486,830.9
527.033,829.9
527.579,829.1
528.126,829.2
528.672,831.2
529.219,829.4
529.765,829.4
530.311,829.6
530.857,831.7
531.403,829.4
531.948,832.3
532.494,830.9
533.039,830.8
533.585,831.3
534.13,1022.9
534.675,981.3
535.22,947.2
535.764,929.2
536.309,916.4
536.854,918.2
537.398,910.2
537.942,910.8
538.486,898.9
539.03,896.9
539.574,893.7
540.118,884.7
540.662,903.7
541.205,905.7
541.749,895.2
542.292,888.9
542.835,893.3
543.378,913.6
543.921,922.8
544.464,903.9
545.006,889.5
545.549,890.3
546.091,888.1
546.634,886.9
547.176,889.7
547.718,891.0
548.26,886.4
548.802,893.4
549.343,891.1
549.885,894.9
550.426,894.4
550.968,897.7
551.509,900.0
552.05,901.1
552.591,899.8
553.132,902.2
553.673,901.1
554.214,907.5
554.754,899.2
555.295,897.8
555.835,893.4
556.375,895.2
556.915,897.3
557.455,912.7
557.995,1012.8
558.535,930.7
559.075,913.1
559.614,909.6
560.154,903.7
560.693,903.9
561.232,896.8
561.772,902.6
562.311,905.4
562.85,913.0
563.388,944.7
563.927,925.7
564.466,916.5
565.004,935.4
565.543,931.8
566.081,956.6
566.619,927.7
567.157,910.5
567.695,916.9
568.233,918.3
568.771,918.4
569.309,923.5
569.846,913.9
570.384,920.6
570.921,920.5
571.458,931.2
571.995,940.5
572.532,933.4
573.069,931.9
573.606,937.5
574.143,933.5
574.68,943.2
575.216,924.7
575.753,926.8
576.289,938.3
576.825,995.7
577.361,950.7
577.897,927.5
578.433,929.6
578.969,927.5
579.505,924.5
580.041,932.7
580.576,930.8
581.112,929.5
581.647,930.4
582.183,930.0
582.718,928.7
583.253,926.2
583.788,931.7
584.323,931.6
584.858,929.6
585.392,937.6
585.927,941.5
586.462,948.1
586.996,979.4
587.53,999.6
588.065,961.2
588.599,937.2
589.133,938.6
589.667,940.0
590.201,937.5
590.735,937.1
591.268,940.1
591.802,937.6
592.335,940.8
592.869,937.6
593.402,945.9
593.936,946.0
594.469,943.4
595.002,943.1
595.535,942.8
596.068,941.4
596.601,950.0
597.133,951.2
597.666,948.1
598.199,951.6
598.731,946.3
599.264,949.2
599.796,954.3
600.328,949.8
600.86,953.3
601.393,951.9
601.925,959.2
602.457,953.4
602.988,954.3
603.52,955.2
604.052,958.1
604.583,953.9
605.115,951.8
605.646,952.7
606.178,954.5
606.709,958.7
607.24,957.4
607.771,956.6
608.302,957.8
608.833,959.6
609.364,961.9
609.895,954.9
610.426,958.8
610.957,963.2
611.487,967.4
612.018,966.3
612.548,969.1
613.078,968.1
613.609,972.1
614.139,974.5
614.669,968.6
615.199,976.4
615.729,977.1
616.259,974.3
616.789,975.0
617.319,977.0
617.849,976.3
618.378,975.1
618.908,974.8
619.437,972.0
619.967,975.9
620.496,975.5
621.025,970.5
621.555,978.9
622.084,981.3
622.613,981.8
623.142,996.2
623.671,989.6
624.2,985.8
624.729,980.9
625.258,981.4
625.786,980.8
626.315,980.2
626.844,981.5
627.372,984.0
627.901,990.8
628.429,1044.2
628.957,1037.5
629.486,1037.2
630.014,1037.9
630.542,1083.3
631.07,1408.9
631.598,1215.0
632.126,1095.9
632.654,1072.8
633.182,1157.3
633.71,1123.3
634.237,1042.8
634.765,1002.6
635.293,984.0
635.82,975.4
636.348,980.6
636.875,971.2
637.403,971.5
637.93,975.4
638.458,968.6
638.985,970.5
639.512,968.1
640.039,970.5
640.566,967.3
641.093,968.1
641.62,966.0
642.147,966.1
642.674,963.1
643.201,969.9
643.728,966.4
644.255,956.6
644.781,959.9
645.308,957.4
645.835,954.4
646.361,957.6
646.888,953.3
647.414,958.7
647.941,951.1
648.467,957.8
648.993,951.6
649.52,953.6
650.046,953.0
650.572,946.2
651.098,949.5
651.625,947.4
652.151,944.9
652.677,946.4
653.203,944.0
653.729,947.7
654.255,945.5
654.78,945.7
655.306,947.2
655.832,943.7
656.358,945.3
656.884,943.9
657.409,944.3
657.935,938.9
658.461,945.8
658.986,939.5
659.512,942.9
660.037,942.7
660.563,941.5
661.088,939.0
661.614,936.5
662.139,935.2
662.664,934.0
663.058,935.8

File: VLFR_08-PLA_nobio_Raman_98fd9ee3.csv
nm,Intensity
526.5,826.5
527.047,826.5
527.594,827.0
528.14,827.5
528.687,827.4
529.233,826.0
529.779,826.1
530.325,826.9
530.871,828.8
531.417,827.6
531.962,832.6
532.508,827.4
533.053,827.1
533.599,827.4
534.144,843.9
534.689,843.8
535.234,843.1
535.778,839.7
536.323,840.7
536.867,840.1
537.412,841.0
537.956,840.6
538.5,839.6
539.044,839.5
539.588,841.6
540.132,839.8
540.675,842.3
541.219,843.6
541.762,843.0
542.305,844.9
542.848,846.1
543.391,843.8
543.934,843.5
544.477,844.0
545.02,844.9
545.562,845.7
546.105,844.2
546.647,845.8
547.189,844.3
547.731,843.6
548.273,843.8
548.815,842.8
549.356,843.1
549.898,843.4
550.439,843.4
550.981,843.2
551.522,844.1
552.063,843.5
552.604,842.4
553.145,844.0
553.686,841.4
554.226,842.6
554.767,842.4
555.307,844.2
555.848,846.3
556.388,843.0
556.928,842.6
557.468,843.5
558.008,845.1
558.547,844.5
559.087,846.0
559.626,845.6
560.166,846.4
560.705,846.4
561.244,846.8
561.783,844.9
562.322,846.3
562.861,845.6
563.4,848.1
563.939,850.1
564.477,851.5
565.015,855.5
565.554,854.3
566.092,856.0
566.63,850.9
567.168,846.3
567.706,846.9
568.244,848.4
568.781,848.1
569.319,847.8
569.857,848.7
570.394,849.5
570.931,849.5
571.468,851.6
572.005,850.6
572.542,848.4
573.079,850.5
573.616,852.2
574.153,853.2
574.689,852.0
575.226,852.3
575.762,851.5
576.298,850.1
576.834,851.3
577.371,850.5
577.907,850.9
578.442,846.4
578.978,848.0
579.514,849.9
580.049,850.6
580.585,849.5
581.12,850.2
581.656,849.7
582.191,850.3
582.726,849.3
583.261,850.4
583.796,848.9
584.331,851.3
584.865,850.0
585.4,849.3
585.935,850.4
586.469,848.4
587.004,850.3
587.538,852.7
588.072,850.3
588.606,850.2
589.14,848.6
589.674,848.9
590.208,847.5
590.742,849.2
591.275,847.9
591.809,851.6
592.342,850.0
592.876,849.2
593.409,851.6
593.942,850.9
594.476,849.6
595.009,848.7
595.542,851.7
596.075,850.1
596.607,850.0
597.14,851.5
597.673,851.0
598.205,853.4
598.738,848.7
599.27,851.5
599.803,849.4
600.335,849.5
600.867,849.2
601.399,850.2
601.931,850.0
602.463,851.1
602.995,847.8
603.527,850.0
604.058,848.7
604.59,850.5
605.122,850.2
605.653,851.1
606.184,850.7
606.716,850.2
607.247,848.6
607.778,848.4
608.309,850.0
608.84,850.9
609.371,850.9
609.902,848.6
610.433,849.5
610.964,849.7
611.494,851.0
612.025,849.7
612.556,849.1
613.086,849.7
613.616,851.3
614.147,851.3
614.677,850.6
615.207,850.4
615.737,852.4
616.267,851.3
616.797,851.8
617.327,852.5
617.857,852.0
618.387,851.8
618.917,849.7
619.446,850.7
619.976,850.2
620.505,849.4
621.035,851.5
621.564,851.3
622.093,851.7
622.623,851.3
623.152,850.6
623.681,851.4
624.21,850.8
624.739,851.1
625.268,850.9
625.797,854.3
626.326,854.7
626.855,853.4
627.383,853.8
627.912,860.4
628.441,859.7
628.969,866.5
629.498,863.5
630.026,860.9
630.554,858.3
631.083,862.3
631.611,857.0
632.139,855.7
632.667,854.5
633.195,855.5
633.724,849.8
634.252,850.6
634.779,849.0
635.307,847.7
635.835,847.0
636.363,850.0
636.891,850.2
637.418,849.6
637.946,850.8
638.474,850.7
639.001,848.1
639.529,849.8
640.056,849.1
640.583,847.0
641.111,848.7
641.638,850.9
642.165,850.3
642.692,849.1
643.22,849.1
643.747,848.2
644.274,848.6
644.801,851.6
645.328,850.0
645.854,851.4
646.381,849.6
646.908,852.6
647.435,850.2
647.962,849.3
648.488,848.7
649.015,850.4
649.542,848.1
650.068,850.3
650.595,848.4
651.121,849.4
651.648,848.5
652.174,845.9
652.7,847.4
653.227,847.7
653.753,846.4
654.279,847.0
654.805,847.8
655.331,845.7
655.858,847.1
656.384,845.9
656.91,846.7
657.436,846.2
657.962,847.5
658.488,846.4
659.013,846.8
659.539,845.5
660.065,845.1
660.591,845.8
661.117,845.6
661.642,843.9
662.168,847.0
662.694,843.3
663.088,845.1

File: VLFR_08-PLA_nobio_Raman_214a816c.csv
nm,Intensity
526.5,829.6
527.047,828.8
527.594,829.2
528.14,829.6
528.687,829.2
529.233,829.7
529.779,830.0
530.325,829.6
530.871,829.2
531.417,831.1
531.962,833.0
532.508,829.2
533.053,828.0
533.599,830.3
534.144,1000.7
534.689,962.2
535.234,940.2
535.778,926.1
536.323,919.4
536.867,921.4
537.412,914.4
537.956,917.0
538.5,903.9
539.044,906.1
539.588,900.2
540.132,896.7
540.675,912.5
541.219,916.4
541.762,903.3
542.305,903.4
542.848,903.7
543.391,921.2
543.934,926.5
544.477,912.6
545.02,904.2
545.562,899.6
546.105,903.1
546.647,901.6
547.189,906.4
547.731,905.6
548.273,906.3
548.815,906.7
549.356,910.1
549.898,912.2
550.439,909.0
550.981,912.9
551.522,915.4
552.063,919.3
552.604,919.0
553.145,917.9
553.686,917.2
554.226,926.2
554.767,918.1
555.307,914.3
555.848,913.6
556.388,913.4
556.928,914.4
557.468,924.3
558.008,1015.8
558.547,940.3
559.087,928.2
559.626,926.5
560.166,920.6
560.705,921.7
561.244,920.1
561.783,919.9
562.322,922.7
562.861,927.1
563.4,946.9
563.939,937.0
564.477,930.0
565.015,948.4
565.554,944.0
566.092,964.5
566.63,942.5
567.168,927.6
567.706,929.1
568.244,934.5
568.781,931.9
569.319,933.9
569.857,932.6
570.394,935.6
570.931,936.1
571.468,945.2
572.005,949.0
572.542,938.6
573.079,944.2
573.616,948.8
574.153,942.4
574.689,957.2
575.226,936.0
575.762,935.6
576.298,952.4
576.834,994.6
577.371,955.3
577.907,940.7
578.442,944.4
578.978,941.5
579.514,936.8
580.049,938.0
580.585,941.3
581.12,939.5
581.656,941.7
582.191,942.6
582.726,942.0
583.261,946.3
583.796,940.2
584.331,945.2
584.865,939.7
585.4,943.8
585.935,942.7
586.469,953.4
587.004,981.8
587.538,998.2
588.072,961.2
588.606,944.8
589.14,940.0
589.674,942.7
590.208,946.0
590.742,945.1
591.275,944.3
591.809,945.8
592.342,937.4
592.876,940.1
593.409,940.8
593.942,940.4
594.476,940.6
595.009,940.6
595.542,938.2
596.075,944.4
596.607,940.2
597.14,940.9
597.673,942.7
598.205,948.4
598.738,944.6
599.27,941.4
599.803,941.6
600.335,942.5
600.867,945.8
601.399,940.0
601.931,939.1
602.463,941.0
602.995,944.7
603.527,940.8
604.058,941.9
604.59,937.1
605.122,936.6
605.653,936.1
606.184,936.1
606.716,934.9
607.247,940.2
607.778,936.0
608.309,940.3
608.84,937.4
609.371,935.7
609.902,939.2
610.433,938.6
610.964,937.6
611.494,940.0
612.025,939.0
612.556,935.7
613.086,941.1
613.616,938.3
614.147,936.6
614.677,941.6
615.207,938.0
615.737,938.6
616.267,940.4
616.797,941.3
617.327,940.7
617.857,939.7
618.387,937.6
618.917,942.3
619.446,937.7
619.976,939.0
620.505,938.0
621.035,936.8
621.564,937.4
622.093,939.7
622.623,941.2
623.152,948.8
623.681,950.7
624.21,939.8
624.739,937.4
625.268,936.0
625.797,936.5
626.326,937.4
626.855,939.8
627.383,938.4
627.912,943.6
628.441,1003.0
628.969,997.4
629.498,987.5
630.026,992.1
630.554,1041.2
631.083,1362.2
631.611,1161.2
632.139,1041.6
632.667,1030.7
633.195,1110.4
633.724,1078.6
634.252,996.8
634.779,951.2
635.307,938.2
635.835,933.7
636.363,934.4
636.891,927.0
637.418,924.4
637.946,931.7
638.474,921.7
639.001,925.8
639.529,926.4
640.056,922.2
640.583,928.1
641.111,924.6
641.638,926.9
642.165,926.6
642.692,923.3
643.22,922.5
643.747,921.0
644.274,920.0
644.801,916.2
645.328,916.2
645.854,915.7
646.381,912.5
646.908,916.6
647.435,918.2
647.962,913.5
648.488,914.6
649.015,914.0
649.542,916.0
650.068,913.7
650.595,910.6
651.121,912.2
651.648,914.4
652.174,911.4
652.7,912.3
653.227,913.2
653.753,908.6
654.279,908.1
654.805,911.0
655.331,910.2
655.858,907.0
656.384,908.6
656.91,908.7
657.436,909.2
657.962,910.6
658.488,908.6
659.013,906.9
659.539,905.6
660.065,903.4
660.591,906.8
661.117,904.7
661.642,904.7
662.168,904.1
662.694,902.5
663.088,901.3

File: VLFR_08-PLA_nobio_Raman_492a169c.csv
nm,Intensity
526.508,830.62
527.055,830.84
527.602,830.76
528.149,830.5
528.695,830.3
529.241,830.94
529.787,830.04
530.334,830.64
530.879,831.0
531.425,830.28
531.971,833.66
532.516,831.12
533.062,830.34
533.607,830.42
534.152,863.78
534.697,861.28
535.242,854.32
535.786,851.24
536.331,850.14
536.876,849.0
537.42,848.76
537.964,848.74
538.508,847.92
539.052,847.42
539.596,847.48
540.14,847.46
540.683,848.74
541.227,850.8
541.77,850.0
542.313,851.6
542.856,852.26
543.399,855.24
543.942,853.06
544.485,852.28
545.027,853.42
545.57,853.06
546.112,851.28
546.654,852.46
547.196,854.2
547.738,851.88
548.28,850.36
548.822,851.52
549.363,850.26
549.905,851.0
550.446,850.8
550.988,850.64
551.529,851.1
552.07,850.7
552.611,850.82
553.152,851.62
553.692,851.96
554.233,851.92
554.773,851.9
555.314,851.5
555.854,852.18
556.394,851.64
556.934,852.66
557.474,852.94
558.014,859.58
558.553,855.9
559.093,857.04
559.632,853.82
560.172,854.38
560.711,853.26
561.25,855.54
561.789,854.6
562.328,856.08
562.867,855.84
563.406,859.98
563.944,859.98
564.483,860.82
565.021,871.04
565.559,865.54
566.098,871.5
566.636,862.66
567.174,859.52
567.711,857.22
568.249,855.64
568.787,856.34
569.324,857.12
569.862,856.74
570.399,858.32
570.936,858.6
571.474,860.58
572.011,861.66
572.548,861.34
573.084,863.14
573.621,862.66
574.158,864.86
574.694,864.92
575.231,860.26
575.767,859.98
576.303,862.44
576.84,867.36
577.376,863.3
577.912,858.04
578.447,858.4
578.983,858.34
579.519,859.48
580.054,858.1
580.59,857.7
581.125,858.2
581.661,858.52
582.196,858.56
582.731,859.76
583.266,858.62
583.801,860.74
584.336,859.06
584.87,857.54
585.405,858.32
585.94,858.64
586.474,859.04
587.008,862.02
587.543,863.64
588.077,860.04
588.611,858.58
589.145,859.2
589.679,857.32
590.213,858.9
590.747,859.22
591.28,858.22
591.814,857.62
592.347,859.6
592.881,858.16
593.414,858.08
593.947,858.0
594.48,859.24
595.014,857.96
595.547,858.78
596.079,858.56
596.612,858.34
597.145,858.28
597.678,859.06
598.21,859.5
598.743,858.66
599.275,858.74
599.807,859.22
600.34,858.94
600.872,860.12
601.404,858.4
601.936,859.18
602.468,858.8
603.0,859.04
603.532,858.46
604.063,859.7
604.595,858.98
605.126,859.6
605.658,859.22
606.189,857.24
606.721,858.6
607.252,857.38
607.783,858.9
608.314,858.28
608.845,857.64
609.376,858.44
609.907,859.38
610.438,857.88
610.968,857.4
611.499,858.4
612.03,858.16
612.56,857.76
613.091,858.8
613.621,858.76
614.151,858.34
614.681,858.3
615.212,858.32
615.742,858.36
616.272,859.56
616.802,859.2
617.332,858.62
617.861,860.04
618.391,860.38
618.921,860.1
619.45,859.62
619.98,858.54
620.509,859.96
621.039,859.64
621.568,861.46
622.097,861.98
622.627,862.4
623.156,863.02
623.685,862.44
624.214,862.28
624.743,862.54
625.272,863.9
625.801,864.82
626.33,866.38
626.858,869.26
627.387,882.14
627.916,886.36
628.444,901.02
628.973,909.98
629.501,906.82
630.029,901.28
630.558,897.76
631.086,913.18
631.614,892.64
632.142,880.06
632.67,873.16
633.198,876.26
633.726,871.82
634.254,863.2
634.782,859.96
635.31,858.86
635.838,857.54
636.365,857.6
636.893,856.5
637.421,856.62
637.948,857.16
638.476,856.78
639.003,856.12
639.531,856.86
640.058,855.38
640.585,856.7
641.113,856.34
641.64,857.78
642.167,856.86
642.694,856.88
643.221,856.72
643.748,857.86
644.275,858.1
644.802,858.08
645.329,858.98
645.856,858.54
646.382,858.62
646.909,858.34
647.436,859.66
647.962,858.92
648.489,858.68
649.016,859.3
649.542,857.16
650.069,858.06
650.595,858.18
651.121,856.62
651.648,856.74
652.174,858.16
652.7,855.82
653.227,854.48
653.753,855.3
654.279,854.58
654.805,853.42
655.331,854.32
655.857,853.26
656.383,851.98
656.909,852.66
657.435,851.34
657.961,851.5
658.487,850.86
659.013,851.84
659.538,850.76
660.064,851.22
660.59,849.74
661.116,850.92
661.641,850.62
662.167,848.66
662.692,849.26
663.087,848.9

File: VLFR_08-PLA_nobio_Raman_563bb233.csv
cm-1,Intensity
-123.878,1852.35
-105.821,1852.4
-87.8007,1851.8
-69.8161,1853.0
-51.8675,1853.9
-33.9547,1853.45
-16.0776,1883.1
1.76388,2979.55
19.5698,1855.0
37.3403,1853.3
55.0755,1927.45
72.7754,2108.3
90.4402,2104.9
108.07,2103.3
125.665,2088.6
143.225,2078.45
160.75,2082.65
178.241,2075.15
195.697,2097.0
213.119,2076.15
230.506,2071.45
247.859,2087.4
265.178,2079.45
282.463,2084.2
299.713,2106.45
316.93,2105.0
334.113,2095.15
351.263,2098.8
368.379,2098.4
385.461,2127.4
402.51,2171.35
419.526,2126.8
436.508,2111.7
453.458,2114.1
470.374,2124.45
487.257,2131.0
504.107,2127.6
520.925,2135.05
537.71,2132.05
554.462,2145.75
571.182,2147.6
587.87,2145.0
604.525,2153.6
621.148,2148.25
637.739,2167.6
654.297,2158.95
670.824,2180.4
687.319,2177.65
703.782,2179.55
720.213,2176.45
736.613,2194.2
752.981,2182.3
769.317,2194.65
785.623,2185.85
801.897,2181.1
818.139,2189.0
834.351,2193.0
850.532,2198.85
866.681,2331.3
882.8,2273.6
898.888,2227.25
914.945,2216.8
930.972,2213.05
946.968,2211.2
962.934,2215.6
978.869,2216.65
994.774,2222.6
1010.65,2231.45
1026.49,2242.65
1042.31,2289.15
1058.09,2244.0
1073.85,2252.25
1089.57,2286.0
1105.27,2268.3
1120.93,2308.7
1136.57,2297.75
1152.18,2275.95
1167.75,2256.4
1183.3,2283.4
1198.82,2280.75
1214.31,2285.95
1229.77,2275.05
1245.2,2285.65
1260.6,2274.3
1275.97,2282.7
1291.32,2327.1
1306.63,2319.1
1321.92,2313.35
1337.18,2307.1
1352.41,2310.35
1367.61,2313.7
1382.78,2326.7
1397.93,2316.1
1413.05,2290.9
1428.14,2314.5
1443.2,2360.2
1458.23,2374.65
1473.23,2311.5
1488.21,2305.45
1503.16,2291.05
1518.08,2298.5
1532.97,2296.45
1547.84,2297.65
1562.68,2298.8
1577.49,2313.6
1592.27,2302.7
1607.03,2319.55
1621.76,2314.9
1636.46,2297.8
1651.14,2311.9
1665.78,2289.4
1680.41,2292.0
1695.0,2298.05
1709.57,2292.55
1724.11,2297.5
1738.62,2299.45
1753.11,2348.45
1767.57,2395.15
1782.01,2357.8
1796.41,2304.25
1810.8,2291.45
1825.15,2283.7
1839.48,2298.85
1853.79,2305.9
1868.06,2291.6
1882.31,2295.55
1896.54,2299.95
1910.74,2301.85
1924.91,2271.15
1939.06,2291.3
1953.19,2302.3
1967.28,2304.3
1981.35,2292.1
1995.4,2291.75
2009.42,2292.15
2023.42,2290.15
2037.39,2293.85
2051.33,2293.4
2065.25,2294.45
2079.15,2288.75
2093.01,2300.8
2106.86,2292.3
2120.68,2309.0
2134.47,2301.45
2148.24,2308.45
2161.99,2306.7
2175.71,2301.1
2189.41,2303.5
2203.08,2315.05
2216.73,2302.55
2230.35,2300.5
2243.95,2300.8
2257.52,2302.75
2271.07,2294.8
2284.6,2298.45
2298.1,2293.85
2311.58,2311.05
2325.03,2302.3
2338.46,2306.3
2351.87,2289.35
2365.25,2295.0
2378.61,2280.6
2391.94,2298.95
2405.26,2295.4
2418.54,2295.55
2431.81,2309.95
2445.05,2300.55
2458.27,2275.9
2471.46,2278.05
2484.63,2279.65
2497.78,2302.9
2510.9,2286.2
2524.0,2285.0
2537.08,2282.65
2550.14,2278.3
2563.17,2291.4
2576.18,2285.25
2589.17,2282.0
2602.13,2268.95
2615.07,2279.75
2627.99,2273.85
2640.89,2269.95
2653.76,2280.7
2666.61,2287.6
2679.44,2274.5
2692.25,2275.3
2705.03,2271.1
2717.79,2265.05
2730.53,2265.3
2743.25,2290.75
2755.94,2281.45
2768.61,2269.95
2781.27,2274.6
2793.89,2253.85
2806.5,2248.95
2819.09,2264.8
2831.65,2244.95
2844.19,2249.05
2856.71,2250.2
2869.21,2314.75
2881.69,2388.85
2894.14,2353.85
2906.58,2357.85
2918.99,2363.95
2931.38,2486.9
2943.75,3171.7
2956.1,2836.45
2968.42,2532.4
2980.73,2436.35
2993.01,2533.25
3005.28,2582.65
3017.52,2442.85
3029.74,2297.15
3041.94,2254.1
3054.12,2225.5
3066.28,2214.1
3078.42,2211.2
3090.54,2201.95
3102.63,2179.35
3114.71,2199.85
3126.77,2212.45
3138.8,2191.5
3150.82,2191.1
3162.81,2178.85
3174.78,2184.6
3186.74,2179.85
3198.67,2182.9
3210.58,2174.3
3222.47,2168.35
3234.35,2194.25
3246.2,2158.6
3258.03,2153.55
3269.84,2161.2
3281.64,2157.35
3293.41,2147.6
3305.16,2148.7
3316.89,2149.1
3328.61,2132.25
3340.3,2140.5
3351.97,2143.05
3363.63,2136.7
3375.26,2119.6
3386.88,2129.85
3398.47,2117.6
3410.05,2114.25
3421.6,2126.3
3433.14,2113.55
3444.66,2117.55
3456.15,2123.3
3467.63,2103.5
3479.09,2108.45
3490.53,2090.2
3501.96,2090.3
3513.36,2109.3
3524.74,2088.45
3536.11,2099.55
3547.45,2085.9
3558.78,2090.0
3570.09,2081.0
3581.37,2083.5
3592.64,2085.85
3603.9,2079.9
3615.13,2072.35
3626.34,2051.6
3637.54,2059.25
3648.72,2070.85
3659.87,2061.75
3665.45,2056.7