Folder: MPX_specDB/spectra (part 58)

File: VLFR_02-HDPE_nobio_Raman_0068abe6.csv
nm,Intensity
526.532,829.933
527.079,830.267
527.625,830.2
528.172,829.267
528.718,830.267
529.265,830.067
529.811,830.1
530.357,829.667
530.903,829.967
531.449,830.633
531.994,834.5
532.54,830.533
533.085,829.867
533.63,830.667
534.176,908.2
534.721,905.333
535.266,900.467
535.81,871.8
536.355,863.367
536.9,859.5
537.444,859.2
537.988,859.567
538.533,855.5
539.077,855.1
539.621,853.033
540.165,851.367
540.708,850.933
541.252,850.6
541.795,850.533
542.339,850.4
542.882,850.067
543.425,850.2
543.968,850.767
544.511,850.667
545.054,849.033
545.597,850.5
546.139,850.9
546.682,850.3
547.224,850.533
547.766,849.767
548.308,851.033
548.85,849.167
549.392,849.1
549.934,850.9
550.475,850.967
551.017,850.367
551.558,850.867
552.1,850.9
552.641,849.7
553.182,851.633
553.723,853.967
554.264,853.533
554.804,853.667
555.345,854.9
555.885,854.133
556.426,855.2
556.966,857.633
557.506,858.8
558.046,859.667
558.586,860.2
559.126,857.767
559.665,858.267
560.205,856.933
560.745,856.667
561.284,856.533
561.823,857.467
562.362,858.733
562.901,860.767
563.44,864.3
563.979,966.3
564.518,880.633
565.056,875.033
565.595,870.2
566.133,955.367
566.671,870.6
567.21,866.5
567.748,868.433
568.285,862.8
568.823,861.167
569.361,863.767
569.899,864.0
570.436,869.1
570.974,874.367
571.511,1049.63
572.048,888.733
572.585,872.167
573.122,865.433
573.659,866.9
574.196,871.7
574.733,864.833
575.269,872.0
575.806,909.433
576.342,1032.37
576.878,954.833
577.414,920.633
577.951,877.867
578.486,874.433
579.022,873.3
579.558,875.167
580.094,873.967
580.629,875.5
581.165,877.367
581.7,878.333
582.236,879.3
582.771,882.033
583.306,884.167
583.841,885.633
584.376,885.9
584.911,888.033
585.445,890.633
585.98,892.967
586.514,897.767
587.049,898.767
587.583,902.9
588.117,904.367
588.651,908.367
589.186,909.867
589.72,913.733
590.253,915.3
590.787,916.967
591.321,922.3
591.854,925.0
592.388,929.067
592.921,931.667
593.455,932.3
593.988,936.0
594.521,937.267
595.054,941.367
595.587,943.5
596.12,945.767
596.653,949.1
597.186,949.633
597.718,951.3
598.251,957.767
598.783,958.6
599.316,961.267
599.848,962.833
600.38,962.7
600.912,961.167
601.444,962.567
601.976,967.2
602.508,962.867
603.04,963.7
603.572,963.033
604.103,962.667
604.635,958.933
605.167,955.667
605.698,951.6
606.229,949.867
606.761,947.133
607.292,944.2
607.823,942.133
608.354,943.4
608.885,943.567
609.416,940.733
609.947,936.033
610.477,934.3
611.008,936.9
611.539,933.433
612.069,929.467
612.6,931.467
613.13,931.333
613.66,929.0
614.19,926.233
614.721,926.9
615.251,925.733
615.781,926.4
616.311,925.167
616.841,928.467
617.37,931.067
617.9,931.6
618.43,930.467
618.96,929.833
619.489,931.167
620.019,933.667
620.548,930.833
621.077,937.9
621.607,952.667
622.136,988.067
622.665,977.5
623.194,935.9
623.723,926.967
624.252,923.3
624.781,923.7
625.31,926.267
625.839,938.967
626.368,985.333
626.896,1398.2
627.425,1884.43
627.953,1481.1
628.482,1941.0
629.01,1434.7
629.539,1316.33
630.067,1190.1
630.596,1155.53
631.124,1011.93
631.652,937.867
632.18,922.167
632.708,917.133
633.236,914.467
633.764,910.267
634.292,907.967
634.82,905.767
635.348,903.1
635.876,902.433
636.403,901.067
636.931,900.667
637.459,899.1
637.986,898.7
638.514,897.433
639.041,898.733
639.568,897.533
640.096,898.767
640.623,897.6
641.15,900.267
641.678,899.967
642.205,899.967
642.732,898.533
643.259,898.267
643.786,899.367
644.313,900.233
644.84,900.1
645.367,899.7
645.894,901.5
646.421,901.767
646.948,900.667
647.474,901.867
648.001,900.9
648.528,902.1
649.054,900.767
649.581,901.433
650.108,900.8
650.634,901.9
651.161,901.333
651.687,901.433
652.214,902.333
652.74,901.333
653.266,899.9
653.793,904.867
654.319,898.867
654.845,898.533
655.371,900.267
655.897,898.8
656.424,895.6
656.95,897.467
657.476,896.233
658.002,897.0
658.528,896.7
659.054,896.667
659.58,895.4
660.106,896.7
660.631,892.467
661.157,891.833
661.683,889.667
662.209,889.3
662.735,887.9
663.129,885.667

File: VLFR_02-HDPE_nobio_Raman_81edcabc.csv
nm,Intensity
526.508,829.8
527.055,830.7
527.602,830.0
528.149,830.9
528.695,830.7
529.241,830.9
529.787,829.1
530.334,831.7
530.879,831.2
531.425,830.4
531.971,833.9
532.516,830.5
533.062,830.4
533.607,829.3
534.152,882.5
534.697,874.7
535.242,866.5
535.786,861.0
536.331,855.3
536.876,852.0
537.42,854.1
537.964,853.3
538.508,850.0
539.052,848.5
539.596,848.4
540.14,847.9
540.683,847.9
541.227,847.6
541.77,846.4
542.313,847.5
542.856,846.5
543.399,844.9
543.942,845.2
544.485,847.0
545.027,846.4
545.57,846.3
546.112,844.7
546.654,847.3
547.196,846.7
547.738,845.0
548.28,847.3
548.822,845.9
549.363,845.7
549.905,846.0
550.446,848.2
550.988,846.7
551.529,846.6
552.07,849.0
552.611,847.1
553.152,846.0
553.692,851.4
554.233,850.8
554.773,851.3
555.314,850.9
555.854,851.7
556.394,853.5
556.934,852.8
557.474,855.6
558.014,858.9
558.553,857.4
559.093,856.7
559.632,856.6
560.172,854.9
560.711,855.2
561.25,856.1
561.789,856.7
562.328,857.4
562.867,860.1
563.406,862.0
563.944,931.7
564.483,880.7
565.021,874.1
565.559,873.6
566.098,994.2
566.636,873.9
567.174,866.0
567.711,866.2
568.249,863.0
568.787,863.8
569.324,863.6
569.862,866.0
570.399,868.7
570.936,874.9
571.474,989.8
572.011,891.1
572.548,870.0
573.084,868.7
573.621,871.9
574.158,880.8
574.694,870.5
575.231,884.7
575.767,945.9
576.303,964.5
576.84,934.8
577.376,912.3
577.912,890.8
578.447,890.5
578.983,892.1
579.519,893.3
580.054,897.2
580.59,897.4
581.125,903.9
581.661,908.3
582.196,910.4
582.731,918.1
583.266,916.0
583.801,919.2
584.336,929.1
584.87,932.5
585.405,932.7
585.94,943.6
586.474,943.5
587.008,948.3
587.543,952.7
588.077,964.5
588.611,963.8
589.145,972.1
589.679,977.4
590.213,983.1
590.747,986.9
591.28,994.8
591.814,999.0
592.347,1001.8
592.881,1003.2
593.414,1012.0
593.947,1010.6
594.48,1020.2
595.014,1025.2
595.547,1033.2
596.079,1035.8
596.612,1043.7
597.145,1045.9
597.678,1057.4
598.21,1062.8
598.743,1067.5
599.275,1080.1
599.807,1094.0
600.34,1095.0
600.872,1095.5
601.404,1106.6
601.936,1108.3
602.468,1111.5
603.0,1112.8
603.532,1109.1
604.063,1104.2
604.595,1102.4
605.126,1095.1
605.658,1093.1
606.189,1082.1
606.721,1076.9
607.252,1076.6
607.783,1076.2
608.314,1068.0
608.845,1057.9
609.376,1054.6
609.907,1051.0
610.438,1047.9
610.968,1044.8
611.499,1043.9
612.03,1037.9
612.56,1037.8
613.091,1036.4
613.621,1032.3
614.151,1027.3
614.681,1026.4
615.212,1017.0
615.742,1015.3
616.272,1010.8
616.802,1007.5
617.332,1006.9
617.861,1006.2
618.391,1003.7
618.921,991.8
619.45,1000.9
619.98,994.9
620.509,989.9
621.039,992.8
621.568,994.5
622.097,1008.5
622.627,999.5
623.156,982.5
623.685,976.7
624.214,974.4
624.743,972.1
625.272,971.6
625.801,977.6
626.33,999.4
626.858,1154.2
627.387,1511.2
627.916,1273.6
628.444,1387.6
628.973,1345.4
629.501,1253.3
630.029,1159.0
630.558,1137.9
631.086,1040.7
631.614,979.1
632.142,966.9
632.67,958.6
633.198,956.5
633.726,949.3
634.254,949.1
634.782,949.6
635.31,943.8
635.838,944.6
636.365,941.3
636.893,943.6
637.421,944.4
637.948,942.6
638.476,941.0
639.003,944.4
639.531,947.6
640.058,942.6
640.585,947.9
641.113,949.7
641.64,946.2
642.167,948.8
642.694,945.6
643.221,951.7
643.748,950.3
644.275,949.7
644.802,949.9
645.329,948.3
645.856,952.7
646.382,950.7
646.909,962.6
647.436,952.0
647.962,951.4
648.489,952.1
649.016,952.5
649.542,952.7
650.069,953.3
650.595,954.8
651.121,952.1
651.648,953.5
652.174,960.7
652.7,954.2
653.227,953.5
653.753,958.3
654.279,956.4
654.805,955.2
655.331,956.5
655.857,955.1
656.383,956.7
656.909,957.3
657.435,956.0
657.961,953.9
658.487,946.4
659.013,949.0
659.538,950.9
660.064,944.0
660.59,944.5
661.116,939.3
661.641,933.9
662.167,933.4
662.692,933.1
663.087,929.5

File: VLFR_02-HDPE_nobio_Raman_92d8d1ab.csv
nm,Intensity
526.5,827.5
527.047,826.9
527.594,828.8
528.14,826.4
528.687,826.3
529.233,827.5
529.779,827.3
530.325,827.0
530.871,827.2
531.417,827.7
531.962,833.1
532.508,826.7
533.053,827.2
533.599,826.9
534.144,862.8
534.689,854.3
535.234,849.6
535.778,845.7
536.323,841.9
536.867,840.7
537.412,841.3
537.956,841.9
538.5,841.2
539.044,841.1
539.588,839.0
540.132,837.1
540.675,836.9
541.219,839.4
541.762,838.7
542.305,838.6
542.848,836.0
543.391,838.0
543.934,837.0
544.477,836.4
545.02,835.4
545.562,837.1
546.105,836.1
546.647,837.7
547.189,836.4
547.731,836.6
548.273,837.2
548.815,834.9
549.356,835.9
549.898,837.2
550.439,838.3
550.981,838.3
551.522,837.1
552.063,836.7
552.604,839.2
553.145,836.7
553.686,837.4
554.226,837.2
554.767,840.3
555.307,839.5
555.848,839.0
556.388,838.9
556.928,839.3
557.468,840.3
558.008,843.2
558.547,843.0
559.087,842.7
559.626,841.3
560.166,841.5
560.705,842.5
561.244,841.9
561.783,841.6
562.322,841.5
562.861,844.4
563.4,848.3
563.939,890.7
564.477,855.2
565.015,852.9
565.554,849.6
566.092,936.4
566.63,855.7
567.168,847.5
567.706,849.2
568.244,846.4
568.781,845.8
569.319,846.7
569.857,845.0
570.394,850.4
570.931,854.3
571.468,920.0
572.005,863.1
572.542,851.7
573.079,849.1
573.616,848.5
574.153,855.4
574.689,849.9
575.226,856.8
575.762,904.4
576.298,902.1
576.834,884.9
577.371,873.8
577.907,858.9
578.442,857.1
578.978,858.4
579.514,859.2
580.049,863.6
580.585,865.9
581.12,867.7
581.656,868.8
582.191,873.0
582.726,875.5
583.261,879.6
583.796,880.9
584.331,882.4
584.865,882.3
585.4,883.7
585.935,887.8
586.469,890.5
587.004,894.8
587.538,895.8
588.072,899.3
588.606,900.0
589.14,904.5
589.674,905.5
590.208,908.6
590.742,914.9
591.275,914.7
591.809,922.2
592.342,923.0
592.876,927.7
593.409,928.5
593.942,934.8
594.476,935.3
595.009,939.0
595.542,942.1
596.075,943.3
596.607,940.7
597.14,939.0
597.673,939.8
598.205,938.1
598.738,936.9
599.27,937.4
599.803,928.6
600.335,930.9
600.867,925.7
601.399,927.9
601.931,923.7
602.463,921.7
602.995,920.3
603.527,918.3
604.058,919.2
604.59,913.7
605.122,913.4
605.653,909.0
606.184,906.9
606.716,906.0
607.247,901.6
607.778,902.5
608.309,901.0
608.84,897.9
609.371,894.9
609.902,895.5
610.433,890.0
610.964,893.1
611.494,889.4
612.025,890.3
612.556,885.9
613.086,883.6
613.616,886.9
614.147,886.7
614.677,883.7
615.207,883.2
615.737,882.3
616.267,881.3
616.797,881.5
617.327,881.2
617.857,879.9
618.387,880.2
618.917,880.6
619.446,878.1
619.976,882.2
620.505,879.2
621.035,883.1
621.564,882.8
622.093,892.8
622.623,892.4
623.152,883.2
623.681,878.9
624.21,880.0
624.739,877.5
625.268,883.6
625.797,885.2
626.326,891.5
626.855,982.1
627.383,1171.2
627.912,1043.5
628.441,1098.8
628.969,1065.2
629.498,1025.6
630.026,987.0
630.554,980.1
631.083,931.3
631.611,900.3
632.139,893.6
632.667,890.2
633.195,891.0
633.724,889.1
634.252,888.6
634.779,891.4
635.307,888.7
635.835,886.8
636.363,887.3
636.891,890.2
637.418,890.2
637.946,889.8
638.474,889.0
639.001,889.8
639.529,886.1
640.056,888.6
640.583,890.0
641.111,888.4
641.638,890.9
642.165,889.2
642.692,886.0
643.22,888.2
643.747,888.1
644.274,885.5
644.801,879.7
645.328,885.2
645.854,884.6
646.381,887.4
646.908,887.0
647.435,884.6
647.962,884.9
648.488,886.4
649.015,883.2
649.542,880.5
650.068,880.5
650.595,879.7
651.121,881.3
651.648,876.0
652.174,878.7
652.7,877.4
653.227,876.5
653.753,876.9
654.279,875.4
654.805,876.8
655.331,875.4
655.858,875.1
656.384,873.8
656.91,876.2
657.436,876.6
657.962,873.0
658.488,872.1
659.013,871.4
659.539,871.5
660.065,870.9
660.591,869.5
661.117,868.1
661.642,869.0
662.168,866.9
662.694,865.9
663.088,864.7

File: VLFR_02-HDPE_nobio_Raman_92d48177.csv
nm,Intensity
526.508,829.7
527.055,830.4
527.602,830.9
528.149,829.2
528.695,832.0
529.241,830.4
529.787,830.2
530.334,829.5
530.879,830.0
531.425,831.8
531.971,834.6
532.516,830.4
533.062,831.4
533.607,830.1
534.152,906.1
534.697,889.0
535.242,873.9
535.786,862.6
536.331,857.7
536.876,854.2
537.42,853.7
537.964,852.8
538.508,850.3
539.052,846.6
539.596,843.6
540.14,841.7
540.683,843.3
541.227,840.7
541.77,840.7
542.313,840.3
542.856,841.8
543.399,842.3
543.942,840.6
544.485,839.5
545.027,840.3
545.57,838.7
546.112,838.1
546.654,840.0
547.196,838.8
547.738,838.3
548.28,839.5
548.822,838.8
549.363,840.4
549.905,837.1
550.446,838.1
550.988,837.9
551.529,837.2
552.07,838.2
552.611,837.6
553.152,839.2
553.692,841.3
554.233,842.6
554.773,841.8
555.314,842.4
555.854,842.2
556.394,845.4
556.934,845.5
557.474,850.5
558.014,850.9
558.553,852.9
559.093,851.1
559.632,848.8
560.172,847.0
560.711,846.4
561.25,845.5
561.789,844.5
562.328,848.8
562.867,851.4
563.406,855.1
563.944,970.7
564.483,881.0
565.021,872.3
565.559,865.2
566.098,1077.1
566.636,872.6
567.174,856.2
567.711,854.0
568.249,849.4
568.787,851.4
569.324,850.2
569.862,850.8
570.399,856.0
570.936,862.4
571.474,1051.2
572.011,885.2
572.548,858.9
573.084,850.6
573.621,851.6
574.158,865.5
574.694,848.8
575.231,860.5
575.767,963.2
576.303,980.4
576.84,931.9
577.376,892.1
577.912,858.2
578.447,853.5
578.983,850.7
579.519,850.5
580.054,849.9
580.59,850.1
581.125,852.1
581.661,851.3
582.196,851.0
582.731,851.8
583.266,850.1
583.801,850.2
584.336,851.3
584.87,849.1
585.405,849.6
585.94,853.6
586.474,856.1
587.008,855.9
587.543,857.1
588.077,856.7
588.611,857.0
589.145,856.8
589.679,858.9
590.213,858.4
590.747,858.7
591.28,862.7
591.814,863.2
592.347,863.3
592.881,862.3
593.414,864.9
593.947,863.5
594.48,863.2
595.014,863.7
595.547,863.2
596.079,868.4
596.612,868.1
597.145,865.0
597.678,868.9
598.21,867.7
598.743,873.1
599.275,874.1
599.807,874.1
600.34,872.7
600.872,872.5
601.404,869.2
601.936,874.8
602.468,870.8
603.0,871.5
603.532,870.9
604.063,870.7
604.595,868.9
605.126,864.8
605.658,865.0
606.189,863.9
606.721,863.6
607.252,864.5
607.783,860.7
608.314,862.5
608.845,861.9
609.376,860.9
609.907,863.4
610.438,865.0
610.968,867.8
611.499,864.5
612.03,860.6
612.56,860.3
613.091,860.4
613.621,860.3
614.151,861.2
614.681,857.8
615.212,858.3
615.742,859.0
616.272,861.2
616.802,861.1
617.332,866.3
617.861,865.1
618.391,863.9
618.921,862.8
619.45,868.4
619.98,869.1
620.509,869.3
621.039,870.2
621.568,877.9
622.097,896.7
622.627,894.8
623.156,874.1
623.685,868.0
624.214,867.3
624.743,866.6
625.272,869.8
625.801,879.2
626.33,903.4
626.858,1106.3
627.387,1555.4
627.916,1254.9
628.444,1393.4
628.973,1348.1
629.501,1233.7
630.029,1125.6
630.558,1104.9
631.086,975.5
631.614,902.4
632.142,877.9
632.67,873.0
633.198,866.2
633.726,866.6
634.254,861.9
634.782,862.1
635.31,858.8
635.838,859.8
636.365,858.2
636.893,856.7
637.421,855.5
637.948,852.4
638.476,851.5
639.003,854.7
639.531,853.0
640.058,852.4
640.585,855.5
641.113,852.0
641.64,853.3
642.167,852.8
642.694,853.9
643.221,853.9
643.748,854.4
644.275,855.2
644.802,853.6
645.329,853.6
645.856,853.9
646.382,853.6
646.909,852.9
647.436,851.6
647.962,853.7
648.489,852.3
649.016,852.9
649.542,853.4
650.069,852.1
650.595,853.0
651.121,854.9
651.648,852.3
652.174,851.8
652.7,852.2
653.227,851.4
653.753,851.0
654.279,852.2
654.805,851.4
655.331,852.8
655.857,850.8
656.383,852.5
656.909,852.4
657.435,850.8
657.961,851.7
658.487,850.3
659.013,851.6
659.538,850.7
660.064,849.6
660.59,850.7
661.116,848.1
661.641,848.5
662.167,848.8
662.692,847.3
663.087,844.6

File: VLFR_02-HDPE_nobio_Raman_93d70f59.csv
nm,Intensity
526.5,827.5
527.047,828.1
527.594,828.9
528.14,829.7
528.687,829.2
529.233,830.5
529.779,830.1
530.325,828.2
530.871,829.4
531.417,828.8
531.962,838.5
532.508,831.2
533.053,828.6
533.599,829.6
534.144,997.0
534.689,994.6
535.234,978.3
535.778,978.4
536.323,970.9
536.867,964.8
537.412,959.9
537.956,964.6
538.5,966.0
539.044,966.0
539.588,968.7
540.132,961.6
540.675,968.6
541.219,969.4
541.762,974.5
542.305,972.6
542.848,981.9
543.391,981.4
543.934,984.8
544.477,981.8
545.02,982.3
545.562,994.6
546.105,993.2
546.647,999.2
547.189,1006.2
547.731,1002.7
548.273,1000.2
548.815,1007.0
549.356,1005.9
549.898,1008.2
550.439,1013.0
550.981,1011.8
551.522,1020.3
552.063,1018.7
552.604,1018.3
553.145,1023.3
553.686,1026.5
554.226,1031.3
554.767,1031.2
555.307,1028.7
555.848,1024.2
556.388,1034.3
556.928,1033.9
557.468,1033.0
558.008,1030.9
558.547,1035.5
559.087,1037.0
559.626,1046.8
560.166,1054.6
560.705,1050.6
561.244,1046.2
561.783,1055.0
562.322,1059.0
562.861,1059.0
563.4,1059.0
563.939,1069.0
564.477,1061.6
565.015,1077.0
565.554,1073.3
566.092,1081.9
566.63,1076.8
567.168,1077.0
567.706,1086.9
568.244,1082.4
568.781,1091.1
569.319,1090.4
569.857,1093.3
570.394,1101.7
570.931,1098.5
571.468,1100.8
572.005,1109.0
572.542,1112.3
573.079,1112.7
573.616,1120.8
574.153,1120.6
574.689,1119.5
575.226,1120.8
575.762,1123.6
576.298,1137.4
576.834,1133.5
577.371,1130.8
577.907,1123.0
578.442,1128.4
578.978,1128.9
579.514,1130.8
580.049,1137.0
580.585,1126.3
581.12,1133.4
581.656,1139.3
582.191,1145.8
582.726,1147.8
583.261,1149.8
583.796,1147.6
584.331,1144.3
584.865,1145.2
585.4,1146.4
585.935,1148.4
586.469,1148.8
587.004,1157.2
587.538,1168.5
588.072,1157.7
588.606,1153.6
589.14,1157.8
589.674,1159.7
590.208,1163.3
590.742,1171.1
591.275,1176.9
591.809,1174.3
592.342,1176.8
592.876,1175.1
593.409,1172.7
593.942,1185.5
594.476,1181.9
595.009,1184.4
595.542,1191.6
596.075,1195.4
596.607,1198.4
597.14,1204.7
597.673,1217.0
598.205,1225.6
598.738,1225.2
599.27,1227.3
599.803,1236.7
600.335,1233.2
600.867,1235.6
601.399,1236.5
601.931,1243.0
602.463,1247.6
602.995,1258.4
603.527,1264.3
604.058,1257.6
604.59,1263.7
605.122,1257.3
605.653,1257.8
606.184,1258.6
606.716,1264.7
607.247,1267.1
607.778,1269.9
608.309,1272.6
608.84,1285.9
609.371,1288.9
609.902,1294.1
610.433,1280.5
610.964,1282.9
611.494,1291.5
612.025,1297.5
612.556,1308.1
613.086,1310.7
613.616,1323.0
614.147,1320.8
614.677,1313.5
615.207,1308.0
615.737,1313.8
616.267,1320.2
616.797,1314.8
617.327,1322.2
617.857,1316.6
618.387,1322.4
618.917,1314.4
619.446,1311.5
619.976,1306.8
620.505,1311.0
621.035,1316.3
621.564,1306.5
622.093,1307.7
622.623,1308.1
623.152,1321.9
623.681,1313.8
624.21,1320.6
624.739,1314.3
625.268,1319.4
625.797,1321.2
626.326,1311.0
626.855,1331.3
627.383,1348.2
627.912,1342.6
628.441,1362.5
628.969,1352.1
629.498,1348.5
630.026,1345.4
630.554,1352.0
631.083,1339.5
631.611,1329.3
632.139,1320.8
632.667,1304.2
633.195,1300.5
633.724,1293.3
634.252,1296.2
634.779,1294.2
635.307,1290.2
635.835,1291.0
636.363,1290.9
636.891,1288.2
637.418,1286.6
637.946,1284.4
638.474,1283.6
639.001,1268.1
639.529,1280.3
640.056,1273.4
640.583,1276.0
641.111,1275.2
641.638,1276.6
642.165,1274.8
642.692,1270.4
643.22,1266.6
643.747,1263.7
644.274,1263.0
644.801,1262.5
645.328,1255.7
645.854,1255.8
646.381,1246.1
646.908,1251.8
647.435,1246.7
647.962,1257.7
648.488,1248.1
649.015,1252.9
649.542,1241.7
650.068,1242.4
650.595,1243.3
651.121,1239.7
651.648,1238.6
652.174,1239.2
652.7,1245.4
653.227,1239.9
653.753,1250.4
654.279,1239.3
654.805,1245.2
655.331,1236.7
655.858,1241.3
656.384,1239.9
656.91,1252.3
657.436,1249.3
657.962,1244.9
658.488,1246.7
659.013,1243.1
659.539,1257.5
660.065,1249.0
660.591,1238.8
661.117,1239.5
661.642,1238.1
662.168,1244.0
662.694,1232.4
663.088,1238.9

File: VLFR_02-HDPE_nobio_Raman_95b07d0e.csv
nm,Intensity
526.532,830.233
527.079,830.533
527.625,829.867
528.172,829.733
528.718,830.433
529.265,829.067
529.811,830.367
530.357,830.0
530.903,829.667
531.449,829.5
531.994,840.567
532.54,831.0
533.085,829.967
533.63,830.833
534.176,899.567
534.721,885.7
535.266,875.033
535.81,862.533
536.355,855.733
536.9,853.967
537.444,854.4
537.988,852.533
538.533,851.5
539.077,849.633
539.621,845.033
540.165,845.667
540.708,845.967
541.252,843.7
541.795,843.7
542.339,843.833
542.882,843.1
543.425,842.7
543.968,843.467
544.511,841.933
545.054,843.433
545.597,842.5
546.139,842.333
546.682,843.267
547.224,842.667
547.766,843.433
548.308,843.5
548.85,841.067
549.392,841.967
549.934,841.233
550.475,841.333
551.017,842.067
551.558,842.633
552.1,841.667
552.641,842.767
553.182,843.867
553.723,845.4
554.264,845.767
554.804,845.5
555.345,843.833
555.885,846.733
556.426,848.3
556.966,850.267
557.506,851.5
558.046,853.167
558.586,856.1
559.126,852.033
559.665,851.067
560.205,849.9
560.745,849.5
561.284,849.733
561.823,849.7
562.362,851.633
562.901,855.567
563.44,860.133
563.979,984.767
564.518,878.933
565.056,871.967
565.595,871.5
566.133,1113.0
566.671,870.233
567.21,859.1
567.748,857.967
568.285,854.067
568.823,853.567
569.361,855.7
569.899,856.6
570.436,859.733
570.974,866.9
571.511,1089.7
572.048,882.333
572.585,863.933
573.122,856.867
573.659,859.267
574.196,868.567
574.733,858.4
575.269,876.433
575.806,947.733
576.342,983.9
576.878,938.833
577.414,899.7
577.951,871.967
578.486,867.2
579.022,868.2
579.558,869.067
580.094,871.067
580.629,873.033
581.165,874.833
581.7,875.767
582.236,880.433
582.771,881.9
583.306,884.233
583.841,885.7
584.376,887.367
584.911,891.867
585.445,893.167
585.98,893.433
586.514,896.867
587.049,897.967
587.583,900.767
588.117,901.9
588.651,902.8
589.186,907.967
589.72,907.967
590.253,908.733
590.787,910.633
591.321,913.133
591.854,916.2
592.388,918.667
592.921,923.033
593.455,921.967
593.988,923.667
594.521,926.267
595.054,926.3
595.587,928.2
596.12,928.733
596.653,932.267
597.186,932.367
597.718,932.867
598.251,932.367
598.783,934.5
599.316,933.633
599.848,936.8
600.38,932.333
600.912,929.0
601.444,932.633
601.976,930.133
602.508,930.233
603.04,929.9
603.572,930.933
604.103,930.867
604.635,926.933
605.167,925.6
605.698,923.0
606.229,918.267
606.761,921.667
607.292,920.3
607.823,922.433
608.354,921.1
608.885,917.5
609.416,918.933
609.947,918.567
610.477,918.167
611.008,919.1
611.539,916.933
612.069,914.0
612.6,913.333
613.13,913.8
613.66,912.267
614.19,911.767
614.721,911.467
615.251,908.5
615.781,907.733
616.311,907.7
616.841,907.667
617.37,909.367
617.9,908.867
618.43,907.967
618.96,906.333
619.489,907.833
620.019,905.1
620.548,904.933
621.077,910.167
621.607,916.867
622.136,934.367
622.665,927.4
623.194,909.7
623.723,900.8
624.252,900.0
624.781,899.467
625.31,902.567
625.839,908.0
626.368,935.5
626.896,1169.77
627.425,1536.93
627.953,1262.4
628.482,1469.17
629.01,1348.7
629.539,1240.13
630.067,1144.1
630.596,1117.83
631.124,985.333
631.652,923.3
632.18,906.333
632.708,898.833
633.236,893.433
633.764,892.4
634.292,888.767
634.82,888.433
635.348,887.5
635.876,885.467
636.403,884.8
636.931,884.633
637.459,882.667
637.986,881.3
638.514,881.9
639.041,880.2
639.568,879.5
640.096,879.9
640.623,880.0
641.15,878.767
641.678,880.233
642.205,880.333
642.732,878.433
643.259,878.933
643.786,878.233
644.313,879.333
644.84,877.667
645.367,877.933
645.894,877.067
646.421,878.467
646.948,878.4
647.474,877.633
648.001,877.1
648.528,875.3
649.054,877.633
649.581,876.567
650.108,876.1
650.634,874.533
651.161,876.4
651.687,873.633
652.214,874.033
652.74,873.267
653.266,873.133
653.793,873.133
654.319,872.533
654.845,871.2
655.371,872.367
655.897,871.6
656.424,869.867
656.95,869.9
657.476,870.5
658.002,868.6
658.528,868.733
659.054,867.7
659.58,868.3
660.106,868.133
660.631,866.567
661.157,865.9
661.683,863.2
662.209,863.767
662.735,863.6
663.129,862.367