Folder: MPX_specDB/spectra (part 37)

File: VLFR_02-HDPE_bio_Raman_50c96371.csv
nm,Intensity
526.495,829.05
527.042,829.6
527.589,828.85
528.136,828.45
528.682,828.75
529.229,830.0
529.775,828.25
530.321,829.9
530.867,828.95
531.413,829.45
531.959,830.55
532.505,828.8
533.051,830.6
533.596,829.9
534.141,941.8
534.687,921.5
535.232,901.8
535.777,886.85
536.321,879.55
536.866,874.9
537.41,873.25
537.955,872.4
538.499,867.5
539.043,862.55
539.587,859.05
540.131,858.15
540.675,857.7
541.219,854.9
541.762,853.1
542.305,853.9
542.849,854.0
543.392,851.9
543.935,854.0
544.478,851.0
545.02,850.7
545.563,850.15
546.106,849.55
546.648,850.45
547.19,848.55
547.732,848.4
548.274,849.25
548.816,848.45
549.358,848.4
549.9,847.7
550.441,848.35
550.983,848.5
551.524,847.65
552.065,848.55
552.606,850.85
553.147,851.95
553.688,856.1
554.229,855.05
554.769,854.0
555.31,859.25
555.85,861.4
556.391,861.5
556.931,865.9
557.471,869.6
558.011,873.45
558.551,876.8
559.09,874.5
559.63,872.35
560.169,872.65
560.709,872.7
561.248,875.35
561.787,876.4
562.326,881.55
562.865,887.4
563.404,898.75
563.943,983.0
564.481,930.1
565.02,923.85
565.558,917.85
566.096,1033.9
566.634,931.8
567.172,921.75
567.71,923.7
568.248,924.65
568.786,927.6
569.324,937.4
569.861,947.8
570.399,957.75
570.936,980.05
571.473,1140.15
572.01,1040.4
572.547,1024.55
573.084,1034.3
573.621,1049.1
574.158,1078.6
574.694,1083.65
575.231,1117.95
575.767,1212.2
576.303,1353.6
576.84,1324.4
577.376,1320.5
577.912,1323.55
578.448,1372.15
578.984,1428.25
579.519,1481.35
580.055,1546.85
580.59,1606.45
581.126,1671.55
581.661,1727.8
582.196,1788.2
582.731,1849.5
583.267,1905.8
583.801,1942.3
584.336,1983.05
584.871,2026.45
585.406,2066.5
585.94,2097.45
586.475,2150.9
587.009,2199.05
587.543,2249.9
588.078,2291.55
588.612,2327.85
589.146,2375.5
589.68,2435.8
590.214,2482.6
590.747,2538.2
591.281,2573.0
591.815,2603.6
592.348,2624.4
592.881,2631.5
593.415,2619.75
593.948,2635.95
594.481,2646.95
595.014,2662.0
595.547,2659.8
596.08,2660.15
596.613,2670.95
597.146,2671.6
597.678,2692.05
598.211,2715.75
598.743,2735.05
599.276,2753.6
599.808,2746.7
600.34,2732.6
600.872,2707.75
601.404,2694.7
601.936,2673.15
602.468,2640.8
603.0,2598.95
603.532,2560.4
604.064,2493.15
604.595,2441.55
605.127,2360.15
605.658,2279.65
606.189,2223.25
606.721,2165.2
607.252,2112.05
607.783,2068.55
608.314,2033.15
608.845,1988.75
609.376,1955.25
609.907,1917.4
610.438,1886.3
610.968,1853.8
611.499,1821.1
612.029,1811.15
612.56,1791.55
613.09,1772.7
613.621,1755.5
614.151,1736.1
614.681,1712.9
615.211,1686.65
615.741,1664.6
616.271,1643.55
616.801,1626.05
617.331,1620.5
617.861,1609.75
618.39,1596.05
618.92,1571.95
619.45,1560.95
619.979,1548.9
620.509,1544.45
621.038,1544.3
621.567,1552.2
622.096,1572.0
622.626,1573.4
623.155,1544.75
623.684,1530.65
624.213,1532.4
624.742,1534.75
625.271,1539.55
625.799,1550.75
626.328,1580.25
626.857,1842.2
627.386,2394.55
627.914,2073.6
628.443,2329.15
628.971,2216.85
629.5,2095.25
630.028,1960.05
630.556,1933.75
631.084,1787.1
631.613,1684.25
632.141,1667.0
632.669,1653.45
633.197,1661.45
633.725,1665.95
634.253,1668.1
634.781,1677.5
635.308,1683.05
635.836,1696.75
636.364,1703.8
636.891,1711.1
637.419,1715.15
637.947,1712.8
638.474,1732.65
639.002,1738.1
639.529,1736.4
640.056,1749.65
640.584,1759.8
641.111,1770.55
641.638,1784.65
642.165,1780.2
642.692,1791.55
643.219,1790.95
643.746,1788.45
644.273,1787.6
644.8,1786.2
645.327,1782.7
645.854,1782.9
646.381,1790.1
646.908,1780.25
647.434,1773.4
647.961,1769.6
648.488,1759.65
649.014,1750.85
649.541,1743.25
650.067,1724.45
650.594,1724.15
651.12,1713.7
651.646,1701.2
652.173,1708.7
652.699,1708.3
653.225,1697.6
653.752,1690.05
654.278,1688.25
654.804,1672.05
655.33,1668.5
655.856,1655.05
656.382,1633.4
656.908,1624.6
657.434,1607.75
657.96,1589.75
658.486,1572.95
659.012,1553.2
659.538,1526.7
660.064,1508.95
660.589,1484.75
661.115,1459.55
661.641,1432.75
662.166,1409.95
662.692,1396.9
663.086,1372.7

File: VLFR_02-HDPE_bio_Raman_54df89fa.csv
nm,Intensity
528.65,1856.5
529.155,1856.35
529.66,1857.15
530.165,1856.3
530.67,1856.2
531.175,1857.8
531.68,1885.45
532.185,3177.45
532.69,1857.9
533.194,1857.55
533.699,1928.5
534.204,2132.35
534.708,2138.75
535.213,2146.9
535.717,2134.55
536.222,2123.1
536.726,2100.6
537.231,2132.8
537.735,2120.2
538.239,2111.35
538.743,2104.45
539.247,2098.55
539.751,2105.2
540.255,2101.2
540.759,2099.3
541.263,2111.55
541.767,2109.45
542.271,2103.5
542.775,2114.6
543.279,2115.85
543.782,2127.0
544.286,2138.7
544.789,2127.1
545.293,2125.65
545.796,2155.2
546.3,2306.05
546.803,2204.75
547.306,2151.5
547.81,2144.8
548.313,2157.65
548.816,2150.7
549.319,2163.25
549.822,2175.1
550.325,2217.65
550.828,2173.8
551.331,2175.9
551.834,2176.45
552.337,2172.65
552.839,2177.15
553.342,2190.35
553.844,2194.7
554.347,2195.6
554.849,2209.1
555.352,2207.65
555.854,2209.95
556.357,2217.1
556.859,2229.1
557.361,2220.45
557.863,2236.1
558.365,2241.6
558.867,2247.3
559.369,2249.2
559.871,2249.5
560.373,2253.05
560.875,2263.4
561.377,2279.85
561.878,2374.85
562.38,3338.2
562.881,2312.65
563.383,2309.4
563.884,2515.2
564.386,2363.85
564.887,2356.3
565.388,2345.4
565.89,2490.9
566.391,2552.0
566.892,2360.85
567.393,2374.65
567.894,2335.3
568.395,2345.8
568.896,2344.5
569.396,2353.2
569.897,2372.35
570.398,2394.25
570.898,2400.25
571.399,2765.7
571.9,2489.6
572.4,2412.1
572.9,2393.6
573.401,2406.35
573.901,2428.65
574.401,2417.25
574.901,2421.45
575.401,2625.75
575.901,2609.55
576.401,2797.8
576.901,2668.1
577.401,2563.45
577.901,2491.8
578.4,2490.55
578.9,2522.85
579.399,2545.55
579.899,2547.9
580.398,2584.6
580.898,2576.0
581.397,2606.9
581.896,2630.55
582.395,2655.2
582.895,2678.3
583.394,2708.2
583.893,2705.8
584.391,2777.45
584.89,2791.1
585.389,2838.9
585.888,2842.05
586.386,2920.7
586.885,2946.9
587.384,3009.4
587.882,3064.6
588.38,3084.7
588.879,3132.4
589.377,3165.0
589.875,3208.15
590.373,3257.55
590.871,3285.25
591.369,3348.7
591.867,3381.7
592.365,3398.75
592.863,3423.2
593.361,3438.8
593.858,3454.4
594.356,3482.25
594.853,3470.05
595.351,3545.85
595.848,3589.2
596.345,3570.35
596.843,3583.2
597.34,3654.5
597.837,3630.7
598.334,3674.3
598.831,3668.7
599.328,3685.3
599.824,3716.75
600.321,3686.0
600.818,3690.2
601.314,3719.15
601.811,3720.35
602.307,3670.0
602.804,3660.5
603.3,3673.05
603.796,3668.55
604.293,3602.05
604.789,3566.3
605.285,3534.2
605.781,3525.45
606.277,3536.8
606.772,3468.45
607.268,3396.05
607.764,3407.65
608.259,3386.05
608.755,3357.1
609.25,3329.95
609.746,3302.05
610.241,3286.25
610.736,3225.8
611.231,3252.1
611.727,3232.2
612.222,3187.85
612.716,3159.8
613.211,3119.9
613.706,3116.1
614.201,3131.95
614.695,3095.0
615.19,3076.9
615.684,3071.95
616.179,3055.85
616.673,3054.75
617.168,3058.95
617.662,3017.75
618.156,3002.7
618.65,3031.9
619.144,3024.85
619.638,3022.2
620.131,2987.75
620.625,2991.55
621.119,2967.55
621.612,3032.75
622.106,3085.05
622.599,3050.25
623.093,2929.85
623.586,2903.65
624.079,2921.45
624.572,2925.2
625.065,2884.85
625.558,2922.6
626.051,2962.05
626.544,3299.9
627.037,5031.4
627.529,4866.6
628.022,4225.8
628.514,5564.7
629.007,4374.4
629.499,3960.4
629.991,3702.5
630.483,3582.7
630.976,3182.9
631.468,2953.15
631.959,2892.6
632.451,2851.05
632.943,2856.75
633.435,2838.4
633.926,2845.65
634.418,2834.6
634.909,2819.4
635.401,2847.95
635.892,2818.85
636.383,2822.15
636.874,2799.35
637.365,2830.9
637.856,2844.55
638.347,2869.5
638.838,2858.95
639.329,2825.0
639.819,2861.95
640.31,2850.0
640.8,2839.45
641.291,2869.55
641.781,2851.15
642.271,2858.4
642.761,2878.7
643.251,2847.75
643.741,2882.95
644.231,2840.3
644.721,2838.9
645.211,2822.05
645.7,2816.7
646.19,2826.95
646.679,2831.15
647.169,2844.0
647.658,2794.45
648.147,2786.95
648.636,2809.65
649.125,2806.95
649.614,2778.5
650.103,2781.6
650.592,2786.7
651.08,2748.7
651.569,2760.4
652.058,2717.1
652.546,2722.55
653.034,2731.4
653.523,2691.55
654.011,2655.85
654.499,2660.05
654.987,2617.65
655.475,2635.65
655.963,2615.3
656.45,2594.5
656.938,2579.8
657.425,2583.5
657.913,2562.45
658.4,2528.7
658.888,2545.05
659.375,2493.75
659.862,2516.65
660.349,2455.15
660.836,2458.7
661.079,2424.05

File: VLFR_02-HDPE_bio_Raman_57e4c406.csv
nm,Intensity
526.508,830.4
527.055,829.4
527.602,830.0
528.149,829.6
528.695,830.0
529.241,830.3
529.787,830.6
530.334,829.8
530.879,830.5
531.425,830.2
531.971,837.1
532.516,831.6
533.062,830.5
533.607,831.2
534.152,885.3
534.697,876.4
535.242,865.6
535.786,858.4
536.331,854.2
536.876,850.3
537.42,851.0
537.964,849.2
538.508,848.8
539.052,846.1
539.596,845.5
540.14,842.1
540.683,842.5
541.227,841.9
541.77,842.1
542.313,843.0
542.856,842.2
543.399,841.4
543.942,843.4
544.485,842.7
545.027,840.8
545.57,841.9
546.112,842.7
546.654,841.3
547.196,840.5
547.738,840.6
548.28,839.8
548.822,841.3
549.363,841.2
549.905,841.5
550.446,839.2
550.988,841.9
551.529,840.4
552.07,841.7
552.611,841.4
553.152,843.1
553.692,842.4
554.233,843.6
554.773,843.1
555.314,842.4
555.854,844.7
556.394,845.2
556.934,847.1
557.474,850.3
558.014,851.5
558.553,853.0
559.093,850.1
559.632,848.8
560.172,849.8
560.711,850.1
561.25,847.9
561.789,849.1
562.328,852.1
562.867,853.4
563.406,856.2
563.944,930.6
564.483,874.8
565.021,866.7
565.559,864.2
566.098,1029.4
566.636,872.1
567.174,857.7
567.711,857.5
568.249,852.9
568.787,852.6
569.324,852.0
569.862,855.2
570.399,856.9
570.936,865.3
571.474,1002.4
572.011,880.0
572.548,857.7
573.084,852.5
573.621,856.0
574.158,862.4
574.694,853.7
575.231,864.8
575.767,947.1
576.303,943.3
576.84,913.2
577.376,893.6
577.912,862.5
578.447,857.3
578.983,852.3
579.519,855.4
580.054,856.6
580.59,857.2
581.125,857.1
581.661,855.8
582.196,856.6
582.731,858.6
583.266,859.6
583.801,864.2
584.336,862.4
584.87,863.0
585.405,867.1
585.94,871.5
586.474,872.7
587.008,876.6
587.543,878.9
588.077,881.3
588.611,883.6
589.145,886.9
589.679,894.0
590.213,898.4
590.747,900.7
591.28,904.5
591.814,910.4
592.347,909.0
592.881,913.8
593.414,910.8
593.947,909.9
594.48,912.5
595.014,909.4
595.547,915.0
596.079,911.4
596.612,911.6
597.145,912.8
597.678,909.2
598.21,910.7
598.743,907.2
599.275,909.0
599.807,909.3
600.34,905.5
600.872,905.2
601.404,905.0
601.936,898.6
602.468,897.2
603.0,898.9
603.532,895.7
604.063,893.7
604.595,897.2
605.126,891.2
605.658,888.9
606.189,885.5
606.721,884.4
607.252,885.3
607.783,887.8
608.314,883.7
608.845,883.1
609.376,882.7
609.907,882.2
610.438,880.5
610.968,884.7
611.499,885.5
612.03,879.9
612.56,879.4
613.091,876.5
613.621,876.6
614.151,876.6
614.681,877.8
615.212,874.7
615.742,879.2
616.272,878.2
616.802,877.1
617.332,878.4
617.861,878.2
618.391,877.4
618.921,878.0
619.45,879.2
619.98,878.7
620.509,879.3
621.039,882.9
621.568,886.1
622.097,898.4
622.627,896.4
623.156,881.3
623.685,877.1
624.214,877.7
624.743,878.2
625.272,879.6
625.801,887.4
626.33,900.9
626.858,1045.3
627.387,1387.3
627.916,1170.2
628.444,1256.0
628.973,1221.2
629.501,1152.2
630.029,1074.2
630.558,1055.5
631.086,960.6
631.614,901.2
632.142,888.8
632.67,882.5
633.198,875.7
633.726,876.4
634.254,876.5
634.782,875.0
635.31,873.8
635.838,875.2
636.365,874.6
636.893,873.5
637.421,871.8
637.948,873.2
638.476,872.4
639.003,873.7
639.531,874.1
640.058,874.9
640.585,878.2
641.113,877.9
641.64,880.0
642.167,877.0
642.694,880.2
643.221,881.9
643.748,881.4
644.275,882.6
644.802,881.0
645.329,881.6
645.856,881.8
646.382,884.0
646.909,883.8
647.436,883.1
647.962,885.0
648.489,882.5
649.016,881.6
649.542,882.7
650.069,879.1
650.595,877.8
651.121,877.0
651.648,876.4
652.174,877.5
652.7,879.2
653.227,876.7
653.753,877.7
654.279,876.6
654.805,874.2
655.331,874.3
655.857,873.0
656.383,869.9
656.909,872.3
657.435,870.8
657.961,871.5
658.487,873.3
659.013,869.7
659.538,868.1
660.064,868.7
660.59,867.7
661.116,869.2
661.641,864.4
662.167,865.1
662.692,863.7
663.087,863.8

File: VLFR_02-HDPE_bio_Raman_59a8b917.csv
nm,Intensity
526.494,834.7
527.041,834.7
527.588,836.0
528.135,833.0
528.682,835.3
529.229,835.1
529.775,834.3
530.321,835.3
530.868,835.2
531.414,834.2
531.96,849.9
532.506,837.3
533.051,834.1
533.597,835.6
534.142,909.7
534.687,909.5
535.232,911.6
535.777,875.1
536.322,866.4
536.867,861.8
537.411,861.2
537.956,862.0
538.5,856.3
539.044,855.5
539.588,856.0
540.132,851.5
540.676,852.5
541.22,852.9
541.763,854.7
542.306,850.3
542.85,852.5
543.393,851.2
543.936,850.6
544.479,851.0
545.021,850.5
545.564,849.3
546.106,850.4
546.649,850.7
547.191,851.8
547.733,850.0
548.275,850.8
548.817,849.7
549.359,850.5
549.9,851.6
550.442,850.2
550.983,851.5
551.524,852.2
552.066,853.5
552.607,851.1
553.148,853.0
553.688,855.6
554.229,854.6
554.77,856.6
555.31,855.4
555.85,857.6
556.39,859.2
556.931,858.7
557.471,858.2
558.01,863.8
558.55,862.8
559.09,859.3
559.629,860.7
560.169,861.2
560.708,860.2
561.247,860.7
561.786,861.2
562.325,862.0
562.864,865.1
563.403,867.9
563.941,962.6
564.48,886.8
565.018,879.2
565.557,874.5
566.095,933.1
566.633,874.0
567.171,870.2
567.709,878.9
568.247,866.5
568.784,867.8
569.322,866.8
569.859,866.1
570.397,877.4
570.934,884.2
571.471,1031.6
572.008,901.2
572.545,877.5
573.082,873.4
573.619,875.8
574.155,883.3
574.692,875.4
575.228,885.0
575.765,922.6
576.301,1064.7
576.837,976.9
577.373,952.4
577.909,901.3
578.445,893.3
578.981,894.1
579.516,900.0
580.052,900.1
580.587,899.9
581.123,900.5
581.658,905.1
582.193,909.0
582.728,911.2
583.263,916.2
583.798,915.6
584.333,922.7
584.868,922.8
585.402,924.4
585.937,929.2
586.471,933.5
587.005,937.0
587.54,943.2
588.074,949.6
588.608,952.5
589.142,949.9
589.676,959.9
590.21,965.1
590.743,971.1
591.277,979.3
591.81,979.0
592.344,990.0
592.877,990.8
593.411,992.9
593.944,998.3
594.477,1006.8
595.01,1009.8
595.543,1018.3
596.076,1028.0
596.608,1036.7
597.141,1043.1
597.674,1047.6
598.206,1061.2
598.739,1065.1
599.271,1075.0
599.803,1073.2
600.335,1077.4
600.868,1082.0
601.4,1082.4
601.931,1084.3
602.463,1083.6
602.995,1079.8
603.527,1077.0
604.058,1068.9
604.59,1069.4
605.121,1058.3
605.653,1051.0
606.184,1048.1
606.715,1038.5
607.246,1034.9
607.778,1033.3
608.309,1027.5
608.839,1024.9
609.37,1025.1
609.901,1017.9
610.432,1015.1
610.962,1015.4
611.493,1006.7
612.023,1005.6
612.554,1008.3
613.084,1006.6
613.614,1003.4
614.145,1002.1
614.675,996.4
615.205,992.0
615.735,991.7
616.265,987.1
616.795,992.0
617.324,998.5
617.854,995.8
618.384,995.7
618.913,993.2
619.443,989.1
619.972,989.3
620.502,981.7
621.031,993.9
621.56,1008.2
622.089,1060.7
622.618,1054.0
623.147,995.5
623.676,981.4
624.205,978.8
624.734,973.0
625.263,978.1
625.792,992.9
626.32,1037.7
626.849,1515.0
627.377,2239.9
627.906,1694.8
628.434,2199.5
628.963,1631.5
629.491,1482.5
630.019,1310.1
630.547,1269.4
631.076,1086.7
631.604,986.5
632.132,965.2
632.66,957.1
633.188,955.0
633.715,950.1
634.243,942.1
634.771,940.7
635.299,940.7
635.826,938.9
636.354,937.9
636.881,930.1
637.409,931.0
637.936,928.9
638.464,928.1
638.991,927.6
639.518,929.6
640.045,926.1
640.573,929.8
641.1,928.0
641.627,928.0
642.154,925.2
642.681,929.6
643.208,929.7
643.735,927.8
644.261,925.3
644.788,929.1
645.315,930.1
645.842,929.1
646.368,930.5
646.895,931.9
647.421,930.6
647.948,931.0
648.474,928.6
649.001,932.7
649.527,929.2
650.054,931.8
650.58,929.4
651.106,934.0
651.633,932.6
652.159,928.8
652.685,931.9
653.211,930.9
653.737,930.4
654.263,929.9
654.789,933.4
655.315,928.4
655.841,931.5
656.367,930.0
656.893,925.5
657.419,927.5
657.945,921.2
658.47,927.0
658.996,929.2
659.522,922.5
660.047,925.8
660.573,926.0
661.099,917.4
661.624,912.5
662.15,915.5
662.675,912.1
663.07,910.3

File: VLFR_02-HDPE_bio_Raman_61e2b184.csv
nm,Intensity
526.547,831.05
527.095,830.95
527.642,830.65
528.189,831.95
528.736,831.05
529.283,831.3
529.829,831.15
530.376,830.55
530.922,831.05
531.468,830.5
532.014,844.6
532.56,831.25
533.106,830.65
533.651,832.45
534.196,860.6
534.742,857.75
535.287,853.95
535.832,851.4
536.376,849.05
536.921,847.7
537.465,847.15
538.01,847.45
538.554,847.25
539.098,845.55
539.642,845.1
540.186,845.2
540.729,845.25
541.273,845.65
541.816,844.8
542.36,845.75
542.903,846.35
543.446,843.85
543.988,844.35
544.531,844.6
545.074,844.45
545.616,844.65
546.158,845.75
546.701,844.05
547.243,846.05
547.785,845.45
548.326,846.55
548.868,845.85
549.41,844.8
549.951,846.65
550.492,845.6
551.034,845.55
551.575,846.5
552.116,845.85
552.656,847.25
553.197,846.7
553.738,847.4
554.278,847.05
554.819,848.15
555.359,847.05
555.899,848.4
556.439,848.35
556.979,848.15
557.519,850.1
558.058,849.9
558.598,849.45
559.137,848.3
559.677,848.25
560.216,848.6
560.755,848.55
561.294,850.35
561.833,849.65
562.371,849.25
562.91,851.15
563.449,852.15
563.987,878.1
564.525,856.75
565.064,854.95
565.602,854.45
566.14,903.85
566.678,853.6
567.216,853.85
567.753,852.2
568.291,851.4
568.828,850.9
569.366,850.7
569.903,850.7
570.44,852.55
570.977,855.75
571.514,903.35
572.051,859.1
572.588,854.05
573.125,852.75
573.661,852.1
574.198,854.5
574.734,852.6
575.271,856.95
575.807,870.35
576.343,881.5
576.879,870.85
577.415,862.85
577.951,856.15
578.486,855.5
579.022,855.85
579.557,854.65
580.093,855.5
580.628,855.05
581.164,855.6
581.699,855.45
582.234,857.95
582.769,857.45
583.304,856.05
583.838,858.05
584.373,859.4
584.908,860.25
585.442,859.85
585.977,861.0
586.511,862.25
587.045,865.5
587.58,865.45
588.114,866.75
588.648,868.15
589.182,869.3
589.715,868.95
590.249,868.4
590.783,869.65
591.316,871.65
591.85,874.5
592.383,873.5
592.917,873.1
593.45,874.3
593.983,873.95
594.516,875.95
595.049,876.45
595.582,878.8
596.115,878.3
596.648,880.95
597.18,883.15
597.713,883.95
598.245,889.1
598.778,887.95
599.31,890.5
599.842,891.65
600.375,892.75
600.907,893.35
601.439,891.8
601.971,891.0
602.503,889.4
603.034,892.65
603.566,891.25
604.098,889.05
604.629,889.7
605.161,885.35
605.692,884.05
606.224,883.65
606.755,882.8
607.286,880.75
607.817,880.25
608.348,880.3
608.879,878.4
609.41,878.55
609.941,878.0
610.472,879.25
611.002,878.3
611.533,877.2
612.063,875.75
612.594,874.7
613.124,875.45
613.655,875.3
614.185,874.5
614.715,874.55
615.245,874.65
615.775,872.7
616.305,870.05
616.835,872.85
617.365,875.35
617.895,873.2
618.425,872.5
618.954,871.6
619.484,872.85
620.013,873.2
620.543,871.8
621.072,873.2
621.602,875.2
622.131,878.5
622.66,876.8
623.189,872.25
623.718,869.25
624.247,869.0
624.776,868.8
625.305,871.25
625.834,871.45
626.363,878.05
626.891,930.7
627.42,1013.5
627.949,951.9
628.477,999.05
629.006,964.75
629.534,943.6
630.062,921.2
630.591,915.1
631.119,888.8
631.647,873.75
632.175,867.2
632.703,867.55
633.231,866.15
633.759,867.85
634.287,865.1
634.815,864.75
635.343,865.95
635.871,865.3
636.398,865.25
636.926,864.05
637.454,864.25
637.981,865.65
638.509,866.8
639.036,864.7
639.564,865.5
640.091,865.75
640.618,867.3
641.146,866.15
641.673,867.15
642.2,866.5
642.727,868.5
643.254,868.3
643.781,867.15
644.308,867.4
644.835,868.3
645.362,867.75
645.889,870.2
646.416,870.6
646.942,870.1
647.469,869.65
647.996,871.9
648.522,871.45
649.049,870.35
649.576,871.05
650.102,871.0
650.629,870.65
651.155,871.45
651.682,870.65
652.208,870.7
652.734,870.2
653.261,870.65
653.787,870.25
654.313,869.65
654.839,871.6
655.365,868.6
655.892,868.95
656.418,867.35
656.944,868.25
657.47,867.05
657.996,867.35
658.522,866.45
659.048,864.65
659.574,866.35
660.099,865.55
660.625,862.55
661.151,861.75
661.677,861.75
662.203,860.75
662.728,858.8
663.123,858.45

File: VLFR_02-HDPE_bio_Raman_67cf9340.csv
nm,Intensity
528.629,1852.45
529.134,1852.6
529.639,1853.05
530.145,1853.0
530.65,1853.45
531.155,1853.8
531.66,1879.15
532.165,2702.8
532.67,1854.55
533.175,1853.85
533.68,1890.0
534.185,1960.35
534.69,1952.1
535.195,1963.55
535.699,1963.3
536.204,1930.45
536.709,1918.3
537.213,1918.5
537.718,1937.6
538.222,1933.05
538.727,1911.5
539.231,1905.1
539.735,1908.9
540.239,1908.1
540.744,1909.65
541.248,1909.9
541.752,1909.95
542.256,1910.95
542.76,1918.05
543.264,1917.3
543.768,1918.85
544.271,1913.65
544.775,1916.05
545.279,1913.95
545.783,1916.25
546.286,1916.9
546.79,1920.85
547.293,1920.7
547.797,1922.35
548.3,1920.45
548.803,1926.35
549.306,1927.2
549.81,1928.95
550.313,1925.55
550.816,1931.7
551.319,1938.95
551.822,1940.95
552.325,1930.6
552.828,1924.15
553.33,1924.15
553.833,1925.25
554.336,1921.3
554.838,1925.1
555.341,1923.8
555.843,1923.65
556.346,1928.0
556.848,1929.35
557.35,1931.85
557.853,1932.4
558.355,1931.45
558.857,1933.35
559.359,1933.05
559.861,1934.05
560.363,1932.7
560.865,1937.35
561.367,1931.95
561.869,1934.8
562.37,1937.8
562.872,1936.2
563.374,1936.45
563.875,1937.85
564.376,1930.55
564.878,1935.45
565.379,1937.2
565.881,1936.6
566.382,1937.95
566.883,1936.25
567.384,1936.45
567.885,1940.45
568.386,1941.0
568.887,1936.9
569.388,1938.4
569.888,1940.85
570.389,1939.15
570.89,1936.4
571.39,1944.1
571.891,1945.4
572.391,1944.05
572.892,1944.4
573.392,1940.45
573.892,1940.75
574.393,1946.75
574.893,1946.8
575.393,1945.3
575.893,1951.2
576.393,1951.5
576.893,1944.9
577.392,1940.05
577.892,1949.55
578.392,1948.35
578.891,1941.7
579.391,1947.4
579.89,1952.0
580.39,1949.7
580.889,1955.6
581.388,1953.35
581.888,1957.65
582.387,1969.1
582.886,1996.95
583.385,1981.35
583.884,1961.15
584.383,1956.55
584.881,1955.05
585.38,1951.45
585.879,1953.4
586.377,1954.6
586.876,1956.6
587.374,1955.6
587.873,1948.3
588.371,1953.0
588.869,1955.65
589.368,1951.45
589.866,1962.05
590.364,1954.95
590.862,1954.8
591.36,1951.35
591.857,1954.8
592.355,1957.7
592.853,1953.65
593.35,1951.85
593.848,1959.4
594.345,1964.4
594.843,1958.15
595.34,1964.5
595.837,1963.7
596.335,1964.1
596.832,1962.1
597.329,1961.75
597.826,1962.95
598.323,1961.75
598.819,1964.45
599.316,1958.4
599.813,1964.65
600.309,1975.7
600.806,1966.5
601.302,1965.35
601.799,1966.0
602.295,1973.1
602.791,1969.1
603.288,1968.9
603.784,1975.95
604.28,1973.65
604.776,1971.05
605.272,1974.05
605.767,1970.85
606.263,1973.0
606.759,1974.3
607.254,1966.05
607.75,1968.55
608.245,1967.55
608.74,1973.0
609.236,1970.5
609.731,1969.45
610.226,1966.55
610.721,1968.9
611.216,1967.0
611.711,1978.05
612.206,1971.2
612.7,1966.2
613.195,1963.0
613.69,1964.15
614.184,1968.35
614.679,1967.65
615.173,1972.85
615.667,1972.15
616.161,1969.3
616.656,1963.7
617.15,1971.8
617.644,1969.05
618.137,1965.3
618.631,1966.75
619.125,1968.3
619.619,1973.75
620.112,1977.35
620.606,1966.0
621.099,1974.35
621.592,1970.25
622.086,1965.35
622.579,1967.15
623.072,1970.1
623.565,1970.25
624.058,1970.5
624.551,1962.65
625.043,1962.5
625.536,1971.55
626.029,1969.95
626.521,1963.1
627.014,1972.4
627.506,1969.05
627.998,1967.7
628.49,1970.95
628.983,1970.05
629.475,1967.95
629.966,1964.45
630.458,1976.65
630.95,1966.75
631.442,1960.4
631.933,1966.0
632.425,1963.25
632.916,1963.65
633.408,1958.05
633.899,1961.65
634.39,1971.8
634.881,1960.3
635.372,1958.25
635.863,1959.1
636.354,1964.95
636.845,1959.6
637.336,1961.3
637.826,1957.65
638.317,1965.6
638.807,1960.15
639.298,1962.7
639.788,1973.05
640.278,1967.0
640.768,1961.0
641.258,1962.2
641.748,1977.95
642.238,1977.3
642.728,1991.2
643.217,2002.4
643.707,1993.05
644.197,1989.2
644.686,2003.9
645.175,1983.45
645.664,1987.25
646.154,2001.1
646.643,2009.75
647.132,2017.5
647.621,2050.95
648.109,2082.8
648.598,2148.35
649.087,2173.7
649.575,2265.8
650.064,2303.85
650.552,2351.9
651.04,2378.3
651.528,2306.15
652.017,2215.45
652.505,2139.8
652.992,2099.3
653.48,2065.4
653.968,2034.5
654.456,2008.05
654.943,2001.05
655.431,2000.85
655.918,1977.65
656.405,1971.55
656.893,1965.5
657.38,1960.0
657.867,1951.95
658.354,1940.7
658.84,1938.75
659.327,1933.5
659.814,1930.0
660.3,1929.7
660.787,1926.1
661.03,1924.4