Folder: MPX_specDB/spectra (part 109)

File: VLFR_07-PET_bio_Raman_fe406b84.csv
nm,Intensity
791.496,9916.5
792.594,9235.2
793.692,8863.3
794.79,8674.2
795.888,8572.3
796.986,8606.7
798.083,8522.6
799.181,8437.1
800.278,8399.7
801.375,8469.0
802.473,8409.3
803.57,8219.2
804.667,8156.6
805.764,8132.5
806.86,7990.6
807.957,7913.8
809.054,7904.8
810.15,7803.2
811.246,7735.2
812.343,7756.0
813.439,7675.7
814.535,7620.7
815.631,7569.2
816.727,7495.2
817.822,7426.9
818.918,7322.9
820.013,7292.1
821.109,7218.8
822.204,7128.8
823.299,7110.2
824.394,7059.1
825.489,7253.4
826.584,7004.3
827.679,6937.6
828.774,6922.2
829.868,6854.6
830.963,6854.2
832.057,6719.1
833.151,6678.4
834.245,6651.1
835.339,6606.4
836.433,6651.9
837.527,6619.7
838.621,6634.2
839.714,6606.7
840.808,6842.4
841.901,6636.2
842.994,6495.0
844.087,6389.7
845.18,6274.2
846.273,6201.4
847.366,6186.2
848.458,6153.1
849.551,6140.1
850.643,6096.4
851.735,6095.9
852.828,6091.8
853.92,6011.8
855.012,6000.3
856.103,5963.1
857.195,5938.1
858.287,6012.1
859.378,6049.4
860.469,6026.7
861.56,5822.8
862.651,5802.4
863.742,5799.8
864.833,5828.6
865.924,5751.7
867.014,5689.8
868.105,5659.4
869.195,5667.3
870.285,5702.3
871.376,5793.0
872.465,5881.8
873.555,5799.1
874.645,5673.9
875.735,5555.2
876.824,5501.7
877.913,5477.5
879.002,5406.5
880.092,5410.6
881.18,5396.8
882.269,5408.3
883.358,5334.2
884.446,5290.3
885.535,5320.7
886.623,5280.1
887.711,5204.0
888.799,5174.7
889.887,5167.4
890.975,5169.9
892.062,5127.2
893.15,5119.9
894.237,5049.6
895.325,5058.9
896.412,5088.4
897.499,5429.5
898.585,5421.8
899.672,5131.7
900.759,4933.3
901.845,4862.3
902.931,4867.2
904.017,4833.1
905.103,4883.4
906.189,5001.3
907.275,5201.3
908.361,5057.7
909.446,4827.0
910.531,4705.9
911.616,4677.7
912.701,4656.3
913.786,4624.7
914.871,4584.3
915.956,4563.9
917.04,4565.8
918.124,4534.8
919.209,4510.8
920.293,4493.2
921.376,4464.7
922.46,4440.3
923.544,4419.7
924.627,4411.5
925.711,4367.1
926.794,4363.2
927.877,4348.9
928.96,4312.5
930.042,4303.2
931.125,4279.9
932.207,4268.5
933.29,4254.9
934.372,4241.7
935.454,4220.8
936.536,4204.8
937.617,4177.9
938.699,4178.2
939.78,4155.5
940.861,4143.6
941.943,4116.9
943.023,4116.5
944.104,4102.2
945.185,4084.5
946.265,4077.7
947.346,4065.3
948.426,4061.5
949.506,4037.4
950.586,4040.7
951.665,4016.0
952.745,4009.8
953.824,3998.7
954.904,3986.8
955.983,3978.3
957.062,3965.5
958.141,3966.8
959.219,3959.7
960.298,3940.5
961.376,3934.2
962.454,3930.6
963.532,3919.4
964.61,3914.4
965.688,3912.1
966.765,3902.0
967.842,3890.6
968.92,3889.7
969.997,3886.1
971.074,3879.1
972.15,3866.5
973.227,3866.9
974.303,3861.2
975.379,3853.1
976.455,3848.0
977.531,3845.3
978.607,3838.4
979.683,3831.9
980.758,3830.4
981.833,3828.9
982.908,3829.8
983.983,3816.6
985.058,3813.4
986.133,3814.0
987.207,3809.8
988.281,3803.0
989.355,3806.5
990.429,3795.9
991.503,3791.8
992.577,3790.0
993.65,3790.2
994.723,3781.2
995.796,3779.8
996.869,3779.0
997.942,3774.9
999.014,3772.1
1000.09,3769.6
1001.16,3768.0
1002.23,3767.3
1003.3,3763.3
1004.37,3761.3
1005.45,3758.2
1006.52,3756.5
1007.59,3751.0
1008.66,3752.3
1009.73,3750.5
1010.8,3749.8
1011.87,3744.6
1012.94,3743.3
1014.01,3742.9
1015.08,3745.5
1016.15,3740.7
1017.22,3741.1
1018.29,3739.9
1019.36,3738.0
1020.43,3740.5
1021.5,3744.0
1022.57,3746.6
1023.64,3739.4
1024.7,3736.9
1025.77,3735.7
1026.84,3730.2
1027.91,3729.9
1028.97,3727.6
1030.04,3727.3
1031.11,3724.9
1032.18,3725.6
1033.24,3725.7
1034.31,3729.6
1035.38,3726.3
1036.44,3724.9
1037.51,3722.0
1038.58,3716.7
1039.64,3716.4
1040.71,3719.7
1041.77,3715.8
1042.84,3715.4
1043.9,3715.0
1044.97,3715.3
1046.03,3713.1
1047.1,3718.0
1048.16,3714.2
1049.22,3711.9
1050.29,3714.5
1051.35,3713.5
1052.42,3712.6
1053.48,3711.9
1054.54,3714.0
1055.61,3711.8
1056.67,3712.3
1057.73,3711.5
1058.79,3712.5
1059.86,3711.5
1060.92,3712.3
1061.98,3710.1
1063.04,3710.6
1064.1,3710.9
1065.16,3709.3
1066.22,3709.3
1067.29,3709.8
1068.08,3709.5

File: VLFR_07-PET_nobio_Raman_0b0d1c7a.csv
nm,Intensity
791.377,11770.3
792.477,10778.0
793.576,10130.1
794.676,9841.76
795.775,9649.48
796.874,9591.28
797.973,9504.38
799.072,9540.64
800.171,9466.82
801.27,9400.42
802.368,9416.7
803.467,9148.32
804.565,9050.56
805.664,8997.96
806.762,8905.26
807.86,8922.6
808.958,8751.1
810.056,8677.98
811.153,8682.34
812.251,8681.44
813.349,8572.74
814.446,8432.12
815.543,8398.08
816.64,8292.0
817.737,8228.08
818.834,8149.2
819.931,8075.54
821.028,8069.44
822.125,7914.34
823.221,7778.66
824.317,7820.16
825.414,7907.36
826.51,7766.18
827.606,7605.76
828.702,7510.84
829.797,7468.6
830.893,7567.66
831.988,7368.1
833.084,7282.74
834.179,7233.26
835.274,7222.94
836.369,7214.14
837.464,7214.98
838.559,7273.64
839.654,7157.36
840.748,7252.36
841.843,7418.88
842.937,7037.74
844.031,6984.88
845.125,6757.06
846.219,6690.64
847.313,6715.16
848.407,6640.02
849.5,6569.42
850.593,6508.54
851.687,6581.12
852.78,6479.92
853.873,6532.1
854.966,6328.96
856.059,6327.28
857.151,6324.0
858.244,6439.98
859.336,6484.24
860.428,6559.5
861.52,6286.54
862.612,6162.62
863.704,6140.92
864.796,6294.94
865.888,6090.66
866.979,5990.4
868.07,6030.06
869.162,5999.68
870.253,6001.46
871.344,6120.14
872.434,6293.28
873.525,6345.36
874.615,6178.64
875.706,5910.64
876.796,5865.86
877.886,5817.58
878.976,5696.42
880.066,5686.28
881.156,5727.1
882.245,5644.44
883.335,5604.72
884.424,5607.94
885.513,5631.0
886.602,5602.62
887.691,5492.46
888.78,5454.76
889.868,5401.2
890.957,5415.94
892.045,5427.2
893.133,5352.46
894.221,5275.08
895.309,5278.12
896.397,5247.0
897.484,5473.74
898.571,6009.32
899.659,5601.66
900.746,5151.5
901.833,5078.84
902.92,5055.7
904.006,5094.18
905.093,5018.82
906.179,5143.86
907.266,5445.94
908.352,5492.4
909.438,5142.18
910.523,4964.26
911.609,4832.22
912.695,4824.12
913.78,4772.36
914.865,4748.92
915.95,4732.88
917.035,4698.18
918.12,4685.64
919.204,4692.08
920.289,4625.64
921.373,4625.46
922.457,4579.58
923.541,4547.72
924.625,4548.78
925.709,4523.7
926.792,4478.56
927.876,4469.78
928.959,4459.3
930.042,4404.08
931.125,4390.94
932.208,4357.98
933.29,4335.7
934.373,4322.5
935.455,4306.12
936.537,4298.56
937.619,4278.12
938.701,4260.12
939.782,4253.42
940.864,4233.86
941.945,4200.08
943.026,4200.08
944.107,4183.54
945.188,4161.6
946.269,4154.74
947.349,4143.4
948.43,4136.24
949.51,4121.78
950.59,4104.58
951.67,4094.82
952.75,4075.88
953.829,4076.82
954.909,4060.02
955.988,4061.66
957.067,4040.92
958.146,4034.98
959.224,4023.54
960.303,4010.44
961.381,4003.7
962.459,4002.0
963.537,3987.26
964.615,3980.04
965.693,3971.98
966.771,3965.28
967.848,3964.24
968.925,3951.46
970.002,3946.86
971.079,3941.2
972.156,3934.64
973.232,3925.56
974.309,3918.2
975.385,3910.96
976.461,3905.48
977.537,3893.54
978.612,3894.38
979.688,3884.0
980.763,3888.3
981.838,3882.68
982.913,3872.32
983.988,3866.74
985.063,3867.94
986.137,3862.3
987.211,3861.64
988.285,3851.42
989.359,3846.14
990.433,3846.84
991.506,3832.76
992.58,3831.98
993.653,3830.26
994.726,3825.78
995.799,3820.46
996.872,3821.76
997.944,3812.98
999.016,3812.7
1000.09,3811.76
1001.16,3802.84
1002.23,3803.1
1003.3,3796.72
1004.38,3796.34
1005.45,3792.58
1006.52,3791.26
1007.59,3786.68
1008.66,3784.24
1009.73,3782.4
1010.8,3779.84
1011.87,3779.2
1012.94,3778.2
1014.01,3774.76
1015.08,3773.88
1016.15,3774.52
1017.22,3770.54
1018.29,3767.98
1019.36,3766.56
1020.42,3766.92
1021.49,3772.04
1022.56,3773.56
1023.63,3771.86
1024.7,3767.28
1025.76,3762.18
1026.83,3756.58
1027.9,3755.28
1028.97,3752.42
1030.03,3749.88
1031.1,3747.98
1032.17,3747.82
1033.23,3749.0
1034.3,3750.6
1035.36,3752.98
1036.43,3750.76
1037.5,3746.44
1038.56,3742.06
1039.63,3741.66
1040.69,3740.3
1041.76,3737.68
1042.82,3735.9
1043.89,3736.64
1044.95,3735.36
1046.01,3734.2
1047.08,3734.64
1048.14,3733.68
1049.2,3732.62
1050.27,3733.38
1051.33,3732.86
1052.39,3732.7
1053.46,3731.44
1054.52,3730.22
1055.58,3732.3
1056.64,3730.44
1057.7,3730.9
1058.77,3730.56
1059.83,3731.5
1060.89,3730.64
1061.95,3730.02
1063.01,3729.18
1064.07,3730.18
1065.13,3729.26
1066.19,3728.7
1067.25,3728.6
1068.05,3728.1

File: VLFR_07-PET_nobio_Raman_0b8ab9bf.csv
nm,Intensity
791.377,10619.0
792.477,9531.64
793.576,9051.92
794.676,8835.16
795.775,8593.56
796.874,8478.88
797.973,8522.62
799.072,8596.76
800.171,8381.1
801.27,8364.68
802.368,8365.46
803.467,8177.96
804.565,8060.2
805.664,7987.3
806.762,7828.14
807.86,7931.76
808.958,7793.1
810.056,7666.22
811.153,7692.4
812.251,7559.38
813.349,7570.08
814.446,7487.86
815.543,7388.2
816.64,7374.28
817.737,7345.7
818.834,7227.5
819.931,7230.06
821.028,7153.74
822.125,7165.34
823.221,6979.26
824.317,7005.92
825.414,7095.4
826.51,6938.5
827.606,6848.0
828.702,6803.14
829.797,6692.16
830.893,6834.46
831.988,6603.36
833.084,6562.28
834.179,6540.02
835.274,6500.9
836.369,6457.4
837.464,6496.54
838.559,6501.84
839.654,6496.16
840.748,6725.02
841.843,6747.66
842.937,6442.18
844.031,6399.68
845.125,6190.66
846.219,6117.82
847.313,6078.92
848.407,6057.12
849.5,5992.44
850.593,5988.88
851.687,6016.3
852.78,6022.86
853.873,5924.4
854.966,5883.56
856.059,5863.24
857.151,5862.98
858.244,5950.44
859.336,5989.7
860.428,6060.5
861.52,5842.56
862.612,5720.54
863.704,5708.14
864.796,5778.1
865.888,5638.32
866.979,5574.62
868.07,5538.48
869.162,5589.78
870.253,5623.76
871.344,5726.26
872.434,5945.3
873.525,5898.88
874.615,5677.8
875.706,5508.98
876.796,5461.68
877.886,5384.84
878.976,5405.36
880.066,5356.66
881.156,5292.4
882.245,5376.56
883.335,5301.38
884.424,5295.34
885.513,5287.16
886.602,5233.72
887.691,5184.92
888.78,5111.72
889.868,5101.14
890.957,5093.76
892.045,5127.12
893.133,5048.5
894.221,5000.9
895.309,4959.3
896.397,4977.22
897.484,5199.68
898.571,5699.06
899.659,5251.32
900.746,4877.74
901.833,4837.48
902.92,4801.02
904.006,4817.9
905.093,4824.3
906.179,4892.36
907.266,5252.78
908.352,5265.78
909.438,4932.66
910.523,4744.34
911.609,4633.0
912.695,4610.52
913.78,4586.18
914.865,4549.2
915.95,4540.38
917.035,4551.2
918.12,4484.54
919.204,4493.98
920.289,4469.12
921.373,4446.0
922.457,4431.24
923.541,4397.58
924.625,4391.06
925.709,4389.36
926.792,4348.92
927.876,4316.32
928.959,4306.3
930.042,4308.14
931.125,4271.36
932.208,4248.72
933.29,4240.86
934.373,4223.68
935.455,4210.92
936.537,4191.3
937.619,4194.74
938.701,4160.86
939.782,4160.78
940.864,4150.18
941.945,4133.78
943.026,4121.18
944.107,4093.28
945.188,4093.42
946.269,4092.76
947.349,4067.6
948.43,4060.38
949.51,4051.46
950.59,4034.74
951.67,4030.48
952.75,4020.38
953.829,4002.74
954.909,4003.14
955.988,3994.54
957.067,3985.04
958.146,3981.26
959.224,3965.4
960.303,3962.16
961.381,3957.18
962.459,3948.5
963.537,3939.72
964.615,3937.6
965.693,3926.96
966.771,3921.06
967.848,3915.58
968.925,3913.12
970.002,3907.06
971.079,3896.94
972.156,3886.86
973.232,3890.18
974.309,3876.44
975.385,3875.4
976.461,3868.2
977.537,3866.38
978.612,3860.04
979.688,3860.4
980.763,3851.16
981.838,3850.8
982.913,3843.2
983.988,3843.24
985.063,3836.96
986.137,3834.08
987.211,3830.18
988.285,3832.38
989.359,3822.6
990.433,3821.24
991.506,3817.3
992.58,3809.6
993.653,3806.38
994.726,3804.04
995.799,3799.2
996.872,3800.88
997.944,3795.18
999.016,3794.8
1000.09,3791.28
1001.16,3788.24
1002.23,3784.58
1003.3,3782.44
1004.38,3783.52
1005.45,3778.2
1006.52,3776.02
1007.59,3775.4
1008.66,3771.04
1009.73,3767.9
1010.8,3769.26
1011.87,3765.78
1012.94,3764.7
1014.01,3764.22
1015.08,3763.9
1016.15,3763.36
1017.22,3759.76
1018.29,3758.34
1019.36,3757.16
1020.42,3758.2
1021.49,3765.0
1022.56,3768.08
1023.63,3763.44
1024.7,3760.98
1025.76,3756.48
1026.83,3752.72
1027.9,3749.84
1028.97,3746.24
1030.03,3743.34
1031.1,3741.44
1032.17,3742.46
1033.23,3743.94
1034.3,3747.16
1035.36,3748.6
1036.43,3747.46
1037.5,3741.38
1038.56,3737.96
1039.63,3735.86
1040.69,3736.02
1041.76,3734.06
1042.82,3734.0
1043.89,3733.64
1044.95,3732.32
1046.01,3730.36
1047.08,3731.8
1048.14,3730.94
1049.2,3730.34
1050.27,3730.12
1051.33,3730.02
1052.39,3729.76
1053.46,3728.96
1054.52,3730.3
1055.58,3729.78
1056.64,3727.96
1057.7,3728.48
1058.77,3728.08
1059.83,3728.0
1060.89,3728.8
1061.95,3728.32
1063.01,3727.34
1064.07,3727.88
1065.13,3726.86
1066.19,3726.88
1067.25,3726.44
1068.05,3726.04

File: VLFR_07-PET_nobio_Raman_0cf8ee59.csv
nm,Intensity
791.75,14004.0
792.846,13130.9
793.942,12309.3
795.037,12332.5
796.133,12148.3
797.228,12025.7
798.324,12211.8
799.419,12026.2
800.514,12026.4
801.61,12151.0
802.705,11868.5
803.8,11597.7
804.894,11456.5
805.989,11410.0
807.084,11250.8
808.178,11147.9
809.273,10995.6
810.367,11078.0
811.461,10741.8
812.556,10761.5
813.65,10642.5
814.744,10475.5
815.837,10338.8
816.931,10359.5
818.025,10221.5
819.118,10045.3
820.212,10166.3
821.305,10029.3
822.398,9916.85
823.491,9613.3
824.585,9572.25
825.677,10129.2
826.77,9500.4
827.863,9388.0
828.956,9338.5
830.048,9219.5
831.14,9203.25
832.233,9081.05
833.325,8915.65
834.417,8845.45
835.509,8736.25
836.601,8939.95
837.692,8761.05
838.784,8733.3
839.876,8779.4
840.967,9065.95
842.058,8720.85
843.149,8466.4
844.24,8326.45
845.331,8201.2
846.422,8015.85
847.513,7987.35
848.604,7831.8
849.694,7863.7
850.784,7704.4
851.875,7816.65
852.965,7765.8
854.055,7723.6
855.145,7640.9
856.235,7484.95
857.324,7572.75
858.414,7629.65
859.503,7710.9
860.593,7586.4
861.682,7374.4
862.771,7208.25
863.86,7345.2
864.949,7259.45
866.038,7145.25
867.126,7090.35
868.215,7012.45
869.303,7105.05
870.391,7110.8
871.479,7289.45
872.567,7540.0
873.655,7261.55
874.743,6964.9
875.831,6929.9
876.918,6822.15
878.006,6801.0
879.093,6712.8
880.18,6703.1
881.267,6587.1
882.354,6599.0
883.441,6582.5
884.527,6510.25
885.614,6530.05
886.7,6399.9
887.786,6301.0
888.872,6264.5
889.958,6186.45
891.044,6279.45
892.13,6192.7
893.216,6103.6
894.301,6067.85
895.386,6022.55
896.472,6157.6
897.557,6818.4
898.642,6782.7
899.726,6045.8
900.811,5805.45
901.896,5731.15
902.98,5741.1
904.064,5702.0
905.148,5740.4
906.232,5975.75
907.316,6313.6
908.4,6055.45
909.484,5670.15
910.567,5444.05
911.65,5388.25
912.734,5333.45
913.817,5285.95
914.9,5210.15
915.982,5210.95
917.065,5137.2
918.147,5123.5
919.23,5102.9
920.312,5012.05
921.394,4971.65
922.476,4944.8
923.558,4945.7
924.639,4888.95
925.721,4845.85
926.802,4814.4
927.884,4781.0
928.965,4766.05
930.046,4729.45
931.126,4690.65
932.207,4663.0
933.288,4616.35
934.368,4604.75
935.448,4555.9
936.528,4554.3
937.608,4544.4
938.688,4478.6
939.767,4468.35
940.847,4460.5
941.926,4412.9
943.005,4389.75
944.084,4382.65
945.163,4368.05
946.242,4333.4
947.321,4320.55
948.399,4283.4
949.477,4283.75
950.556,4253.6
951.634,4249.1
952.711,4208.55
953.789,4201.45
954.867,4179.15
955.944,4186.3
957.021,4153.45
958.098,4137.1
959.175,4125.65
960.252,4127.4
961.328,4094.15
962.405,4071.55
963.481,4082.0
964.557,4056.45
965.633,4034.6
966.709,4038.7
967.785,4028.7
968.86,4004.8
969.936,4010.1
971.011,3993.3
972.086,3988.35
973.161,3963.0
974.235,3973.55
975.31,3959.6
976.384,3940.9
977.459,3937.95
978.533,3930.0
979.607,3922.35
980.68,3920.95
981.754,3905.45
982.827,3901.9
983.901,3890.65
984.974,3890.35
986.047,3887.6
987.119,3868.3
988.192,3867.15
989.264,3865.7
990.337,3854.6
991.409,3843.5
992.481,3844.5
993.553,3835.7
994.624,3827.8
995.696,3821.2
996.767,3820.8
997.838,3815.7
998.909,3807.0
999.98,3802.9
1001.05,3799.25
1002.12,3798.25
1003.19,3788.2
1004.26,3786.1
1005.33,3781.45
1006.4,3780.1
1007.47,3779.15
1008.54,3775.65
1009.61,3771.55
1010.68,3763.05
1011.75,3763.0
1012.82,3761.5
1013.88,3762.8
1014.95,3759.75
1016.02,3755.95
1017.09,3748.9
1018.16,3750.05
1019.22,3750.15
1020.29,3748.3
1021.36,3758.75
1022.43,3757.45
1023.49,3748.75
1024.56,3744.65
1025.63,3739.8
1026.69,3733.6
1027.76,3729.8
1028.83,3726.15
1029.89,3721.9
1030.96,3722.35
1032.02,3723.25
1033.09,3725.75
1034.15,3727.0
1035.22,3726.6
1036.28,3721.1
1037.35,3717.45
1038.41,3715.1
1039.48,3711.8
1040.54,3709.85
1041.6,3710.55
1042.67,3707.8
1043.73,3705.95
1044.79,3707.25
1045.86,3706.15
1046.92,3704.4
1047.98,3704.2
1049.05,3702.35
1050.11,3703.85
1051.17,3701.75
1052.23,3701.65
1053.29,3702.15
1054.36,3699.95
1055.42,3702.4
1056.48,3700.0
1057.54,3699.4
1058.6,3700.3
1059.66,3699.45
1060.72,3700.2
1061.78,3700.8
1062.84,3698.95
1063.9,3697.05
1064.96,3697.0
1066.02,3696.6
1067.08,3697.75
1067.88,3698.15

File: VLFR_07-PET_nobio_Raman_0d3e7455.csv
nm,Intensity
791.588,16239.0
792.685,14728.0
793.781,14059.9
794.878,13524.7
795.975,13325.2
797.071,13531.6
798.168,13293.1
799.264,13353.4
800.36,13217.7
801.456,13306.8
802.552,13281.5
803.648,13194.3
804.744,12849.2
805.84,12677.1
806.936,12365.2
808.031,12293.3
809.127,12309.8
810.222,12021.6
811.317,12084.0
812.412,11821.1
813.507,11690.1
814.602,11645.9
815.697,11414.5
816.792,11273.3
817.887,11139.7
818.981,11207.6
820.076,11053.8
821.17,10919.0
822.265,10837.1
823.359,10821.4
824.453,10671.6
825.547,10869.7
826.641,10557.8
827.735,10417.5
828.828,10279.0
829.922,10373.9
831.016,10460.9
832.109,10113.0
833.202,9984.5
834.295,9908.2
835.388,9747.2
836.481,9761.2
837.574,9845.5
838.667,9743.7
839.76,9720.1
840.852,9865.3
841.945,9848.0
843.037,9400.3
844.129,9279.0
845.221,9115.0
846.314,8904.6
847.405,8781.7
848.497,8806.1
849.589,8661.8
850.681,8575.9
851.772,8597.3
852.863,8560.8
853.955,8612.5
855.046,8442.8
856.137,8344.1
857.228,8203.4
858.318,8375.3
859.409,8477.1
860.5,8497.2
861.59,8214.0
862.681,8023.0
863.771,8027.2
864.861,8016.9
865.951,7891.1
867.041,7784.5
868.131,7668.0
869.22,7748.7
870.31,7786.1
871.399,7992.9
872.488,8089.2
873.578,8201.5
874.667,7815.6
875.756,7626.7
876.845,7468.1
877.933,7386.8
879.022,7300.3
880.11,7354.5
881.199,7229.1
882.287,7188.1
883.375,7263.9
884.463,7223.3
885.551,7104.5
886.639,7118.3
887.726,6921.6
888.814,6817.9
889.901,6828.6
890.988,6781.3
892.075,6777.5
893.162,6639.0
894.249,6592.5
895.336,6596.5
896.423,6572.6
897.509,6894.9
898.595,7452.3
899.682,6862.9
900.768,6305.4
901.854,6195.1
902.94,6171.1
904.025,6116.4
905.111,6089.0
906.196,6303.3
907.282,6678.0
908.367,6591.8
909.452,6287.2
910.537,5841.9
911.622,5772.4
912.706,5691.1
913.791,5586.0
914.875,5561.7
915.959,5513.3
917.044,5510.9
918.128,5447.5
919.211,5392.8
920.295,5343.7
921.379,5246.3
922.462,5279.3
923.546,5216.2
924.629,5155.3
925.712,5103.2
926.795,5115.7
927.877,5038.3
928.96,4986.6
930.043,4914.3
931.125,4917.6
932.207,4866.8
933.289,4823.4
934.371,4813.9
935.453,4776.6
936.535,4734.6
937.616,4705.3
938.697,4700.0
939.779,4654.9
940.86,4625.8
941.941,4615.0
943.022,4553.1
944.102,4536.4
945.183,4517.4
946.263,4495.9
947.343,4489.9
948.423,4461.0
949.503,4423.2
950.583,4396.5
951.663,4384.5
952.742,4351.7
953.822,4341.8
954.901,4326.2
955.98,4299.6
957.059,4277.3
958.137,4293.1
959.216,4277.4
960.294,4227.9
961.373,4212.4
962.451,4221.0
963.529,4209.9
964.607,4171.9
965.684,4172.7
966.762,4152.8
967.839,4153.7
968.917,4139.4
969.994,4124.3
971.071,4093.8
972.147,4086.0
973.224,4094.9
974.3,4075.2
975.377,4071.3
976.453,4052.3
977.529,4046.7
978.605,4040.7
979.68,4030.9
980.756,4008.2
981.831,4012.1
982.907,3989.6
983.982,3991.1
985.057,3977.4
986.131,3980.4
987.206,3974.0
988.28,3958.3
989.355,3947.9
990.429,3945.6
991.503,3933.3
992.576,3932.8
993.65,3926.8
994.723,3917.2
995.797,3916.9
996.87,3906.6
997.943,3895.2
999.016,3893.3
1000.09,3886.8
1001.16,3881.8
1002.23,3883.7
1003.31,3870.8
1004.38,3874.0
1005.45,3862.1
1006.52,3856.2
1007.59,3860.7
1008.66,3850.8
1009.73,3846.8
1010.81,3844.9
1011.88,3842.6
1012.95,3840.0
1014.02,3833.2
1015.09,3828.9
1016.16,3830.5
1017.23,3825.0
1018.3,3822.5
1019.37,3822.9
1020.44,3823.8
1021.51,3824.5
1022.58,3827.7
1023.64,3825.6
1024.71,3819.3
1025.78,3812.5
1026.85,3803.1
1027.92,3800.7
1028.99,3797.7
1030.05,3793.6
1031.12,3792.1
1032.19,3791.1
1033.26,3791.3
1034.32,3794.7
1035.39,3797.2
1036.46,3790.9
1037.52,3788.4
1038.59,3783.3
1039.66,3780.3
1040.72,3778.2
1041.79,3776.1
1042.86,3775.5
1043.92,3773.6
1044.99,3772.8
1046.05,3771.1
1047.12,3773.9
1048.18,3770.0
1049.25,3770.4
1050.31,3768.9
1051.37,3768.0
1052.44,3766.1
1053.5,3766.2
1054.57,3767.2
1055.63,3766.9
1056.69,3765.6
1057.76,3769.6
1058.82,3765.5
1059.88,3763.4
1060.95,3766.8
1062.01,3764.5
1063.07,3763.6
1064.13,3764.3
1065.19,3764.5
1066.26,3762.3
1067.32,3760.4
1068.11,3762.0

File: VLFR_07-PET_nobio_Raman_1e374301.csv
nm,Intensity
791.588,15024.8
792.685,13742.6
793.781,13445.7
794.878,12939.2
795.975,12824.7
797.071,12715.5
798.168,12757.9
799.264,12827.4
800.36,12707.2
801.456,12681.1
802.552,12690.4
803.648,12234.1
804.744,12183.8
805.84,12011.2
806.936,11973.8
808.031,11815.1
809.127,11731.5
810.222,11581.1
811.317,11370.0
812.412,11324.4
813.507,11208.4
814.602,11185.8
815.697,10950.0
816.792,10709.3
817.887,10749.2
818.981,10678.5
820.076,10472.4
821.17,10256.4
822.265,10378.4
823.359,10178.6
824.453,10098.5
825.547,10087.3
826.641,9902.9
827.735,9793.8
828.828,9610.1
829.922,9447.5
831.016,9458.7
832.109,9327.4
833.202,9229.9
834.295,9063.3
835.388,9051.1
836.481,9010.4
837.574,9023.5
838.667,8865.2
839.76,8843.7
840.852,8947.1
841.945,8991.3
843.037,8682.2
844.129,8511.4
845.221,8368.7
846.314,8296.7
847.405,8219.5
848.497,8140.4
849.589,8042.9
850.681,7954.6
851.772,7985.4
852.863,7935.3
853.955,7879.8
855.046,7713.7
856.137,7835.6
857.228,7688.2
858.318,7652.6
859.409,7805.4
860.5,7725.7
861.59,7571.7
862.681,7460.5
863.771,7471.1
864.861,7404.9
865.951,7310.8
867.041,7214.1
868.131,7169.4
869.22,7171.2
870.31,7268.7
871.399,7264.5
872.488,7437.3
873.578,7333.0
874.667,7211.4
875.756,7008.1
876.845,6951.9
877.933,6866.3
879.022,6871.1
880.11,6785.8
881.199,6787.3
882.287,6726.0
883.375,6666.6
884.463,6693.0
885.551,6618.2
886.639,6524.4
887.726,6531.6
888.814,6462.1
889.901,6396.5
890.988,6379.6
892.075,6351.0
893.162,6249.4
894.249,6177.1
895.336,6154.6
896.423,6140.6
897.509,6369.5
898.595,6705.9
899.682,6310.1
900.768,5983.6
901.854,5832.1
902.94,5850.9
904.025,5792.7
905.111,5726.3
906.196,5860.5
907.282,6138.8
908.367,6028.5
909.452,5855.7
910.537,5580.6
911.622,5474.9
912.706,5460.4
913.791,5382.0
914.875,5335.8
915.959,5328.6
917.044,5237.3
918.128,5190.1
919.211,5166.4
920.295,5143.6
921.379,5085.7
922.462,5054.9
923.546,5018.1
924.629,5000.4
925.712,4925.4
926.795,4926.2
927.877,4886.0
928.96,4820.8
930.043,4801.9
931.125,4789.2
932.207,4744.2
933.289,4737.1
934.371,4686.3
935.453,4636.2
936.535,4609.1
937.616,4578.5
938.697,4550.1
939.779,4558.1
940.86,4512.0
941.941,4480.2
943.022,4461.8
944.102,4447.1
945.183,4408.9
946.263,4397.6
947.343,4383.6
948.423,4361.3
949.503,4331.9
950.583,4307.3
951.663,4295.0
952.742,4277.0
953.822,4250.4
954.901,4245.9
955.98,4224.3
957.059,4221.4
958.137,4199.2
959.216,4178.6
960.294,4165.2
961.373,4151.2
962.451,4136.0
963.529,4126.1
964.607,4126.5
965.684,4102.0
966.762,4100.2
967.839,4070.5
968.917,4069.7
969.994,4062.6
971.071,4056.3
972.147,4035.6
973.224,4024.2
974.3,4010.3
975.377,4003.9
976.453,4007.4
977.529,3994.2
978.605,3993.7
979.68,3975.3
980.756,3963.4
981.831,3963.1
982.907,3954.4
983.982,3945.7
985.057,3943.7
986.131,3944.8
987.206,3930.6
988.28,3924.2
989.355,3912.9
990.429,3909.8
991.503,3906.9
992.576,3905.2
993.65,3887.8
994.723,3888.7
995.797,3885.5
996.87,3883.0
997.943,3874.3
999.016,3867.4
1000.09,3870.6
1001.16,3859.0
1002.23,3863.4
1003.31,3856.9
1004.38,3849.8
1005.45,3844.9
1006.52,3845.9
1007.59,3839.8
1008.66,3833.1
1009.73,3833.0
1010.81,3828.3
1011.88,3825.6
1012.95,3827.0
1014.02,3821.2
1015.09,3815.7
1016.16,3817.3
1017.23,3815.0
1018.3,3807.6
1019.37,3807.8
1020.44,3809.8
1021.51,3812.1
1022.58,3814.8
1023.64,3811.9
1024.71,3805.8
1025.78,3798.8
1026.85,3796.3
1027.92,3791.9
1028.99,3789.3
1030.05,3785.3
1031.12,3785.8
1032.19,3783.8
1033.26,3784.1
1034.32,3787.5
1035.39,3786.1
1036.46,3786.4
1037.52,3781.7
1038.59,3778.0
1039.66,3775.9
1040.72,3775.1
1041.79,3774.1
1042.86,3772.8
1043.92,3771.9
1044.99,3769.0
1046.05,3771.2
1047.12,3770.1
1048.18,3769.2
1049.25,3769.3
1050.31,3767.2
1051.37,3768.1
1052.44,3767.4
1053.5,3766.3
1054.57,3767.1
1055.63,3765.2
1056.69,3766.9
1057.76,3763.5
1058.82,3763.6
1059.88,3764.9
1060.95,3765.6
1062.01,3764.5
1063.07,3763.3
1064.13,3763.9
1065.19,3762.2
1066.26,3761.8
1067.32,3762.1
1068.11,3762.9