Folder: MPX_specDB/spectra (part 13)

File: VLFR_01-LDPE_bio_Raman_c27fbf4a.csv
nm,Intensity
526.547,831.95
527.095,831.85
527.642,831.2
528.189,831.65
528.736,832.95
529.283,832.7
529.829,832.35
530.376,831.35
530.922,831.9
531.468,832.2
532.014,841.45
532.56,832.8
533.106,832.5
533.651,833.75
534.196,908.65
534.742,891.8
535.287,876.6
535.832,865.9
536.376,858.25
536.921,856.9
537.465,855.05
538.01,857.2
538.554,852.25
539.098,852.45
539.642,847.4
540.186,845.5
540.729,845.9
541.273,844.1
541.816,844.55
542.36,843.35
542.903,845.0
543.446,843.6
543.988,843.0
544.531,842.05
545.074,842.25
545.616,842.45
546.158,841.25
546.701,840.65
547.243,842.1
547.785,842.35
548.326,841.85
548.868,840.35
549.41,840.2
549.951,841.45
550.492,839.75
551.034,840.9
551.575,841.0
552.116,840.75
552.656,840.15
553.197,842.5
553.738,843.4
554.278,844.55
554.819,845.65
555.359,844.9
555.899,846.6
556.439,848.2
556.979,850.5
557.519,853.05
558.058,854.75
558.598,856.05
559.137,851.6
559.677,850.4
560.216,848.8
560.755,846.6
561.294,849.45
561.833,848.8
562.371,850.85
562.91,853.75
563.449,860.1
563.987,934.95
564.525,880.35
565.064,872.4
565.602,867.7
566.14,975.1
566.678,868.3
567.216,858.25
567.753,855.45
568.291,851.6
568.828,851.05
569.366,852.9
569.903,852.95
570.44,858.25
570.977,867.2
571.514,1012.15
572.051,898.05
572.588,868.65
573.125,861.4
573.661,863.15
574.198,867.2
574.734,859.45
575.271,866.75
575.807,922.75
576.343,1003.45
576.879,954.65
577.415,908.6
577.951,881.05
578.486,879.0
579.022,879.3
579.557,883.6
580.093,884.85
580.628,886.75
581.164,889.35
581.699,891.7
582.234,893.7
582.769,897.65
583.304,898.4
583.838,899.9
584.373,901.8
584.908,901.9
585.442,905.2
585.977,909.55
586.511,914.45
587.045,916.2
587.58,921.25
588.114,923.25
588.648,927.7
589.182,929.6
589.715,937.25
590.249,940.2
590.783,943.85
591.316,949.4
591.85,951.1
592.383,955.3
592.917,957.9
593.45,956.45
593.983,961.1
594.516,965.65
595.049,971.65
595.582,974.8
596.115,979.65
596.648,982.25
597.18,986.45
597.713,996.65
598.245,1003.75
598.778,1006.2
599.31,1012.25
599.842,1018.7
600.375,1021.5
600.907,1015.95
601.439,1018.7
601.971,1017.05
602.503,1014.45
603.034,1008.3
603.566,1008.15
604.098,998.25
604.629,989.65
605.161,983.25
605.692,974.6
606.224,968.0
606.755,962.75
607.286,956.25
607.817,951.75
608.348,947.7
608.879,946.8
609.41,939.3
609.941,937.0
610.472,936.35
611.002,932.95
611.533,932.05
612.063,929.0
612.594,927.5
613.124,921.95
613.655,924.05
614.185,923.75
614.715,920.2
615.245,917.45
615.775,916.8
616.305,914.0
616.835,918.85
617.365,916.8
617.895,921.25
618.425,917.0
618.954,918.35
619.484,918.1
620.013,919.35
620.543,921.15
621.072,922.7
621.602,929.3
622.131,953.75
622.66,948.55
623.189,925.0
623.718,918.7
624.247,916.8
624.776,919.1
625.305,922.9
625.834,928.55
626.363,957.6
626.891,1194.8
627.42,1611.75
627.949,1357.6
628.477,1592.9
629.006,1451.65
629.534,1346.55
630.062,1239.15
630.591,1207.85
631.119,1051.3
631.647,976.0
632.175,946.35
632.703,930.35
633.231,923.85
633.759,918.25
634.287,915.55
634.815,914.65
635.343,914.3
635.871,913.95
636.398,914.05
636.926,912.9
637.454,912.55
637.981,908.45
638.509,911.0
639.036,912.5
639.564,912.15
640.091,915.95
640.618,915.2
641.146,916.65
641.673,919.25
642.2,917.2
642.727,917.6
643.254,917.9
643.781,921.35
644.308,921.85
644.835,919.75
645.362,920.5
645.889,920.6
646.416,923.95
646.942,927.6
647.469,923.2
647.996,922.85
648.522,924.55
649.049,923.8
649.576,927.4
650.102,926.5
650.629,922.85
651.155,927.5
651.682,928.85
652.208,931.2
652.734,927.7
653.261,931.25
653.787,930.45
654.313,927.85
654.839,926.95
655.365,929.35
655.892,928.7
656.418,925.4
656.944,928.0
657.47,923.5
657.996,923.9
658.522,922.35
659.048,920.4
659.574,917.55
660.099,915.05
660.625,910.9
661.151,907.45
661.677,903.35
662.203,899.15
662.728,900.0
663.123,898.05

File: VLFR_01-LDPE_bio_Raman_c537c5d4.csv
nm,Intensity
528.637,1836.7
529.143,1836.1
529.648,1836.5
530.153,1838.3
530.659,1837.0
531.164,1838.5
531.669,1884.4
532.174,4681.6
532.679,1837.6
533.184,1839.6
533.689,2232.0
534.194,3043.5
534.699,2871.3
535.203,2645.7
535.708,2467.7
536.213,2330.0
536.717,2305.6
537.222,2287.3
537.726,2290.4
538.231,2259.5
538.735,2182.0
539.24,2144.8
539.744,2127.5
540.248,2113.0
540.752,2091.7
541.256,2076.5
541.761,2083.8
542.265,2076.0
542.769,2055.2
543.272,2057.1
543.776,2073.3
544.28,2050.0
544.784,2042.8
545.288,2040.1
545.791,2022.7
546.295,2017.2
546.798,2027.5
547.302,2023.0
547.805,2024.0
548.308,2029.5
548.812,2010.4
549.315,2003.1
549.818,2010.8
550.321,1995.8
550.824,1996.9
551.327,1999.7
551.83,2013.0
552.333,2008.7
552.836,2023.8
553.339,2089.8
553.842,2099.2
554.344,2099.4
554.847,2115.0
555.349,2137.3
555.852,2171.8
556.354,2196.7
556.857,2249.6
557.359,2285.4
557.861,2332.1
558.363,2376.8
558.866,2337.5
559.368,2261.0
559.87,2223.8
560.372,2187.6
560.873,2200.2
561.375,2196.5
561.877,2222.0
562.379,2284.1
562.88,2351.1
563.382,2453.5
563.883,3938.9
564.385,2951.1
564.886,2774.6
565.388,2541.7
565.889,3480.6
566.39,3264.3
566.891,2439.1
567.392,2515.7
567.893,2304.0
568.394,2283.9
568.895,2262.3
569.396,2287.1
569.897,2307.0
570.398,2428.9
570.898,2581.9
571.399,5015.1
571.899,3384.3
572.4,2685.0
572.9,2452.7
573.4,2428.2
573.901,2665.2
574.401,2432.1
574.901,2449.2
575.401,3440.0
575.901,3934.1
576.401,5331.5
576.901,4522.8
577.401,3398.0
577.9,2774.0
578.4,2692.4
578.9,2685.3
579.399,2724.4
579.899,2758.4
580.398,2757.7
580.897,2771.2
581.397,2817.3
581.896,2834.5
582.395,2812.7
582.894,2840.3
583.393,2858.0
583.892,2886.1
584.391,2928.6
584.889,2944.1
585.388,2977.1
585.887,2984.4
586.385,3060.8
586.884,3088.9
587.382,3134.9
587.881,3145.9
588.379,3210.7
588.877,3213.5
589.375,3343.2
589.874,3349.7
590.372,3387.7
590.87,3470.3
591.367,3485.8
591.865,3552.9
592.363,3572.2
592.861,3596.0
593.358,3615.1
593.856,3626.1
594.353,3632.2
594.851,3679.9
595.348,3737.2
595.845,3742.8
596.342,3803.9
596.84,3899.1
597.337,3888.8
597.833,3963.5
598.33,3988.9
598.827,4128.3
599.324,4122.0
599.821,4183.4
600.317,4196.7
600.814,4182.8
601.31,4207.8
601.807,4249.9
602.303,4229.1
602.799,4143.3
603.295,4086.6
603.791,3984.8
604.287,3891.2
604.783,3882.1
605.279,3808.8
605.775,3713.3
606.271,3669.4
606.766,3621.2
607.262,3572.1
607.757,3525.6
608.253,3409.5
608.748,3373.6
609.243,3343.5
609.738,3286.1
610.233,3323.8
610.729,3305.5
611.223,3275.5
611.718,3187.6
612.213,3160.0
612.708,3124.5
613.202,3142.7
613.697,3071.7
614.192,3096.7
614.686,3078.4
615.18,3010.8
615.675,3017.0
616.169,3041.4
616.663,3041.6
617.157,3166.1
617.651,3156.8
618.145,3084.4
618.638,3125.6
619.132,3113.3
619.626,3164.0
620.119,3194.1
620.613,3226.3
621.106,3364.2
621.599,3621.5
622.093,4097.4
622.586,3834.3
623.079,3333.8
623.572,3140.9
624.065,3104.1
624.558,3101.7
625.05,3207.5
625.543,3323.1
626.036,3744.5
626.528,5861.4
627.02,17504.7
627.513,16063.5
628.005,13102.2
628.497,20383.7
628.989,14036.3
629.481,11858.4
629.973,9842.3
630.465,8991.1
630.957,6213.1
631.449,4362.9
631.94,3734.7
632.432,3394.5
632.923,3242.0
633.414,3119.7
633.906,3004.3
634.397,2933.9
634.888,2903.0
635.379,2868.2
635.87,2861.2
636.361,2856.5
636.852,2794.1
637.342,2770.5
637.833,2741.5
638.323,2746.4
638.814,2748.2
639.304,2761.8
639.794,2709.1
640.285,2731.7
640.775,2700.3
641.265,2763.1
641.755,2728.8
642.244,2769.2
642.734,2710.7
643.224,2753.3
643.713,2763.5
644.203,2714.8
644.692,2707.5
645.181,2768.7
645.671,2717.8
646.16,2727.8
646.649,2741.0
647.138,2710.7
647.627,2690.9
648.115,2764.6
648.604,2688.2
649.093,2674.2
649.581,2712.4
650.07,2704.3
650.558,2700.5
651.046,2693.6
651.534,2691.3
652.023,2679.2
652.511,2688.7
652.998,2675.7
653.486,2638.1
653.974,2674.2
654.462,2595.0
654.949,2644.8
655.437,2619.7
655.924,2610.5
656.411,2565.0
656.898,2593.7
657.385,2584.6
657.872,2581.9
658.359,2521.4
658.846,2516.2
659.333,2461.9
659.82,2456.8
660.306,2468.7
660.793,2421.1
661.036,2425.4

File: VLFR_01-LDPE_bio_Raman_c1713c6a.csv
nm,Intensity
528.626,1868.5
529.132,1868.4
529.637,1868.0
530.143,1868.4
530.648,1867.6
531.153,1870.7
531.658,1890.4
532.164,3161.6
532.669,1868.7
533.174,1867.9
533.679,1977.5
534.184,2350.0
534.689,2310.2
535.194,2264.1
535.699,2182.5
536.203,2146.2
536.708,2136.2
537.213,2124.9
537.717,2135.7
538.222,2116.4
538.726,2110.4
539.231,2097.5
539.735,2085.0
540.239,2087.6
540.744,2085.5
541.248,2075.2
541.752,2084.6
542.256,2083.7
542.76,2100.7
543.264,2083.9
543.768,2092.5
544.272,2086.4
544.776,2089.1
545.28,2107.9
545.784,2099.2
546.287,2098.8
546.791,2119.3
547.294,2119.6
547.798,2123.4
548.301,2134.5
548.805,2125.1
549.308,2131.1
549.811,2125.2
550.315,2149.6
550.818,2139.5
551.321,2146.7
551.824,2149.0
552.327,2161.1
552.83,2162.0
553.333,2188.5
553.835,2190.7
554.338,2180.9
554.841,2194.7
555.343,2208.0
555.846,2210.6
556.349,2226.0
556.851,2242.6
557.353,2240.9
557.856,2279.6
558.358,2287.9
558.86,2296.3
559.362,2257.0
559.864,2256.0
560.366,2249.1
560.868,2252.8
561.37,2287.8
561.872,2289.5
562.374,2312.9
562.876,2333.5
563.377,2380.7
563.879,2769.7
564.38,2593.9
564.882,2527.0
565.383,2476.3
565.885,2669.3
566.386,2717.3
566.887,2494.6
567.388,2509.8
567.889,2460.0
568.391,2487.2
568.892,2502.9
569.392,2535.4
569.893,2556.4
570.394,2612.5
570.895,2656.9
571.395,3359.6
571.896,2987.2
572.397,2770.1
572.897,2718.5
573.397,2748.9
573.898,2833.7
574.398,2790.3
574.898,2823.6
575.398,3060.1
575.898,3389.3
576.398,3934.2
576.898,3662.2
577.398,3405.3
577.898,3246.5
578.398,3267.8
578.897,3364.4
579.397,3498.3
579.896,3617.7
580.396,3654.5
580.895,3820.4
581.395,3944.0
581.894,3992.3
582.393,4226.1
582.892,4326.7
583.391,4525.2
583.89,4603.8
584.389,4817.2
584.888,5013.5
585.387,5231.2
585.886,5446.5
586.384,5556.2
586.883,5893.1
587.381,6177.9
587.88,6507.4
588.378,6802.3
588.876,7079.3
589.375,7288.8
589.873,7549.8
590.371,7677.0
590.869,8011.9
591.367,8236.5
591.865,8273.4
592.363,8384.5
592.86,8444.9
593.358,8413.7
593.856,8418.5
594.353,8384.7
594.851,8331.5
595.348,8370.1
595.845,8566.2
596.342,8526.8
596.84,8646.2
597.337,8703.2
597.834,8759.6
598.331,8802.1
598.828,8812.9
599.324,8884.6
599.821,8982.1
600.318,8853.3
600.814,8912.9
601.311,8885.7
601.807,8857.8
602.304,8757.0
602.8,8254.9
603.296,8367.9
603.792,8178.5
604.288,8027.6
604.784,7620.0
605.28,7355.9
605.776,7132.4
606.272,7092.4
606.767,6681.6
607.263,6697.8
607.759,6380.5
608.254,6227.2
608.749,6133.8
609.245,6017.9
609.74,5883.5
610.235,5759.9
610.73,5682.3
611.225,5491.6
611.72,5345.7
612.215,5309.5
612.71,5267.9
613.204,5088.7
613.699,5129.6
614.194,4991.9
614.688,4973.4
615.182,4843.5
615.677,4764.7
616.171,4636.9
616.665,4666.9
617.159,4585.8
617.653,4519.3
618.147,4493.5
618.641,4441.4
619.135,4336.2
619.628,4358.8
620.122,4302.1
620.615,4282.4
621.109,4211.5
621.602,4340.5
622.095,4507.4
622.589,4338.7
623.082,4193.4
623.575,4079.4
624.068,4073.8
624.561,4021.5
625.053,3978.1
625.546,4028.5
626.039,4111.9
626.531,4760.5
627.024,7997.8
627.516,8160.3
628.008,7057.7
628.501,9084.8
628.993,7288.0
629.485,6453.4
629.977,5910.6
630.469,5699.5
630.96,4915.1
631.452,4252.2
631.944,4113.9
632.435,4024.5
632.927,4021.5
633.418,3984.7
633.91,4062.2
634.401,3967.1
634.892,4029.4
635.383,4043.3
635.874,4000.1
636.365,4043.3
636.856,4073.6
637.346,4086.0
637.837,4094.6
638.327,4203.7
638.818,4210.0
639.308,4292.0
639.799,4184.6
640.289,4291.1
640.779,4318.1
641.269,4357.2
641.759,4237.1
642.249,4429.6
642.738,4437.1
643.228,4377.6
643.718,4455.6
644.207,4489.9
644.697,4537.1
645.186,4491.7
645.675,4380.8
646.164,4423.9
646.653,4331.3
647.142,4382.5
647.631,4377.1
648.12,4354.0
648.609,4296.8
649.098,4226.0
649.586,4218.0
650.075,4213.7
650.563,4153.2
651.051,4152.7
651.539,4074.4
652.027,4040.7
652.515,4095.3
653.003,3966.7
653.491,3982.5
653.979,3867.5
654.467,3879.8
654.954,3819.8
655.442,3775.7
655.929,3879.7
656.416,3755.6
656.904,3668.8
657.391,3632.5
657.878,3584.7
658.365,3454.4
658.851,3430.0
659.338,3445.7
659.825,3397.7
660.311,3274.0
660.798,3211.7
661.041,3207.3

File: VLFR_01-LDPE_bio_Raman_cbaa2979.csv
nm,Intensity
528.625,1843.9
529.13,1841.3
529.636,1843.5
530.141,1843.7
530.646,1844.1
531.152,1844.4
531.657,1868.2
532.162,2978.7
532.667,1846.1
533.172,1846.2
533.677,2009.2
534.182,2350.9
534.687,2279.1
535.192,2215.3
535.697,2146.1
536.201,2102.9
536.706,2079.5
537.211,2096.3
537.715,2094.4
538.22,2069.7
538.724,2051.1
539.229,2053.3
539.733,2040.0
540.238,2034.8
540.742,2036.2
541.246,2021.3
541.75,2031.0
542.254,2025.4
542.758,2030.4
543.262,2020.9
543.766,2023.7
544.27,2022.6
544.774,2027.0
545.278,2014.7
545.781,2021.8
546.285,2017.5
546.789,2030.4
547.292,2021.4
547.796,2031.1
548.299,2029.5
548.803,2019.9
549.306,2022.1
549.809,2014.1
550.312,2024.8
550.816,2015.1
551.319,2027.3
551.822,2029.5
552.325,2034.6
552.828,2042.8
553.33,2065.3
553.833,2057.8
554.336,2066.6
554.839,2075.6
555.341,2092.9
555.844,2106.5
556.346,2100.2
556.849,2128.8
557.351,2153.6
557.854,2184.0
558.356,2190.8
558.858,2171.5
559.36,2139.8
559.862,2142.7
560.364,2132.1
560.866,2138.1
561.368,2139.8
561.87,2156.7
562.372,2191.9
562.874,2193.1
563.375,2261.6
563.877,2804.1
564.378,2451.0
564.88,2367.5
565.381,2319.6
565.883,2704.8
566.384,2595.8
566.885,2270.1
567.386,2311.0
567.888,2237.7
568.389,2241.9
568.89,2233.2
569.391,2247.9
569.891,2267.9
570.392,2319.0
570.893,2385.7
571.394,3249.7
571.894,2686.5
572.395,2463.4
572.895,2395.8
573.396,2407.0
573.896,2492.3
574.396,2455.6
574.897,2454.6
575.397,2874.3
575.897,3119.4
576.397,3635.5
576.897,3361.5
577.397,3060.8
577.897,2885.9
578.396,2930.8
578.896,2982.4
579.396,3084.4
579.895,3201.4
580.395,3196.4
580.894,3301.0
581.393,3344.2
581.893,3512.4
582.392,3397.5
582.891,3533.3
583.39,3567.0
583.889,3599.6
584.388,3651.8
584.887,3672.3
585.386,3685.6
585.885,3760.3
586.383,3799.8
586.882,3845.4
587.381,3921.2
587.879,3964.8
588.377,4067.0
588.876,4146.8
589.374,4228.5
589.872,4296.1
590.37,4402.4
590.869,4600.9
591.367,4592.9
591.864,4706.4
592.362,4766.5
592.86,4873.6
593.358,4923.3
593.855,5015.1
594.353,4965.0
594.851,5096.1
595.348,5177.3
595.845,5238.8
596.343,5395.0
596.84,5453.1
597.337,5471.0
597.834,5593.1
598.331,5604.5
598.828,5758.1
599.325,5772.8
599.822,5955.1
600.318,5909.1
600.815,5855.7
601.311,5846.3
601.808,5783.3
602.304,5794.7
602.801,5785.1
603.297,5581.7
603.793,5421.9
604.289,5396.4
604.785,5237.8
605.281,5120.3
605.777,4893.9
606.273,4733.4
606.769,4721.3
607.265,4594.7
607.76,4598.9
608.256,4371.2
608.751,4365.5
609.246,4250.2
609.742,4223.8
610.237,4152.8
610.732,4083.8
611.227,4048.5
611.722,4029.7
612.217,3945.3
612.712,3859.1
613.207,3787.1
613.701,3816.7
614.196,3748.6
614.691,3728.5
615.185,3657.1
615.679,3651.6
616.174,3609.9
616.668,3573.4
617.162,3552.0
617.656,3520.5
618.15,3519.7
618.644,3468.7
619.138,3499.0
619.632,3471.6
620.125,3399.1
620.619,3438.4
621.112,3477.6
621.606,3537.4
622.099,3649.7
622.592,3550.1
623.086,3385.0
623.579,3289.7
624.072,3273.5
624.565,3305.2
625.058,3347.6
625.55,3325.6
626.043,3440.7
626.536,4215.9
627.028,8256.4
627.521,7868.9
628.013,6928.3
628.505,9132.6
628.998,7107.0
629.49,6373.2
629.982,5621.8
630.474,5454.9
630.966,4331.2
631.458,3650.3
631.949,3399.5
632.441,3293.7
632.933,3239.5
633.424,3213.6
633.915,3224.9
634.407,3175.0
634.898,3140.1
635.389,3119.8
635.88,3113.9
636.371,3122.1
636.862,3148.1
637.353,3089.4
637.844,3093.9
638.334,3073.6
638.825,3114.6
639.315,3083.3
639.806,3128.6
640.296,3064.3
640.786,3076.1
641.276,3072.4
641.766,3122.9
642.256,3112.7
642.746,3170.8
643.236,3099.1
643.726,3135.6
644.215,3152.8
644.705,3127.7
645.194,3143.5
645.684,3191.3
646.173,3166.2
646.662,3174.0
647.151,3170.1
647.64,3165.4
648.129,3176.7
648.618,3179.1
649.107,3138.9
649.595,3142.2
650.084,3111.3
650.572,3106.9
651.061,3107.9
651.549,3137.5
652.037,3120.9
652.526,3154.4
653.014,3055.2
653.502,3106.2
653.989,3039.2
654.477,3044.1
654.965,3054.6
655.452,3092.5
655.94,3015.0
656.427,2984.2
656.915,2982.2
657.402,2950.5
657.889,2907.6
658.376,2863.4
658.863,2816.1
659.35,2821.1
659.837,2743.3
660.323,2785.4
660.81,2674.5
661.053,2630.9

File: VLFR_01-LDPE_bio_Raman_cf41ce3c.csv
nm,Intensity
526.495,829.8
527.042,829.7
527.589,828.3
528.136,828.1
528.682,829.7
529.229,828.8
529.775,826.9
530.321,829.2
530.867,828.8
531.413,829.0
531.959,830.7
532.505,829.3
533.051,829.3
533.596,830.0
534.141,893.7
534.687,884.0
535.232,872.4
535.777,860.3
536.321,859.2
536.866,854.5
537.41,854.7
537.955,854.2
538.499,850.8
539.043,847.4
539.587,846.0
540.131,844.7
540.675,844.6
541.219,843.1
541.762,843.6
542.305,842.9
542.849,841.7
543.392,842.0
543.935,842.6
544.478,842.8
545.02,844.3
545.563,843.2
546.106,843.0
546.648,842.2
547.19,844.4
547.732,842.9
548.274,845.5
548.816,844.8
549.358,843.7
549.9,844.2
550.441,843.5
550.983,841.8
551.524,844.2
552.065,842.2
552.606,843.1
553.147,847.4
553.688,847.4
554.229,847.3
554.769,847.3
555.31,847.0
555.85,851.0
556.391,849.6
556.931,850.8
557.471,852.9
558.011,856.5
558.551,854.0
559.09,853.7
559.63,850.8
560.169,853.2
560.709,850.4
561.248,852.2
561.787,851.7
562.326,854.3
562.865,856.1
563.404,862.9
563.943,950.7
564.481,880.2
565.02,875.2
565.558,871.3
566.096,1045.1
566.634,872.8
567.172,864.8
567.71,864.3
568.248,857.6
568.786,857.6
569.324,859.4
569.861,858.9
570.399,860.7
570.936,871.9
571.473,1033.8
572.01,890.0
572.547,869.7
573.084,859.6
573.621,859.5
574.158,872.2
574.694,860.5
575.231,870.7
575.767,954.3
576.303,992.1
576.84,938.8
577.376,909.3
577.912,872.0
578.448,866.7
578.984,866.2
579.519,867.6
580.055,865.7
580.59,870.3
581.126,869.3
581.661,870.4
582.196,872.3
582.731,873.1
583.267,874.7
583.801,876.1
584.336,880.3
584.871,879.2
585.406,884.1
585.94,888.7
586.475,890.0
587.009,894.1
587.543,897.5
588.078,901.4
588.612,902.6
589.146,902.9
589.68,909.6
590.214,909.2
590.747,909.3
591.281,914.9
591.815,920.2
592.348,922.3
592.881,919.6
593.415,923.2
593.948,921.7
594.481,925.3
595.014,926.6
595.547,930.1
596.08,927.8
596.613,932.2
597.146,930.3
597.678,935.0
598.211,931.9
598.743,937.1
599.276,938.7
599.808,943.7
600.34,943.1
600.872,943.2
601.404,938.3
601.936,943.8
602.468,944.6
603.0,941.0
603.532,935.9
604.064,936.3
604.595,931.9
605.127,926.9
605.658,925.3
606.189,922.8
606.721,921.5
607.252,919.2
607.783,916.2
608.314,911.4
608.845,912.6
609.376,913.7
609.907,913.9
610.438,911.5
610.968,910.8
611.499,910.2
612.029,906.4
612.56,905.5
613.09,902.4
613.621,902.1
614.151,901.6
614.681,902.8
615.211,901.2
615.741,899.4
616.271,901.4
616.801,904.1
617.331,905.3
617.861,905.3
618.39,902.1
618.92,899.3
619.45,902.9
619.979,904.2
620.509,902.4
621.038,905.5
621.567,917.7
622.096,935.0
622.626,929.7
623.155,905.4
623.684,902.3
624.213,897.8
624.742,897.3
625.271,903.0
625.799,905.2
626.328,934.5
626.857,1148.4
627.386,1576.2
627.914,1275.6
628.443,1454.9
628.971,1387.7
629.5,1274.3
630.028,1151.1
630.556,1122.3
631.084,996.7
631.613,926.3
632.141,908.0
632.669,897.8
633.197,897.6
633.725,895.9
634.253,892.4
634.781,885.6
635.308,888.8
635.836,892.4
636.364,888.9
636.891,887.8
637.419,887.1
637.947,885.3
638.474,884.5
639.002,887.7
639.529,886.2
640.056,885.6
640.584,883.9
641.111,887.4
641.638,886.7
642.165,886.7
642.692,886.7
643.219,886.2
643.746,886.4
644.273,888.2
644.8,884.2
645.327,886.5
645.854,887.1
646.381,889.2
646.908,891.6
647.434,887.3
647.961,892.1
648.488,891.5
649.014,888.2
649.541,886.0
650.067,890.2
650.594,886.6
651.12,889.2
651.646,888.6
652.173,889.1
652.699,887.4
653.225,889.6
653.752,890.4
654.278,888.8
654.804,891.1
655.33,887.4
655.856,889.1
656.382,887.1
656.908,885.4
657.434,891.2
657.96,891.1
658.486,888.0
659.012,883.3
659.538,886.5
660.064,887.5
660.589,883.0
661.115,883.3
661.641,881.5
662.166,877.0
662.692,879.6
663.086,874.8

File: VLFR_01-LDPE_bio_Raman_d5c1b30b.csv
nm,Intensity
526.508,829.0
527.055,831.2
527.602,829.6
528.149,830.3
528.695,831.1
529.241,829.5
529.787,829.2
530.334,828.2
530.879,829.8
531.425,830.7
531.971,840.1
532.516,832.8
533.062,829.7
533.607,830.6
534.152,854.8
534.697,852.7
535.242,850.2
535.786,850.4
536.331,849.1
536.876,847.0
537.42,847.4
537.964,851.2
538.508,850.1
539.052,847.0
539.596,848.1
540.14,848.9
540.683,850.2
541.227,850.4
541.77,849.8
542.313,847.6
542.856,848.0
543.399,848.9
543.942,849.0
544.485,850.4
545.027,847.8
545.57,850.5
546.112,853.2
546.654,849.8
547.196,850.0
547.738,852.0
548.28,848.2
548.822,849.7
549.363,849.1
549.905,849.8
550.446,849.8
550.988,852.1
551.529,852.3
552.07,850.5
552.611,852.8
553.152,848.5
553.692,852.1
554.233,850.0
554.773,850.0
555.314,851.4
555.854,850.8
556.394,851.6
556.934,851.5
557.474,851.4
558.014,850.1
558.553,852.5
559.093,850.4
559.632,851.0
560.172,850.7
560.711,853.3
561.25,850.8
561.789,853.8
562.328,850.9
562.867,853.2
563.406,853.5
563.944,857.2
564.483,856.4
565.021,856.9
565.559,855.6
566.098,859.3
566.636,855.3
567.174,856.2
567.711,853.6
568.249,853.1
568.787,854.9
569.324,856.0
569.862,857.0
570.399,858.3
570.936,859.4
571.474,864.1
572.011,862.0
572.548,857.1
573.084,859.3
573.621,857.6
574.158,861.9
574.694,861.6
575.231,856.6
575.767,862.9
576.303,868.9
576.84,865.1
577.376,865.3
577.912,858.1
578.447,860.9
578.983,861.2
579.519,860.3
580.054,861.0
580.59,862.2
581.125,861.2
581.661,865.6
582.196,862.3
582.731,863.2
583.266,864.7
583.801,862.4
584.336,863.0
584.87,863.0
585.405,864.3
585.94,865.3
586.474,867.2
587.008,867.1
587.543,866.8
588.077,867.1
588.611,867.9
589.145,866.1
589.679,868.9
590.213,868.7
590.747,869.9
591.28,873.0
591.814,872.4
592.347,873.6
592.881,873.0
593.414,877.2
593.947,876.9
594.48,880.4
595.014,885.2
595.547,887.6
596.079,891.3
596.612,887.2
597.145,894.7
597.678,897.0
598.21,899.6
598.743,898.1
599.275,903.3
599.807,909.9
600.34,910.4
600.872,909.8
601.404,907.3
601.936,906.2
602.468,907.5
603.0,909.5
603.532,902.6
604.063,903.3
604.595,898.9
605.126,896.9
605.658,891.9
606.189,891.2
606.721,887.5
607.252,888.7
607.783,886.2
608.314,885.3
608.845,880.0
609.376,882.7
609.907,878.0
610.438,878.0
610.968,883.4
611.499,880.8
612.03,878.1
612.56,877.4
613.091,878.7
613.621,878.6
614.151,877.0
614.681,877.3
615.212,876.3
615.742,879.5
616.272,873.0
616.802,874.0
617.332,875.2
617.861,875.7
618.391,875.1
618.921,874.1
619.45,872.2
619.98,872.7
620.509,875.5
621.039,869.5
621.568,871.5
622.097,874.1
622.627,874.0
623.156,874.5
623.685,869.8
624.214,869.3
624.743,871.1
625.272,870.6
625.801,870.3
626.33,875.2
626.858,887.7
627.387,937.8
627.916,907.1
628.444,923.6
628.973,911.9
629.501,903.7
630.029,894.9
630.558,892.7
631.086,878.7
631.614,869.4
632.142,869.2
632.67,866.1
633.198,865.4
633.726,865.7
634.254,865.0
634.782,865.6
635.31,866.9
635.838,864.6
636.365,862.0
636.893,863.8
637.421,864.5
637.948,864.6
638.476,864.8
639.003,862.0
639.531,863.2
640.058,862.8
640.585,865.4
641.113,863.7
641.64,866.8
642.167,864.4
642.694,864.4
643.221,865.1
643.748,864.3
644.275,862.6
644.802,864.1
645.329,868.0
645.856,865.5
646.382,864.8
646.909,866.4
647.436,862.9
647.962,866.1
648.489,864.6
649.016,870.8
649.542,867.4
650.069,866.1
650.595,867.5
651.121,870.2
651.648,869.6
652.174,870.6
652.7,869.3
653.227,871.0
653.753,870.8
654.279,870.9
654.805,870.6
655.331,871.0
655.857,870.7
656.383,870.3
656.909,868.4
657.435,870.0
657.961,869.9
658.487,868.3
659.013,867.9
659.538,865.5
660.064,866.4
660.59,867.5
661.116,862.9
661.641,864.4
662.167,864.3
662.692,861.4
663.087,862.8