Folder: MPX_specDB/spectra (part 19)

File: VLFR_01-LDPE_nobio_Raman_3f7c6464.csv
nm,Intensity
528.65,1832.25
529.155,1832.6
529.66,1833.4
530.165,1833.1
530.67,1833.95
531.175,1833.5
531.68,1845.35
532.185,2364.05
532.69,1833.75
533.194,1833.2
533.699,1892.7
534.204,2026.9
534.708,2014.55
535.213,1994.3
535.717,1974.2
536.222,1961.85
536.726,1952.5
537.231,1951.8
537.735,1956.5
538.239,1949.55
538.743,1941.2
539.247,1939.25
539.751,1931.65
540.255,1927.25
540.759,1933.65
541.263,1930.05
541.767,1933.15
542.271,1928.05
542.775,1927.6
543.279,1927.6
543.782,1932.85
544.286,1924.3
544.789,1923.9
545.293,1926.4
545.796,1921.7
546.3,1925.4
546.803,1920.7
547.306,1922.85
547.81,1924.0
548.313,1923.95
548.816,1925.15
549.319,1921.6
549.822,1922.75
550.325,1925.9
550.828,1920.45
551.331,1923.15
551.834,1927.0
552.337,1928.85
552.839,1928.5
553.342,1936.1
553.844,1934.85
554.347,1938.4
554.849,1947.85
555.352,1942.4
555.854,1949.9
556.357,1951.15
556.859,1955.75
557.361,1960.3
557.863,1967.8
558.365,1968.95
558.867,1962.25
559.369,1959.05
559.871,1955.45
560.373,1954.9
560.875,1964.05
561.377,1960.6
561.878,1966.3
562.38,1970.4
562.881,1977.25
563.383,1989.8
563.884,2144.25
564.386,2044.45
564.887,2015.45
565.388,2005.2
565.89,2096.95
566.391,2088.55
566.892,1994.6
567.393,2012.75
567.894,1990.95
568.395,1987.2
568.896,1986.15
569.396,1985.85
569.897,1993.15
570.398,2004.4
570.898,2013.05
571.399,2275.0
571.9,2104.85
572.4,2038.9
572.9,2020.0
573.401,2016.75
573.901,2038.9
574.401,2010.65
574.901,2021.65
575.401,2110.8
575.901,2195.5
576.401,2348.75
576.901,2259.15
577.401,2138.75
577.901,2081.75
578.4,2076.5
578.9,2086.75
579.399,2091.55
579.899,2104.5
580.398,2118.25
580.898,2116.7
581.397,2129.4
581.896,2142.95
582.395,2156.25
582.895,2161.1
583.394,2177.25
583.893,2194.25
584.391,2203.25
584.89,2213.2
585.389,2229.6
585.888,2263.55
586.386,2252.8
586.885,2276.0
587.384,2322.75
587.882,2354.75
588.38,2356.4
588.879,2376.95
589.377,2405.15
589.875,2419.15
590.373,2437.0
590.871,2475.9
591.369,2481.55
591.867,2506.45
592.365,2497.2
592.863,2521.55
593.361,2553.15
593.858,2554.3
594.356,2583.25
594.853,2594.1
595.351,2636.3
595.848,2641.6
596.345,2689.4
596.843,2694.85
597.34,2732.1
597.837,2740.9
598.334,2758.75
598.831,2792.85
599.328,2824.45
599.824,2822.2
600.321,2808.75
600.818,2817.2
601.314,2804.25
601.811,2814.75
602.307,2804.3
602.804,2763.7
603.3,2751.8
603.796,2747.05
604.293,2701.4
604.789,2663.65
605.285,2617.6
605.781,2597.3
606.277,2565.85
606.772,2554.45
607.268,2527.8
607.764,2486.25
608.259,2491.1
608.755,2452.5
609.25,2420.7
609.746,2411.9
610.241,2388.8
610.736,2377.7
611.231,2372.95
611.727,2347.95
612.222,2341.2
612.716,2329.2
613.211,2320.9
613.706,2292.65
614.201,2297.25
614.695,2283.7
615.19,2256.8
615.684,2276.85
616.179,2259.55
616.673,2248.25
617.168,2252.85
617.662,2243.8
618.156,2236.9
618.65,2228.95
619.144,2219.3
619.638,2227.65
620.131,2227.45
620.625,2229.6
621.119,2246.45
621.612,2253.5
622.106,2290.0
622.599,2258.7
623.093,2214.7
623.586,2196.25
624.079,2178.4
624.572,2173.85
625.065,2193.4
625.558,2202.25
626.051,2230.35
626.544,2462.3
627.037,3558.3
627.529,3461.25
628.022,3156.65
628.514,3843.8
629.007,3207.9
629.499,2969.75
629.991,2806.05
630.483,2732.6
630.976,2431.8
631.468,2266.95
631.959,2201.8
632.451,2173.2
632.943,2159.55
633.435,2151.85
633.926,2139.1
634.418,2149.2
634.909,2140.35
635.401,2130.45
635.892,2124.85
636.383,2132.45
636.874,2128.9
637.365,2130.1
637.856,2138.1
638.347,2131.05
638.838,2136.55
639.329,2120.9
639.819,2123.95
640.31,2136.4
640.8,2134.55
641.291,2137.2
641.781,2134.1
642.271,2137.15
642.761,2136.8
643.251,2136.3
643.741,2135.45
644.231,2155.25
644.721,2133.7
645.211,2149.3
645.7,2144.1
646.19,2142.35
646.679,2147.25
647.169,2153.45
647.658,2132.65
648.147,2140.1
648.636,2126.35
649.125,2133.0
649.614,2127.5
650.103,2152.1
650.592,2144.35
651.08,2159.3
651.569,2113.95
652.058,2145.2
652.546,2126.75
653.034,2121.9
653.523,2131.5
654.011,2131.85
654.499,2129.2
654.987,2113.95
655.475,2108.25
655.963,2100.15
656.45,2092.45
656.938,2091.45
657.425,2086.3
657.913,2095.95
658.4,2068.05
658.888,2065.85
659.375,2051.4
659.862,2040.05
660.349,2053.85
660.836,2029.85
661.079,2026.75

File: VLFR_01-LDPE_nobio_Raman_4d1bc6e1.csv
nm,Intensity
526.5,831.1
527.047,829.4
527.594,830.1
528.14,830.3
528.687,830.3
529.233,830.3
529.779,829.4
530.325,828.8
530.871,830.7
531.417,830.5
531.962,836.9
532.508,829.2
533.053,830.3
533.599,830.0
534.144,870.6
534.689,860.7
535.234,855.2
535.778,852.4
536.323,848.0
536.867,846.1
537.412,845.9
537.956,845.6
538.5,844.7
539.044,844.6
539.588,844.1
540.132,841.9
540.675,841.5
541.219,839.6
541.762,841.4
542.305,841.1
542.848,839.7
543.391,841.4
543.934,838.4
544.477,838.6
545.02,838.9
545.562,840.0
546.105,839.0
546.647,837.3
547.189,840.0
547.731,839.9
548.273,839.1
548.815,837.9
549.356,838.7
549.898,838.3
550.439,836.3
550.981,838.8
551.522,839.5
552.063,840.4
552.604,838.2
553.145,838.0
553.686,839.9
554.226,839.7
554.767,840.1
555.307,839.8
555.848,842.9
556.388,844.5
556.928,846.1
557.468,845.9
558.008,849.0
558.547,848.1
559.087,848.8
559.626,846.0
560.166,846.2
560.705,847.7
561.244,847.9
561.783,847.0
562.322,849.4
562.861,852.2
563.4,853.2
563.939,881.6
564.477,866.6
565.015,862.3
565.554,862.1
566.092,902.1
566.63,868.1
567.168,861.4
567.706,863.8
568.244,860.7
568.781,863.7
569.319,866.5
569.857,868.5
570.394,868.2
570.931,872.9
571.468,917.4
572.005,896.7
572.542,887.2
573.079,880.3
573.616,886.5
574.153,894.3
574.689,892.5
575.226,897.0
575.762,929.2
576.298,955.9
576.834,951.6
577.371,939.6
577.907,936.3
578.442,938.7
578.978,948.2
579.514,962.0
580.049,964.7
580.585,975.0
581.12,983.5
581.656,993.7
582.191,1004.2
582.726,1004.6
583.261,1017.6
583.796,1022.4
584.331,1032.8
584.865,1029.5
585.4,1040.4
585.935,1048.1
586.469,1054.5
587.004,1070.1
587.538,1081.4
588.072,1093.5
588.606,1097.9
589.14,1104.8
589.674,1124.0
590.208,1139.0
590.742,1153.7
591.275,1163.7
591.809,1163.3
592.342,1167.7
592.876,1171.0
593.409,1173.2
593.942,1173.3
594.476,1183.3
595.009,1177.9
595.542,1182.2
596.075,1181.0
596.607,1186.8
597.14,1190.2
597.673,1188.8
598.205,1203.1
598.738,1210.0
599.27,1212.3
599.803,1204.0
600.335,1207.1
600.867,1202.1
601.399,1199.5
601.931,1200.7
602.463,1199.3
602.995,1181.5
603.527,1174.2
604.058,1163.3
604.59,1151.8
605.122,1135.8
605.653,1118.9
606.184,1108.5
606.716,1091.9
607.247,1085.7
607.778,1078.7
608.309,1075.7
608.84,1067.4
609.371,1058.3
609.902,1052.8
610.433,1047.0
610.964,1040.3
611.494,1035.2
612.025,1032.4
612.556,1031.7
613.086,1026.4
613.616,1030.4
614.147,1018.8
614.677,1010.7
615.207,1007.0
615.737,1007.9
616.267,1003.6
616.797,1001.6
617.327,999.6
617.857,998.3
618.387,990.5
618.917,990.5
619.446,988.8
619.976,988.3
620.505,978.2
621.035,987.2
621.564,987.3
622.093,992.0
622.623,990.5
623.152,983.3
623.681,977.3
624.21,975.6
624.739,981.8
625.268,980.5
625.797,979.4
626.326,990.7
626.855,1057.5
627.383,1226.1
627.912,1132.7
628.441,1192.4
628.969,1175.4
629.498,1133.5
630.026,1093.4
630.554,1083.3
631.083,1033.7
631.611,1006.2
632.139,996.8
632.667,996.2
633.195,994.4
633.724,991.8
634.252,992.9
634.779,996.5
635.307,995.1
635.835,991.6
636.363,998.8
636.891,995.9
637.418,999.9
637.946,1005.0
638.474,1002.4
639.001,999.6
639.529,1006.7
640.056,1009.5
640.583,1005.7
641.111,1011.7
641.638,1008.5
642.165,1014.0
642.692,1017.9
643.22,1015.7
643.747,1026.3
644.274,1013.1
644.801,1017.7
645.328,1018.1
645.854,1021.5
646.381,1019.3
646.908,1017.2
647.435,1019.5
647.962,1015.0
648.488,1014.1
649.015,1011.8
649.542,1006.7
650.068,1002.1
650.595,1006.3
651.121,1006.7
651.648,1006.7
652.174,1001.1
652.7,1001.9
653.227,1006.8
653.753,999.5
654.279,996.8
654.805,997.9
655.331,998.4
655.858,991.9
656.384,988.4
656.91,985.1
657.436,982.5
657.962,982.8
658.488,984.8
659.013,973.3
659.539,972.9
660.065,963.0
660.591,960.4
661.117,954.2
661.642,949.1
662.168,944.4
662.694,941.7
663.088,936.2

File: VLFR_01-LDPE_nobio_Raman_5b5a77a2.csv
nm,Intensity
526.547,831.7
527.094,832.7
527.641,832.9
528.188,832.3
528.734,832.4
529.281,834.7
529.827,832.8
530.373,833.9
530.92,833.1
531.466,832.8
532.011,840.6
532.557,832.0
533.103,833.4
533.648,833.6
534.193,928.3
534.738,918.9
535.283,900.0
535.828,884.2
536.373,876.8
536.917,872.6
537.462,872.3
538.006,872.5
538.55,868.1
539.094,861.6
539.638,863.0
540.182,860.2
540.726,857.3
541.269,855.2
541.812,857.0
542.356,855.9
542.899,856.2
543.442,855.4
543.985,855.7
544.527,852.7
545.07,853.0
545.612,853.2
546.155,856.2
546.697,852.7
547.239,853.2
547.781,851.6
548.323,853.2
548.865,851.8
549.406,852.8
549.948,849.2
550.489,850.4
551.03,848.5
551.572,850.6
552.113,849.5
552.654,850.4
553.194,852.4
553.735,853.8
554.276,854.4
554.816,854.9
555.356,856.5
555.896,858.9
556.437,858.6
556.977,863.2
557.516,864.4
558.056,867.4
558.596,866.0
559.135,867.6
559.675,863.5
560.214,866.2
560.753,864.5
561.292,866.3
561.831,868.6
562.37,871.2
562.909,876.0
563.448,883.0
563.986,955.1
564.525,903.4
565.063,895.9
565.601,889.3
566.139,963.7
566.677,893.8
567.215,890.2
567.753,893.0
568.291,889.6
568.828,893.8
569.366,897.4
569.903,897.6
570.441,906.5
570.978,922.8
571.515,1049.1
572.052,960.5
572.589,937.5
573.126,938.1
573.662,946.5
574.199,964.0
574.735,963.9
575.272,976.8
575.808,1033.1
576.344,1177.4
576.88,1131.5
577.416,1098.9
577.952,1085.9
578.488,1100.9
579.024,1131.5
579.559,1151.6
580.095,1175.6
580.63,1211.3
581.166,1227.7
581.701,1250.3
582.236,1277.7
582.771,1305.0
583.306,1326.8
583.841,1336.4
584.376,1362.2
584.911,1383.6
585.445,1397.6
585.98,1432.3
586.514,1449.6
587.048,1484.6
587.583,1508.7
588.117,1544.5
588.651,1574.2
589.185,1602.6
589.719,1648.8
590.253,1671.2
590.786,1719.0
591.32,1737.4
591.853,1771.9
592.387,1800.7
592.92,1822.0
593.454,1845.7
593.987,1883.5
594.52,1891.7
595.053,1925.1
595.586,1959.8
596.119,2007.5
596.651,2040.5
597.184,2097.5
597.717,2133.8
598.249,2205.0
598.782,2240.9
599.314,2279.6
599.846,2314.3
600.379,2327.7
600.911,2326.5
601.443,2322.6
601.975,2322.4
602.507,2315.5
603.038,2276.7
603.57,2245.6
604.102,2184.4
604.633,2138.2
605.165,2076.4
605.696,1997.3
606.228,1938.0
606.759,1883.1
607.29,1847.7
607.821,1804.9
608.352,1769.9
608.883,1730.8
609.414,1703.2
609.945,1677.3
610.476,1643.1
611.006,1624.6
611.537,1601.1
612.067,1588.7
612.598,1574.6
613.128,1555.0
613.659,1545.3
614.189,1536.2
614.719,1507.3
615.249,1484.7
615.779,1471.2
616.309,1447.1
616.839,1435.1
617.369,1438.8
617.899,1423.0
618.428,1411.3
618.958,1398.2
619.487,1395.0
620.017,1379.8
620.546,1369.5
621.076,1362.9
621.605,1377.5
622.134,1388.9
622.663,1372.6
623.193,1340.4
623.722,1330.5
624.251,1329.6
624.78,1320.9
625.308,1322.6
625.837,1325.6
626.366,1344.2
626.895,1668.1
627.423,2071.7
627.952,1775.1
628.48,2123.0
629.009,1805.8
629.537,1688.2
630.065,1582.0
630.594,1547.4
631.122,1404.1
631.65,1324.3
632.178,1306.3
632.706,1290.6
633.234,1282.3
633.762,1280.4
634.29,1269.4
634.818,1281.6
635.346,1284.1
635.873,1290.0
636.401,1283.9
636.929,1294.2
637.456,1287.1
637.984,1300.7
638.511,1304.7
639.039,1302.0
639.566,1309.4
640.093,1317.1
640.62,1322.2
641.148,1338.5
641.675,1336.0
642.202,1348.5
642.729,1352.0
643.256,1361.7
643.783,1358.6
644.31,1362.7
644.837,1364.3
645.364,1371.9
645.891,1374.9
646.417,1380.4
646.944,1387.4
647.471,1395.2
647.997,1398.5
648.524,1403.2
649.051,1402.3
649.577,1394.2
650.104,1411.7
650.63,1412.6
651.157,1417.5
651.683,1423.2
652.209,1432.8
652.736,1433.1
653.262,1449.5
653.788,1443.1
654.314,1439.4
654.84,1448.8
655.366,1446.1
655.893,1439.6
656.419,1435.0
656.945,1418.3
657.471,1412.8
657.997,1389.0
658.522,1387.3
659.048,1367.7
659.574,1344.7
660.1,1333.5
660.626,1311.0
661.152,1287.8
661.677,1277.7
662.203,1252.5
662.729,1233.8
663.123,1222.1

File: VLFR_01-LDPE_nobio_Raman_5b8f31a8.csv
nm,Intensity
526.5,829.9
527.047,829.6
527.594,828.8
528.14,829.4
528.687,830.1
529.233,829.6
529.779,829.3
530.325,828.0
530.871,828.9
531.417,828.8
531.962,838.0
532.508,832.9
533.053,828.8
533.599,830.4
534.144,859.4
534.689,850.6
535.234,846.7
535.778,842.6
536.323,841.3
536.867,840.6
537.412,839.0
537.956,839.9
538.5,839.1
539.044,837.8
539.588,836.9
540.132,836.5
540.675,835.5
541.219,836.4
541.762,835.1
542.305,835.9
542.848,834.6
543.391,835.7
543.934,836.4
544.477,835.0
545.02,833.9
545.562,835.1
546.105,834.4
546.647,834.6
547.189,833.6
547.731,833.6
548.273,832.9
548.815,832.9
549.356,835.1
549.898,833.7
550.439,832.4
550.981,833.0
551.522,833.7
552.063,833.3
552.604,833.2
553.145,834.6
553.686,833.5
554.226,835.5
554.767,834.0
555.307,836.6
555.848,837.7
556.388,838.4
556.928,836.7
557.468,839.6
558.008,840.6
558.547,838.6
559.087,839.6
559.626,837.4
560.166,836.8
560.705,836.0
561.244,838.2
561.783,835.7
562.322,839.1
562.861,839.2
563.4,842.8
563.939,863.0
564.477,851.3
565.015,846.6
565.554,843.7
566.092,879.5
566.63,847.5
567.168,841.5
567.706,843.2
568.244,841.3
568.781,841.3
569.319,842.2
569.857,843.2
570.394,844.6
570.931,847.7
571.468,887.6
572.005,862.0
572.542,850.5
573.079,848.8
573.616,850.0
574.153,854.2
574.689,850.4
575.226,854.3
575.762,875.1
576.298,900.2
576.834,887.3
577.371,877.0
577.907,865.9
578.442,868.8
578.978,873.5
579.514,875.4
580.049,878.8
580.585,880.9
581.12,889.6
581.656,891.2
582.191,897.3
582.726,902.0
583.261,907.8
583.796,912.9
584.331,922.1
584.865,922.5
585.4,929.3
585.935,928.0
586.469,939.5
587.004,943.8
587.538,951.6
588.072,955.2
588.606,959.7
589.14,964.8
589.674,971.2
590.208,977.5
590.742,979.5
591.275,986.4
591.809,990.0
592.342,993.2
592.876,996.6
593.409,996.5
593.942,994.2
594.476,999.1
595.009,1006.4
595.542,1000.6
596.075,1006.5
596.607,1010.8
597.14,1015.3
597.673,1022.2
598.205,1023.4
598.738,1025.9
599.27,1022.2
599.803,1033.3
600.335,1030.5
600.867,1029.7
601.399,1029.9
601.931,1031.4
602.463,1025.1
602.995,1021.1
603.527,1015.8
604.058,1011.0
604.59,1000.2
605.122,992.9
605.653,981.7
606.184,980.0
606.716,969.7
607.247,964.8
607.778,961.6
608.309,957.2
608.84,952.2
609.371,946.9
609.902,943.8
610.433,941.6
610.964,936.8
611.494,934.5
612.025,937.3
612.556,929.5
613.086,930.3
613.616,930.7
614.147,928.4
614.677,927.2
615.207,920.0
615.737,917.8
616.267,919.0
616.797,913.3
617.327,915.7
617.857,915.1
618.387,916.0
618.917,914.8
619.446,908.1
619.976,907.2
620.505,908.2
621.035,904.9
621.564,910.2
622.093,913.3
622.623,920.4
623.152,906.1
623.681,906.0
624.21,906.0
624.739,902.5
625.268,904.0
625.797,904.7
626.326,912.8
626.855,974.6
627.383,1112.6
627.912,1029.6
628.441,1084.1
628.969,1065.6
629.498,1039.0
630.026,996.1
630.554,993.2
631.083,949.1
631.611,924.0
632.139,915.1
632.667,915.0
633.195,914.7
633.724,910.9
634.252,912.4
634.779,911.9
635.307,912.9
635.835,912.6
636.363,909.2
636.891,913.2
637.418,915.5
637.946,912.6
638.474,919.1
639.001,923.0
639.529,921.1
640.056,920.2
640.583,922.2
641.111,926.1
641.638,924.2
642.165,927.2
642.692,932.0
643.22,925.6
643.747,926.5
644.274,924.6
644.801,927.7
645.328,926.3
645.854,930.8
646.381,925.5
646.908,926.8
647.435,929.0
647.962,928.3
648.488,927.3
649.015,923.6
649.542,922.6
650.068,925.8
650.595,925.3
651.121,927.0
651.648,928.9
652.174,927.1
652.7,926.2
653.227,925.4
653.753,926.2
654.279,928.9
654.805,923.4
655.331,926.5
655.858,924.5
656.384,920.4
656.91,920.5
657.436,922.6
657.962,919.0
658.488,913.6
659.013,913.7
659.539,911.8
660.065,906.9
660.591,906.4
661.117,901.6
661.642,899.7
662.168,895.7
662.694,890.3
663.088,891.3

File: VLFR_01-LDPE_nobio_Raman_5ba647d8.csv
nm,Intensity
526.532,830.3
527.079,829.6
527.625,830.3
528.172,829.033
528.718,829.467
529.265,829.533
529.811,830.5
530.357,830.467
530.903,829.9
531.449,829.667
531.994,840.533
532.54,831.167
533.085,830.0
533.63,831.967
534.176,906.567
534.721,891.933
535.266,877.167
535.81,866.867
536.355,860.867
536.9,860.067
537.444,858.967
537.988,858.633
538.533,856.6
539.077,854.533
539.621,851.167
540.165,849.4
540.708,847.667
541.252,847.3
541.795,847.4
542.339,845.8
542.882,846.667
543.425,845.767
543.968,845.767
544.511,845.0
545.054,845.0
545.597,843.9
546.139,845.4
546.682,844.733
547.224,842.867
547.766,844.667
548.308,842.767
548.85,842.267
549.392,843.0
549.934,843.933
550.475,842.6
551.017,842.067
551.558,842.367
552.1,843.567
552.641,843.6
553.182,844.567
553.723,846.333
554.264,845.633
554.804,848.167
555.345,848.1
555.885,849.067
556.426,850.0
556.966,854.467
557.506,856.033
558.046,859.233
558.586,858.967
559.126,856.933
559.665,854.167
560.205,851.8
560.745,852.633
561.284,853.467
561.823,854.633
562.362,855.467
562.901,860.167
563.44,864.1
563.979,940.067
564.518,887.433
565.056,877.933
565.595,872.633
566.133,972.7
566.671,875.067
567.21,867.6
567.748,868.667
568.285,864.633
568.823,865.067
569.361,865.333
569.899,869.167
570.436,875.1
570.974,884.267
571.511,1019.77
572.048,916.7
572.585,893.167
573.122,888.067
573.659,889.633
574.196,900.067
574.733,896.667
575.269,907.467
575.806,961.8
576.342,1048.33
576.878,1006.23
577.414,974.967
577.951,953.1
578.486,959.967
579.022,970.733
579.558,985.133
580.094,994.033
580.629,1008.5
581.165,1017.53
581.7,1027.8
582.236,1042.63
582.771,1056.27
583.306,1065.97
583.841,1074.7
584.376,1082.43
584.911,1091.2
585.445,1101.03
585.98,1113.43
586.514,1123.77
587.049,1136.67
587.583,1151.37
588.117,1158.7
588.651,1174.87
589.186,1182.4
589.72,1191.1
590.253,1211.4
590.787,1220.23
591.321,1233.53
591.854,1242.77
592.388,1247.83
592.921,1246.67
593.455,1252.17
593.988,1255.03
594.521,1263.27
595.054,1276.47
595.587,1276.5
596.12,1286.4
596.653,1295.63
597.186,1307.23
597.718,1316.33
598.251,1330.53
598.783,1345.63
599.316,1352.8
599.848,1362.6
600.38,1360.93
600.912,1360.7
601.444,1359.0
601.976,1353.7
602.508,1343.43
603.04,1329.03
603.572,1315.17
604.103,1294.93
604.635,1276.27
605.167,1254.97
605.698,1234.87
606.229,1218.23
606.761,1196.57
607.292,1188.77
607.823,1171.1
608.354,1165.0
608.885,1151.97
609.416,1138.23
609.947,1124.33
610.477,1116.07
611.008,1115.93
611.539,1106.33
612.069,1098.53
612.6,1090.77
613.13,1089.0
613.66,1085.5
614.19,1077.2
614.721,1072.13
615.251,1064.77
615.781,1057.37
616.311,1054.4
616.841,1051.67
617.37,1047.67
617.9,1046.87
618.43,1040.93
618.96,1040.6
619.489,1037.53
620.019,1037.83
620.548,1035.13
621.077,1035.47
621.607,1042.0
622.136,1058.33
622.665,1057.7
623.194,1033.9
623.723,1030.33
624.252,1027.37
624.781,1025.67
625.31,1030.5
625.839,1035.2
626.368,1062.8
626.896,1286.63
627.425,1678.03
627.953,1422.77
628.482,1673.97
629.01,1541.2
629.539,1424.67
630.067,1332.63
630.596,1304.63
631.124,1161.5
631.652,1093.4
632.18,1065.17
632.708,1054.13
633.236,1049.17
633.764,1043.33
634.292,1045.43
634.82,1047.9
635.348,1045.13
635.876,1046.83
636.403,1047.73
636.931,1047.17
637.459,1046.77
637.986,1048.93
638.514,1050.53
639.041,1050.93
639.568,1055.07
640.096,1052.27
640.623,1058.8
641.15,1062.3
641.678,1063.67
642.205,1065.87
642.732,1065.23
643.259,1064.33
643.786,1066.57
644.313,1067.5
644.84,1068.2
645.367,1069.77
645.894,1068.97
646.421,1070.53
646.948,1069.73
647.474,1068.47
648.001,1069.53
648.528,1064.03
649.054,1066.33
649.581,1065.63
650.108,1064.8
650.634,1066.93
651.161,1061.37
651.687,1067.17
652.214,1068.7
652.74,1070.27
653.266,1068.93
653.793,1067.5
654.319,1064.47
654.845,1066.8
655.371,1065.07
655.897,1065.27
656.424,1055.77
656.95,1053.87
657.476,1051.07
658.002,1042.53
658.528,1038.63
659.054,1034.2
659.58,1030.53
660.106,1020.9
660.631,1012.97
661.157,1005.9
661.683,999.8
662.209,991.667
662.735,985.867
663.129,981.133

File: VLFR_01-LDPE_nobio_Raman_5c0cfc36.csv
nm,Intensity
526.5,829.9
527.047,829.0
527.594,830.6
528.14,830.4
528.687,829.9
529.233,829.7
529.779,829.7
530.325,830.3
530.871,829.1
531.417,830.5
531.962,835.8
532.508,831.2
533.053,830.4
533.599,830.1
534.144,901.9
534.689,888.8
535.234,875.6
535.778,866.5
536.323,860.5
536.867,860.0
537.412,854.9
537.956,857.6
538.5,854.9
539.044,851.1
539.588,849.4
540.132,847.9
540.675,846.7
541.219,843.8
541.762,846.8
542.305,845.8
542.848,845.4
543.391,844.2
543.934,845.4
544.477,845.1
545.02,841.7
545.562,842.7
546.105,843.9
546.647,843.8
547.189,843.4
547.731,843.3
548.273,842.2
548.815,843.2
549.356,842.5
549.898,842.4
550.439,841.9
550.981,841.7
551.522,842.1
552.063,842.0
552.604,841.9
553.145,843.8
553.686,846.5
554.226,848.4
554.767,847.5
555.307,847.1
555.848,849.9
556.388,851.6
556.928,852.9
557.468,854.3
558.008,855.5
558.547,856.6
559.087,855.5
559.626,855.1
560.166,854.2
560.705,858.0
561.244,854.4
561.783,857.0
562.322,860.0
562.861,863.5
563.4,869.9
563.939,915.9
564.477,887.9
565.015,883.6
565.554,879.5
566.092,951.6
566.63,885.3
567.168,878.2
567.706,879.2
568.244,879.9
568.781,878.7
569.319,887.2
569.857,886.3
570.394,891.7
570.931,902.4
571.468,993.9
572.005,936.5
572.542,916.6
573.079,910.6
573.616,918.0
574.153,933.3
574.689,927.4
575.226,936.8
575.762,997.0
576.298,1057.9
576.834,1032.6
577.371,1015.9
577.907,994.3
578.442,1005.8
578.978,1021.7
579.514,1038.6
580.049,1056.2
580.585,1073.0
581.12,1100.4
581.656,1112.6
582.191,1136.5
582.726,1159.8
583.261,1174.0
583.796,1188.1
584.331,1203.0
584.865,1213.4
585.4,1234.4
585.935,1249.0
586.469,1262.1
587.004,1289.7
587.538,1293.3
588.072,1310.9
588.606,1322.8
589.14,1337.7
589.674,1356.8
590.208,1371.5
590.742,1382.0
591.275,1407.4
591.809,1411.3
592.342,1420.7
592.876,1419.4
593.409,1422.4
593.942,1412.9
594.476,1427.7
595.009,1425.2
595.542,1434.4
596.075,1435.6
596.607,1435.3
597.14,1442.2
597.673,1446.3
598.205,1453.9
598.738,1462.5
599.27,1467.4
599.803,1468.8
600.335,1470.8
600.867,1467.4
601.399,1459.3
601.931,1453.9
602.463,1441.5
602.995,1435.4
603.527,1416.8
604.058,1395.2
604.59,1379.3
605.122,1357.6
605.653,1332.0
606.184,1311.0
606.716,1288.9
607.247,1273.2
607.778,1262.3
608.309,1254.2
608.84,1248.3
609.371,1220.7
609.902,1219.8
610.433,1201.7
610.964,1194.7
611.494,1190.3
612.025,1183.7
612.556,1182.6
613.086,1178.9
613.616,1168.9
614.147,1160.2
614.677,1153.2
615.207,1139.3
615.737,1133.6
616.267,1137.4
616.797,1125.1
617.327,1125.3
617.857,1116.3
618.387,1108.1
618.917,1108.9
619.446,1106.5
619.976,1105.5
620.505,1099.4
621.035,1097.9
621.564,1101.6
622.093,1113.8
622.623,1113.9
623.152,1102.0
623.681,1087.3
624.21,1084.0
624.739,1084.4
625.268,1083.2
625.797,1091.8
626.326,1106.7
626.855,1269.6
627.383,1620.0
627.912,1422.2
628.441,1548.4
628.969,1519.6
629.498,1419.5
630.026,1338.3
630.554,1324.9
631.083,1211.3
631.611,1142.1
632.139,1121.9
632.667,1120.4
633.195,1114.7
633.724,1105.8
634.252,1116.7
634.779,1114.8
635.307,1121.0
635.835,1125.8
636.363,1123.7
636.891,1125.6
637.418,1132.9
637.946,1122.1
638.474,1128.6
639.001,1135.1
639.529,1143.0
640.056,1143.2
640.583,1145.7
641.111,1151.9
641.638,1152.8
642.165,1160.4
642.692,1154.1
643.22,1162.5
643.747,1158.1
644.274,1165.1
644.801,1159.4
645.328,1156.0
645.854,1150.4
646.381,1155.4
646.908,1162.7
647.435,1157.2
647.962,1149.1
648.488,1143.2
649.015,1147.5
649.542,1142.0
650.068,1137.4
650.595,1130.6
651.121,1135.8
651.648,1139.1
652.174,1132.0
652.7,1130.9
653.227,1133.9
653.753,1128.6
654.279,1126.3
654.805,1127.9
655.331,1118.4
655.858,1114.1
656.384,1108.4
656.91,1112.5
657.436,1105.2
657.962,1098.0
658.488,1090.8
659.013,1080.3
659.539,1078.8
660.065,1068.3
660.591,1062.6
661.117,1051.7
661.642,1042.3
662.168,1032.5
662.694,1027.3
663.088,1028.1