Folder: MPX_specDB/spectra (part 50)

File: VLFR_02-HDPE_bio_Raman_d481c8c0.csv
nm,Intensity
528.629,1850.8
529.134,1851.2
529.639,1851.05
530.145,1849.15
530.65,1852.2
531.155,1851.1
531.66,1874.55
532.165,2727.55
532.67,1851.75
533.175,1850.4
533.68,1874.8
534.185,1922.7
534.69,1922.85
535.195,1915.2
535.699,1900.35
536.204,1890.3
536.709,1890.1
537.213,1891.0
537.718,1889.0
538.222,1890.0
538.727,1890.65
539.231,1887.9
539.735,1886.1
540.239,1885.35
540.744,1886.45
541.248,1882.7
541.752,1883.05
542.256,1885.75
542.76,1887.55
543.264,1886.95
543.768,1885.9
544.271,1884.85
544.775,1884.05
545.279,1884.3
545.783,1886.8
546.286,1886.3
546.79,1888.25
547.293,1886.2
547.797,1887.95
548.3,1890.65
548.803,1888.45
549.306,1888.45
549.81,1887.7
550.313,1887.95
550.816,1892.05
551.319,1891.4
551.822,1891.45
552.325,1889.7
552.828,1891.3
553.33,1892.2
553.833,1894.75
554.336,1896.7
554.838,1895.85
555.341,1893.05
555.843,1900.15
556.346,1900.7
556.848,1902.2
557.35,1907.3
557.853,1909.45
558.355,1910.65
558.857,1912.6
559.359,1909.05
559.861,1904.9
560.363,1904.1
560.865,1904.4
561.367,1904.3
561.869,1907.5
562.37,1910.2
562.872,1915.7
563.374,1919.85
563.875,2034.35
564.376,1944.15
564.878,1928.85
565.379,1933.6
565.881,2027.8
566.382,2035.35
566.883,1924.65
567.384,1943.85
567.885,1922.2
568.386,1916.55
568.887,1919.5
569.388,1915.0
569.888,1918.35
570.389,1923.0
570.89,1932.1
571.39,2124.4
571.891,1963.6
572.391,1931.3
572.892,1917.85
573.392,1920.85
573.892,1934.25
574.393,1921.0
574.893,1921.2
575.393,2046.1
575.893,2014.65
576.393,2055.0
576.893,2013.9
577.392,1959.3
577.892,1930.95
578.392,1923.05
578.891,1921.25
579.391,1923.85
579.89,1920.05
580.39,1921.0
580.889,1921.35
581.388,1916.1
581.888,1919.05
582.387,1914.0
582.886,1918.65
583.385,1912.2
583.884,1914.7
584.383,1908.4
584.881,1916.9
585.38,1909.1
585.879,1916.15
586.377,1914.9
586.876,1913.45
587.374,1912.55
587.873,1913.85
588.371,1909.15
588.869,1915.2
589.368,1910.05
589.866,1911.85
590.364,1915.7
590.862,1914.55
591.36,1908.75
591.857,1916.0
592.355,1913.35
592.853,1917.85
593.35,1911.45
593.848,1916.3
594.345,1915.2
594.843,1918.15
595.34,1922.35
595.837,1920.25
596.335,1921.9
596.832,1922.4
597.329,1921.2
597.826,1920.85
598.323,1922.35
598.819,1925.55
599.316,1926.55
599.813,1927.05
600.309,1925.65
600.806,1917.65
601.302,1922.8
601.799,1929.3
602.295,1926.3
602.791,1926.6
603.288,1926.9
603.784,1923.9
604.28,1924.35
604.776,1928.65
605.272,1925.25
605.767,1921.75
606.263,1920.75
606.759,1920.25
607.254,1921.55
607.75,1923.25
608.245,1921.1
608.74,1925.15
609.236,1920.45
609.731,1920.3
610.226,1917.95
610.721,1925.1
611.216,1927.9
611.711,1928.65
612.206,1922.25
612.7,1923.4
613.195,1917.35
613.69,1917.6
614.184,1919.1
614.679,1921.2
615.173,1916.6
615.667,1923.6
616.161,1920.75
616.656,1920.55
617.15,1933.4
617.644,1931.05
618.137,1930.1
618.631,1931.15
619.125,1935.95
619.619,1940.65
620.112,1930.95
620.606,1939.35
621.099,1950.0
621.592,1970.25
622.086,1993.25
622.579,1982.6
623.072,1945.85
623.565,1940.7
624.058,1936.0
624.551,1939.85
625.043,1939.95
625.536,1945.85
626.029,1972.5
626.521,2129.8
627.014,2933.7
627.506,2743.35
627.998,2554.0
628.49,3042.25
628.983,2489.3
629.475,2384.75
629.966,2232.8
630.458,2218.45
630.95,2068.15
631.442,1968.0
631.933,1945.95
632.425,1933.45
632.916,1927.8
633.408,1923.9
633.899,1921.05
634.39,1919.45
634.881,1915.25
635.372,1919.45
635.863,1910.55
636.354,1913.8
636.845,1910.1
637.336,1908.35
637.826,1906.25
638.317,1905.3
638.807,1901.25
639.298,1902.15
639.788,1901.9
640.278,1904.35
640.768,1903.2
641.258,1899.5
641.748,1900.2
642.238,1897.5
642.728,1899.15
643.217,1897.45
643.707,1898.3
644.197,1898.15
644.686,1893.0
645.175,1897.05
645.664,1894.2
646.154,1900.5
646.643,1899.75
647.132,1899.0
647.621,1898.8
648.109,1898.85
648.598,1897.2
649.087,1892.8
649.575,1893.85
650.064,1893.45
650.552,1894.2
651.04,1891.9
651.528,1896.2
652.017,1892.5
652.505,1892.55
652.992,1894.25
653.48,1889.95
653.968,1892.55
654.456,1890.6
654.943,1890.7
655.431,1890.25
655.918,1888.7
656.405,1889.75
656.893,1888.95
657.38,1891.65
657.867,1886.85
658.354,1885.4
658.84,1887.85
659.327,1886.8
659.814,1891.95
660.3,1883.65
660.787,1884.35
661.03,1886.3

File: VLFR_02-HDPE_bio_Raman_d980c7a0.csv
nm,Intensity
526.495,830.0
527.042,829.3
527.589,827.9
528.136,829.5
528.682,828.2
529.229,829.2
529.775,829.7
530.321,830.1
530.867,829.6
531.413,828.6
531.959,831.9
532.505,829.9
533.051,830.2
533.596,827.1
534.141,850.0
534.687,851.0
535.232,846.3
535.777,844.6
536.321,842.0
536.866,840.5
537.41,843.0
537.955,842.6
538.499,841.0
539.043,843.4
539.587,841.3
540.131,839.1
540.675,839.0
541.219,840.4
541.762,839.0
542.305,841.1
542.849,841.5
543.392,840.7
543.935,842.3
544.478,840.4
545.02,842.9
545.563,842.4
546.106,842.3
546.648,840.1
547.19,840.7
547.732,841.7
548.274,841.3
548.816,841.6
549.358,842.6
549.9,841.1
550.441,842.4
550.983,840.1
551.524,841.1
552.065,841.3
552.606,842.0
553.147,842.1
553.688,842.3
554.229,844.5
554.769,842.9
555.31,842.4
555.85,841.9
556.391,842.2
556.931,844.0
557.471,842.9
558.011,845.1
558.551,843.2
559.09,842.5
559.63,844.5
560.169,845.8
560.709,844.0
561.248,844.8
561.787,847.4
562.326,844.8
562.865,844.8
563.404,848.1
563.943,857.3
564.481,849.1
565.02,846.0
565.558,845.6
566.096,857.2
566.634,849.5
567.172,847.8
567.71,849.0
568.248,847.5
568.786,847.6
569.324,849.1
569.861,847.4
570.399,849.7
570.936,849.9
571.473,877.5
572.01,855.1
572.547,849.3
573.084,850.5
573.621,848.3
574.158,849.0
574.694,850.2
575.231,847.7
575.767,854.0
576.303,880.8
576.84,867.5
577.376,861.3
577.912,850.4
578.448,851.9
578.984,854.2
579.519,850.9
580.055,850.3
580.59,851.6
581.126,851.3
581.661,853.7
582.196,854.8
582.731,854.6
583.267,854.0
583.801,853.6
584.336,856.6
584.871,856.0
585.406,858.0
585.94,859.3
586.475,863.8
587.009,863.2
587.543,863.6
588.078,866.2
588.612,865.3
589.146,866.8
589.68,867.5
590.214,869.3
590.747,870.5
591.281,872.0
591.815,870.2
592.348,871.2
592.881,868.9
593.415,868.4
593.948,867.4
594.481,870.9
595.014,868.9
595.547,868.5
596.08,867.9
596.613,870.0
597.146,865.0
597.678,867.3
598.211,868.2
598.743,868.1
599.276,868.1
599.808,867.7
600.34,866.7
600.872,865.5
601.404,865.4
601.936,869.0
602.468,866.0
603.0,867.2
603.532,865.8
604.064,866.0
604.595,864.2
605.127,865.6
605.658,863.9
606.189,864.0
606.721,862.4
607.252,862.8
607.783,862.3
608.314,861.5
608.845,864.0
609.376,862.3
609.907,860.3
610.438,861.2
610.968,861.0
611.499,861.0
612.029,860.4
612.56,861.2
613.09,863.8
613.621,859.9
614.151,860.1
614.681,861.7
615.211,861.1
615.741,858.4
616.271,861.2
616.801,858.7
617.331,864.2
617.861,862.7
618.39,858.7
618.92,862.0
619.45,860.7
619.979,861.9
620.509,863.5
621.038,861.8
621.567,868.8
622.096,873.8
622.626,872.6
623.155,866.7
623.684,864.7
624.213,865.4
624.742,861.8
625.271,865.0
625.799,866.0
626.328,868.2
626.857,933.7
627.386,1025.8
627.914,949.7
628.443,1002.2
628.971,972.3
629.5,938.7
630.028,913.3
630.556,906.8
631.084,880.7
631.613,867.8
632.141,867.0
632.669,864.7
633.197,866.8
633.725,865.9
634.253,861.3
634.781,863.6
635.308,860.4
635.836,864.0
636.364,864.2
636.891,863.5
637.419,862.0
637.947,864.3
638.474,864.3
639.002,860.8
639.529,866.3
640.056,862.7
640.584,862.9
641.111,864.4
641.638,866.5
642.165,867.7
642.692,863.4
643.219,861.4
643.746,864.1
644.273,864.7
644.8,860.8
645.327,860.4
645.854,862.0
646.381,862.5
646.908,862.7
647.434,861.9
647.961,861.4
648.488,863.2
649.014,860.2
649.541,859.9
650.067,860.0
650.594,862.7
651.12,859.1
651.646,859.9
652.173,860.7
652.699,861.1
653.225,859.0
653.752,861.9
654.278,856.9
654.804,857.9
655.33,858.5
655.856,857.3
656.382,857.2
656.908,858.1
657.434,856.6
657.96,855.2
658.486,855.8
659.012,857.8
659.538,856.9
660.064,856.1
660.589,855.4
661.115,855.9
661.641,853.2
662.166,853.6
662.692,854.3
663.086,852.6

File: VLFR_02-HDPE_bio_Raman_d7708473.csv
nm,Intensity
526.549,831.85
527.096,832.15
527.643,831.7
528.19,831.7
528.737,832.65
529.283,831.7
529.83,832.55
530.376,831.35
530.922,832.05
531.468,831.0
532.014,843.25
532.559,832.3
533.105,832.05
533.65,832.55
534.196,881.55
534.741,875.25
535.286,871.1
535.83,860.8
536.375,858.2
536.92,855.1
537.464,855.1
538.008,855.55
538.553,852.95
539.097,850.15
539.641,850.6
540.184,849.5
540.728,847.85
541.271,850.65
541.815,850.25
542.358,848.7
542.901,847.2
543.444,849.05
543.987,849.7
544.53,847.75
545.072,848.95
545.615,848.45
546.157,848.9
546.699,848.5
547.242,849.05
547.784,848.5
548.325,848.8
548.867,848.4
549.409,848.75
549.95,847.8
550.492,849.65
551.033,848.45
551.574,850.05
552.115,848.95
552.656,850.3
553.197,849.9
553.737,852.75
554.278,852.65
554.818,850.8
555.358,852.8
555.899,853.9
556.439,854.15
556.979,855.75
557.518,856.05
558.058,858.45
558.598,858.05
559.137,857.75
559.677,856.05
560.216,855.0
560.755,857.05
561.294,855.75
561.833,855.95
562.372,858.8
562.91,858.6
563.449,861.3
563.987,926.45
564.526,871.1
565.064,867.65
565.602,866.8
566.14,969.6
566.678,869.65
567.216,862.55
567.754,861.75
568.291,859.25
568.829,858.0
569.366,860.65
569.904,860.45
570.441,863.95
570.978,867.8
571.515,1008.05
572.052,878.95
572.589,866.35
573.125,862.6
573.662,862.4
574.199,867.85
574.735,861.65
575.271,867.75
575.807,900.45
576.344,950.2
576.88,916.7
577.415,895.4
577.951,872.2
578.487,866.85
579.023,867.85
579.558,868.3
580.094,868.75
580.629,871.95
581.164,871.4
581.699,873.3
582.234,877.1
582.769,876.4
583.304,881.5
583.839,880.5
584.374,884.6
584.908,884.65
585.443,885.3
585.977,886.3
586.511,890.2
587.046,889.4
587.58,887.8
588.114,888.5
588.648,888.45
589.182,887.2
589.716,887.3
590.249,890.45
590.783,892.1
591.316,891.15
591.85,892.75
592.383,892.6
592.917,894.6
593.45,893.7
593.983,892.55
594.516,895.75
595.049,893.45
595.582,895.65
596.115,895.95
596.647,896.5
597.18,897.35
597.712,895.85
598.245,895.5
598.777,896.5
599.31,897.5
599.842,899.45
600.374,894.25
600.906,895.05
601.438,895.15
601.97,899.45
602.502,896.8
603.034,894.1
603.565,893.85
604.097,894.15
604.628,894.3
605.16,891.25
605.691,890.3
606.223,892.15
606.754,889.2
607.285,889.85
607.816,889.15
608.347,888.9
608.878,891.15
609.409,889.35
609.94,890.2
610.47,888.55
611.001,891.3
611.532,890.3
612.062,888.0
612.593,886.35
613.123,885.55
613.653,885.45
614.184,887.6
614.714,885.65
615.244,886.85
615.774,887.05
616.304,886.5
616.834,891.05
617.364,891.0
617.894,888.45
618.423,890.4
618.953,887.65
619.482,891.4
620.012,891.0
620.541,891.9
621.071,896.9
621.6,905.55
622.13,926.35
622.659,918.45
623.188,898.95
623.717,891.25
624.246,891.2
624.775,890.95
625.304,892.8
625.833,899.45
626.362,926.1
626.89,1155.6
627.419,1452.0
627.948,1220.95
628.476,1425.85
629.005,1232.25
629.533,1160.2
630.061,1084.2
630.59,1057.2
631.118,961.85
631.646,911.85
632.175,900.25
632.703,893.45
633.231,889.9
633.759,888.3
634.287,888.7
634.815,888.05
635.342,885.25
635.87,885.3
636.398,887.25
636.926,884.75
637.453,881.2
637.981,881.35
638.509,881.95
639.036,882.3
639.563,879.75
640.091,880.0
640.618,879.35
641.146,880.0
641.673,881.5
642.2,881.65
642.727,880.45
643.254,880.95
643.781,878.95
644.309,880.5
644.836,880.0
645.362,878.25
645.889,880.0
646.416,877.1
646.943,879.35
647.47,877.05
647.997,879.6
648.523,877.45
649.05,878.4
649.577,877.15
650.103,878.3
650.63,876.15
651.156,874.75
651.683,875.6
652.209,877.35
652.735,874.0
653.262,873.9
653.788,875.4
654.314,876.45
654.841,874.85
655.367,874.6
655.893,872.7
656.419,871.65
656.945,872.2
657.471,873.35
657.997,872.35
658.523,872.3
659.049,872.6
659.575,873.45
660.101,874.85
660.627,872.25
661.153,871.7
661.679,870.15
662.205,869.3
662.731,871.35
663.125,868.35

File: VLFR_02-HDPE_bio_Raman_da0a41ad.csv
nm,Intensity
526.508,827.3
527.055,829.1
527.602,826.6
528.149,826.8
528.695,829.8
529.241,827.6
529.787,828.6
530.334,828.0
530.879,827.6
531.425,827.9
531.971,836.6
532.516,829.4
533.062,827.1
533.607,827.3
534.152,891.1
534.697,884.0
535.242,872.1
535.786,865.3
536.331,859.4
536.876,858.2
537.42,858.9
537.964,856.8
538.508,855.9
539.052,851.3
539.596,851.5
540.14,849.8
540.683,848.7
541.227,848.9
541.77,848.7
542.313,849.8
542.856,845.8
543.399,844.7
543.942,845.8
544.485,847.0
545.027,844.7
545.57,845.6
546.112,843.8
546.654,844.7
547.196,844.9
547.738,845.9
548.28,844.0
548.822,846.3
549.363,845.1
549.905,844.7
550.446,844.2
550.988,846.8
551.529,845.1
552.07,843.6
552.611,845.5
553.152,844.7
553.692,847.3
554.233,845.6
554.773,846.2
555.314,850.5
555.854,849.5
556.394,850.7
556.934,849.7
557.474,852.1
558.014,857.0
558.553,856.3
559.093,855.3
559.632,854.2
560.172,854.0
560.711,854.7
561.25,855.2
561.789,855.6
562.328,859.2
562.867,862.6
563.406,865.8
563.944,925.2
564.483,878.8
565.021,872.4
565.559,876.1
566.098,985.3
566.636,875.3
567.174,868.0
567.711,867.1
568.249,864.3
568.787,861.8
569.324,860.9
569.862,865.1
570.399,867.4
570.936,870.3
571.474,968.2
572.011,887.8
572.548,871.9
573.084,865.6
573.621,865.2
574.158,870.5
574.694,863.7
575.231,871.4
575.767,931.9
576.303,935.3
576.84,915.6
577.376,892.6
577.912,868.2
578.447,863.5
578.983,864.4
579.519,865.7
580.054,867.1
580.59,868.6
581.125,864.7
581.661,868.9
582.196,867.1
582.731,869.4
583.266,874.3
583.801,876.8
584.336,875.9
584.87,881.5
585.405,880.1
585.94,884.7
586.474,887.5
587.008,888.7
587.543,890.9
588.077,888.1
588.611,888.3
589.145,890.0
589.679,892.1
590.213,889.9
590.747,888.6
591.28,890.1
591.814,891.5
592.347,885.8
592.881,886.3
593.414,886.9
593.947,885.5
594.48,887.8
595.014,888.4
595.547,887.1
596.079,886.3
596.612,886.4
597.145,886.2
597.678,889.8
598.21,893.5
598.743,891.4
599.275,894.3
599.807,896.5
600.34,893.3
600.872,893.2
601.404,891.1
601.936,895.8
602.468,895.2
603.0,895.6
603.532,894.4
604.063,895.0
604.595,895.8
605.126,893.7
605.658,893.8
606.189,894.3
606.721,894.5
607.252,893.3
607.783,897.5
608.314,898.6
608.845,896.8
609.376,897.8
609.907,894.6
610.438,898.4
610.968,902.7
611.499,902.7
612.03,895.5
612.56,896.3
613.091,894.8
613.621,898.5
614.151,899.9
614.681,894.3
615.212,896.7
615.742,896.2
616.272,898.3
616.802,896.8
617.332,903.0
617.861,899.8
618.391,896.7
618.921,895.0
619.45,899.4
619.98,896.4
620.509,899.3
621.039,902.6
621.568,902.0
622.097,915.8
622.627,913.9
623.156,901.5
623.685,897.6
624.214,892.9
624.743,892.0
625.272,895.2
625.801,898.4
626.33,914.2
626.858,1067.0
627.387,1385.4
627.916,1178.8
628.444,1278.0
628.973,1200.3
629.501,1137.9
630.029,1066.0
630.558,1051.1
631.086,956.8
631.614,915.8
632.142,897.1
632.67,894.9
633.198,893.2
633.726,890.7
634.254,886.1
634.782,883.4
635.31,885.2
635.838,885.3
636.365,886.8
636.893,885.6
637.421,884.9
637.948,884.4
638.476,881.0
639.003,886.1
639.531,887.6
640.058,884.8
640.585,885.1
641.113,887.6
641.64,884.2
642.167,884.7
642.694,884.2
643.221,880.1
643.748,881.1
644.275,877.8
644.802,877.5
645.329,880.6
645.856,876.5
646.382,878.4
646.909,877.4
647.436,874.7
647.962,876.2
648.489,877.3
649.016,874.1
649.542,876.2
650.069,872.0
650.595,875.3
651.121,876.2
651.648,875.7
652.174,874.0
652.7,871.4
653.227,872.8
653.753,870.7
654.279,873.2
654.805,871.4
655.331,875.2
655.857,872.1
656.383,870.8
656.909,871.9
657.435,871.9
657.961,871.7
658.487,868.8
659.013,871.1
659.538,873.8
660.064,871.2
660.59,871.1
661.116,868.9
661.641,867.9
662.167,867.8
662.692,864.2
663.087,870.4

File: VLFR_02-HDPE_bio_Raman_db4da630.csv
nm,Intensity
526.508,830.7
527.055,829.2
527.602,829.9
528.149,829.3
528.695,828.5
529.241,829.1
529.787,829.3
530.334,829.6
530.879,828.2
531.425,827.7
531.971,835.7
532.516,831.8
533.062,829.0
533.607,829.3
534.152,852.7
534.697,850.7
535.242,848.4
535.786,844.6
536.331,842.0
536.876,843.8
537.42,843.9
537.964,842.6
538.508,842.1
539.052,843.7
539.596,843.8
540.14,839.6
540.683,840.4
541.227,842.3
541.77,840.1
542.313,841.0
542.856,842.3
543.399,842.0
543.942,842.2
544.485,840.7
545.027,841.7
545.57,843.0
546.112,842.0
546.654,840.6
547.196,841.0
547.738,841.0
548.28,841.8
548.822,841.7
549.363,843.3
549.905,844.5
550.446,842.8
550.988,842.2
551.529,843.2
552.07,841.6
552.611,841.3
553.152,844.3
553.692,843.1
554.233,843.2
554.773,845.1
555.314,843.3
555.854,842.2
556.394,845.3
556.934,844.7
557.474,847.0
558.014,846.3
558.553,846.8
559.093,845.8
559.632,845.5
560.172,847.8
560.711,847.8
561.25,848.1
561.789,849.1
562.328,849.8
562.867,850.3
563.406,851.5
563.944,870.4
564.483,857.3
565.021,856.2
565.559,855.0
566.098,896.9
566.636,858.4
567.174,853.4
567.711,855.7
568.249,853.5
568.787,854.0
569.324,856.5
569.862,856.8
570.399,859.6
570.936,860.0
571.474,892.5
572.011,867.7
572.548,862.4
573.084,862.9
573.621,864.8
574.158,870.2
574.694,869.2
575.231,871.0
575.767,897.8
576.303,898.8
576.84,892.3
577.376,892.3
577.912,885.7
578.447,890.2
578.983,889.6
579.519,896.9
580.054,903.3
580.59,905.5
581.125,908.8
581.661,921.2
582.196,926.0
582.731,931.9
583.266,938.4
583.801,947.5
584.336,947.5
584.87,957.2
585.405,967.2
585.94,968.3
586.474,980.0
587.008,981.9
587.543,996.4
588.077,1006.0
588.611,1010.4
589.145,1017.9
589.679,1023.8
590.213,1025.8
590.747,1041.7
591.28,1043.8
591.814,1058.7
592.347,1055.3
592.881,1059.8
593.414,1060.5
593.947,1062.8
594.48,1069.7
595.014,1070.3
595.547,1067.4
596.079,1062.8
596.612,1065.2
597.145,1061.5
597.678,1062.2
598.21,1063.2
598.743,1061.9
599.275,1063.6
599.807,1060.0
600.34,1062.8
600.872,1058.9
601.404,1056.3
601.936,1055.4
602.468,1052.5
603.0,1052.0
603.532,1045.1
604.063,1044.6
604.595,1042.5
605.126,1027.7
605.658,1028.5
606.189,1023.3
606.721,1017.1
607.252,1011.8
607.783,1011.5
608.314,1007.7
608.845,1000.5
609.376,1000.9
609.907,994.4
610.438,991.3
610.968,982.2
611.499,985.3
612.03,979.9
612.56,974.2
613.091,978.8
613.621,976.9
614.151,973.7
614.681,962.0
615.212,966.4
615.742,966.7
616.272,959.7
616.802,957.2
617.332,958.2
617.861,954.3
618.391,954.7
618.921,949.6
619.45,948.4
619.98,949.8
620.509,942.6
621.039,943.6
621.568,941.6
622.097,947.1
622.627,944.8
623.156,942.4
623.685,938.9
624.214,938.7
624.743,939.6
625.272,938.0
625.801,936.6
626.33,944.0
626.858,985.5
627.387,1076.5
627.916,1013.5
628.444,1052.3
628.973,1032.3
629.501,1008.9
630.029,987.5
630.558,990.8
631.086,958.6
631.614,947.4
632.142,940.2
632.67,941.5
633.198,943.2
633.726,943.2
634.254,943.6
634.782,942.7
635.31,945.7
635.838,945.5
636.365,948.2
636.893,948.3
637.421,949.2
637.948,948.8
638.476,953.2
639.003,956.0
639.531,956.6
640.058,956.1
640.585,955.7
641.113,965.7
641.64,962.6
642.167,967.4
642.694,963.8
643.221,966.0
643.748,967.0
644.275,965.4
644.802,962.6
645.329,966.9
645.856,967.9
646.382,971.1
646.909,964.1
647.436,969.7
647.962,964.4
648.489,964.0
649.016,964.3
649.542,957.4
650.069,958.9
650.595,958.8
651.121,953.8
651.648,957.6
652.174,954.5
652.7,952.7
653.227,951.5
653.753,950.6
654.279,944.1
654.805,947.4
655.331,942.4
655.857,939.4
656.383,939.3
656.909,941.0
657.435,936.7
657.961,938.0
658.487,938.5
659.013,933.7
659.538,931.4
660.064,930.1
660.59,930.9
661.116,925.1
661.641,923.4
662.167,923.1
662.692,920.5
663.087,919.7

File: VLFR_02-HDPE_bio_Raman_dfe079b5.csv
nm,Intensity
528.65,1856.1
529.155,1854.95
529.66,1856.4
530.165,1857.45
530.67,1856.65
531.175,1857.7
531.68,1872.85
532.185,2507.4
532.69,1858.65
533.194,1858.15
533.699,1979.05
534.204,2345.6
534.708,2343.3
535.213,2340.2
535.717,2335.15
536.222,2298.8
536.726,2307.9
537.231,2303.0
537.735,2326.1
538.239,2318.55
538.743,2313.15
539.247,2331.35
539.751,2304.85
540.255,2323.25
540.759,2320.0
541.263,2338.65
541.767,2346.75
542.271,2346.95
542.775,2357.8
543.279,2354.8
543.782,2368.9
544.286,2367.9
544.789,2365.4
545.293,2370.55
545.796,2393.95
546.3,2381.85
546.803,2392.8
547.306,2409.95
547.81,2419.05
548.313,2440.15
548.816,2421.8
549.319,2433.5
549.822,2431.65
550.325,2456.9
550.828,2469.7
551.331,2467.45
551.834,2493.9
552.337,2505.15
552.839,2487.05
553.342,2524.2
553.844,2507.45
554.347,2528.8
554.849,2543.0
555.352,2548.0
555.854,2544.4
556.357,2563.7
556.859,2581.45
557.361,2581.65
557.863,2575.5
558.365,2602.55
558.867,2627.5
559.369,2618.05
559.871,2626.35
560.373,2625.1
560.875,2666.35
561.377,2689.95
561.878,2687.4
562.38,2710.3
562.881,2702.95
563.383,2728.2
563.884,3000.5
564.386,2815.65
564.887,2811.95
565.388,2820.0
565.89,3028.55
566.391,3041.5
566.892,2833.05
567.393,2901.7
567.894,2872.0
568.395,2904.65
568.896,2899.6
569.396,2932.35
569.897,2962.85
570.398,3002.65
570.898,3045.1
571.399,3503.1
571.9,3222.55
572.4,3122.85
572.9,3127.15
573.401,3159.7
573.901,3208.8
574.401,3262.3
574.901,3251.6
575.401,3510.4
575.901,3536.9
576.401,3890.75
576.901,3784.9
577.401,3663.25
577.901,3621.1
578.4,3649.75
578.9,3746.35
579.399,3799.3
579.899,3850.35
580.398,3955.65
580.898,4034.5
581.397,4032.0
581.896,4133.15
582.395,4123.35
582.895,4191.75
583.394,4190.8
583.893,4171.8
584.391,4228.1
584.89,4271.6
585.389,4275.2
585.888,4204.85
586.386,4253.8
586.885,4288.85
587.384,4305.05
587.882,4354.0
588.38,4300.15
588.879,4346.0
589.377,4383.9
589.875,4335.0
590.373,4459.0
590.871,4411.85
591.369,4417.85
591.867,4542.3
592.365,4441.0
592.863,4466.2
593.361,4490.2
593.858,4503.85
594.356,4464.9
594.853,4559.6
595.351,4593.1
595.848,4674.75
596.345,4659.55
596.843,4715.8
597.34,4733.95
597.837,4734.2
598.334,4687.35
598.831,4751.65
599.328,4751.85
599.824,4729.65
600.321,4742.7
600.818,4763.45
601.314,4681.5
601.811,4749.55
602.307,4740.3
602.804,4739.5
603.3,4695.85
603.796,4593.85
604.293,4641.05
604.789,4578.75
605.285,4541.95
605.781,4532.5
606.277,4547.9
606.772,4463.8
607.268,4380.35
607.764,4401.0
608.259,4375.45
608.755,4381.7
609.25,4322.8
609.746,4248.8
610.241,4302.15
610.736,4224.0
611.231,4257.65
611.727,4231.35
612.222,4208.3
612.716,4170.1
613.211,4076.8
613.706,4102.8
614.201,4130.8
614.695,4055.25
615.19,4043.45
615.684,4040.3
616.179,4047.2
616.673,4016.75
617.168,4061.2
617.662,4009.3
618.156,3987.6
618.65,4019.9
619.144,4019.05
619.638,4019.9
620.131,3993.35
620.625,3962.1
621.119,3963.75
621.612,4039.65
622.106,4066.3
622.599,4133.0
623.093,4003.45
623.586,3954.9
624.079,3901.05
624.572,3998.5
625.065,3926.8
625.558,3940.95
626.051,4022.45
626.544,4371.25
627.037,6090.4
627.529,5934.6
628.022,5318.55
628.514,6717.15
629.007,5412.1
629.499,4951.45
629.991,4720.05
630.483,4582.55
630.976,4269.2
631.468,4068.85
631.959,3975.4
632.451,3964.8
632.943,3920.95
633.435,3908.9
633.926,3859.35
634.418,3859.1
634.909,3861.5
635.401,3851.7
635.892,3845.25
636.383,3830.8
636.874,3776.45
637.365,3812.7
637.856,3787.5
638.347,3823.2
638.838,3774.45
639.329,3754.15
639.819,3739.35
640.31,3782.05
640.8,3698.0
641.291,3747.8
641.781,3684.05
642.271,3700.95
642.761,3705.75
643.251,3625.0
643.741,3674.2
644.231,3650.0
644.721,3567.5
645.211,3604.2
645.7,3532.7
646.19,3512.5
646.679,3537.15
647.169,3522.7
647.658,3465.9
648.147,3489.7
648.636,3435.4
649.125,3446.9
649.614,3447.55
650.103,3395.0
650.592,3399.15
651.08,3373.75
651.569,3337.95
652.058,3373.65
652.546,3346.95
653.034,3334.5
653.523,3323.0
654.011,3259.25
654.499,3277.9
654.987,3211.0
655.475,3218.45
655.963,3193.25
656.45,3197.85
656.938,3165.5
657.425,3136.25
657.913,3110.85
658.4,3036.95
658.888,3046.75
659.375,2987.65
659.862,3002.6
660.349,2958.25
660.836,3010.6
661.079,2927.15