Folder: MPX_specDB/spectra (part 86)

File: VLFR_06-PET_nobio_Raman_50aa97b2.csv
nm,Intensity
526.5,829.4
527.047,829.8
527.594,829.7
528.14,828.9
528.687,830.1
529.233,828.6
529.779,828.6
530.325,830.3
530.871,831.0
531.417,830.5
531.962,833.1
532.508,830.5
533.053,829.1
533.599,837.4
534.144,1621.3
534.689,1410.3
535.234,1205.8
535.778,1080.6
536.323,1013.6
536.867,978.7
537.412,961.2
537.956,961.0
538.5,965.8
539.044,966.5
539.588,982.8
540.132,985.1
540.675,959.4
541.219,956.7
541.762,957.7
542.305,957.5
542.848,958.0
543.391,957.7
543.934,967.4
544.477,966.5
545.02,970.0
545.562,969.5
546.105,971.9
546.647,977.5
547.189,978.2
547.731,977.2
548.273,978.8
548.815,985.6
549.356,985.1
549.898,989.3
550.439,1002.1
550.981,1006.4
551.522,999.1
552.063,1003.0
552.604,1006.7
553.145,1016.1
553.686,1022.6
554.226,1013.7
554.767,1020.1
555.307,1031.8
555.848,1058.0
556.388,1065.1
556.928,1073.8
557.468,1163.0
558.008,1089.6
558.547,1088.3
559.087,1063.0
559.626,1044.3
560.166,1048.1
560.705,1056.7
561.244,1057.7
561.783,1065.7
562.322,1077.3
562.861,1087.0
563.4,1090.4
563.939,1088.2
564.477,1097.4
565.015,1129.7
565.554,1169.0
566.092,1173.4
566.63,1117.8
567.168,1110.9
567.706,1161.2
568.244,1123.6
568.781,1120.5
569.319,1134.4
569.857,1150.6
570.394,1180.7
570.931,1275.2
571.468,1330.6
572.005,1239.8
572.542,1175.8
573.079,1159.0
573.616,1174.0
574.153,1187.7
574.689,1180.2
575.226,1201.8
575.762,1188.8
576.298,1207.9
576.834,1231.2
577.371,1209.8
577.907,1209.2
578.442,1206.5
578.978,1215.6
579.514,1220.9
580.049,1215.8
580.585,1231.1
581.12,1245.1
581.656,1295.7
582.191,2074.0
582.726,1280.5
583.261,1256.2
583.796,1253.2
584.331,1261.5
584.865,1278.7
585.4,1343.2
585.935,1692.8
586.469,1517.7
587.004,1316.6
587.538,1298.0
588.072,1276.4
588.606,1281.2
589.14,1286.8
589.674,1293.4
590.208,1291.3
590.742,1293.3
591.275,1291.5
591.809,1297.9
592.342,1288.9
592.876,1304.1
593.409,1303.7
593.942,1299.3
594.476,1303.8
595.009,1305.0
595.542,1312.7
596.075,1315.6
596.607,1313.7
597.14,1321.3
597.673,1313.0
598.205,1319.7
598.738,1325.4
599.27,1319.8
599.803,1325.8
600.335,1333.7
600.867,1326.9
601.399,1324.2
601.931,1324.7
602.463,1327.2
602.995,1336.3
603.527,1335.9
604.058,1337.3
604.59,1331.2
605.122,1322.0
605.653,1330.2
606.184,1322.0
606.716,1321.0
607.247,1333.3
607.778,1330.0
608.309,1333.4
608.84,1339.3
609.371,1333.6
609.902,1337.6
610.433,1338.6
610.964,1336.7
611.494,1340.6
612.025,1348.9
612.556,1350.2
613.086,1356.4
613.616,1367.7
614.147,1369.2
614.677,1359.8
615.207,1367.3
615.737,1363.8
616.267,1359.1
616.797,1372.1
617.327,1374.7
617.857,1382.9
618.387,1381.1
618.917,1374.3
619.446,1378.2
619.976,1386.1
620.505,1384.9
621.035,1382.1
621.564,1381.2
622.093,1393.1
622.623,1398.3
623.152,1398.9
623.681,1405.2
624.21,1407.0
624.739,1420.0
625.268,1425.4
625.797,1417.4
626.326,1414.3
626.855,1422.9
627.383,1435.1
627.912,1434.5
628.441,1447.3
628.969,1463.6
629.498,1476.7
630.026,1470.8
630.554,1475.4
631.083,1522.7
631.611,1615.9
632.139,1611.6
632.667,1563.5
633.195,1551.0
633.724,1544.1
634.252,1527.5
634.779,1517.6
635.307,1537.9
635.835,1575.0
636.363,1672.4
636.891,1668.4
637.418,1569.7
637.946,1547.8
638.474,1555.2
639.001,1562.1
639.529,1559.5
640.056,1558.8
640.583,1574.1
641.111,1571.6
641.638,1593.1
642.165,1597.3
642.692,1603.9
643.22,1590.0
643.747,1587.9
644.274,1586.7
644.801,1591.5
645.328,1588.3
645.854,1593.8
646.381,1604.0
646.908,1609.4
647.435,1616.8
647.962,1600.2
648.488,1608.6
649.015,1607.2
649.542,1600.8
650.068,1610.9
650.595,1604.5
651.121,1624.1
651.648,1620.6
652.174,1620.9
652.7,1623.9
653.227,1635.2
653.753,1626.5
654.279,1624.4
654.805,1638.1
655.331,1618.5
655.858,1628.8
656.384,1625.4
656.91,1631.6
657.436,1630.6
657.962,1630.8
658.488,1642.1
659.013,1627.3
659.539,1646.4
660.065,1639.6
660.591,1636.0
661.117,1631.4
661.642,1625.7
662.168,1625.3
662.694,1625.0
663.088,1615.5

File: VLFR_06-PET_nobio_Raman_81a28ddb.csv
nm,Intensity
526.508,830.3
527.055,829.8
527.602,830.6
528.149,831.1
528.695,830.1
529.241,830.5
529.787,830.1
530.334,829.4
530.879,829.3
531.425,830.9
531.971,835.0
532.516,831.0
533.062,829.0
533.607,835.7
534.152,1723.2
534.697,1477.9
535.242,1230.0
535.786,1077.9
536.331,976.3
536.876,936.8
537.42,924.5
537.964,917.0
538.508,921.6
539.052,919.6
539.596,929.4
540.14,936.1
540.683,908.2
541.227,894.0
541.77,894.1
542.313,892.2
542.856,893.1
543.399,893.0
543.942,898.0
544.485,895.6
545.027,893.2
545.57,899.0
546.112,895.1
546.654,898.6
547.196,899.8
547.738,898.9
548.28,902.2
548.822,904.5
549.363,904.2
549.905,905.7
550.446,922.0
550.988,924.5
551.529,912.0
552.07,912.0
552.611,919.4
553.152,935.5
553.692,922.2
554.233,916.6
554.773,921.5
555.314,931.8
555.854,966.3
556.394,971.3
556.934,976.4
557.474,1076.1
558.014,996.6
558.553,987.7
559.093,957.2
559.632,939.8
560.172,936.2
560.711,940.7
561.25,946.9
561.789,948.7
562.328,959.7
562.867,966.9
563.406,970.6
563.944,963.7
564.483,972.1
565.021,1011.2
565.559,1045.3
566.098,1055.7
566.636,979.7
567.174,976.6
567.711,1033.8
568.249,976.6
568.787,972.6
569.324,978.6
569.862,1000.3
570.399,1031.1
570.936,1130.8
571.474,1224.0
572.011,1095.2
572.548,1020.4
573.084,1002.8
573.621,998.4
574.158,1021.6
574.694,1007.3
575.231,1031.9
575.767,1012.6
576.303,1032.0
576.84,1049.5
577.376,1020.5
577.912,1017.3
578.447,1011.0
578.983,1021.5
579.519,1015.4
580.054,1018.8
580.59,1030.6
581.125,1045.8
581.661,1103.9
582.196,1998.5
582.731,1084.8
583.266,1051.4
583.801,1043.0
584.336,1049.8
584.87,1065.4
585.405,1132.7
585.94,1518.3
586.474,1343.5
587.008,1088.1
587.543,1061.7
588.077,1057.6
588.611,1056.4
589.145,1055.0
589.679,1053.7
590.213,1056.8
590.747,1057.4
591.28,1058.4
591.814,1063.1
592.347,1058.4
592.881,1066.8
593.414,1067.3
593.947,1067.3
594.48,1069.0
595.014,1066.2
595.547,1069.2
596.079,1069.6
596.612,1074.2
597.145,1076.9
597.678,1073.1
598.21,1083.7
598.743,1078.5
599.275,1076.7
599.807,1088.8
600.34,1082.6
600.872,1078.9
601.404,1084.7
601.936,1084.7
602.468,1082.9
603.0,1088.1
603.532,1089.4
604.063,1085.5
604.595,1081.6
605.126,1083.1
605.658,1085.2
606.189,1083.8
606.721,1089.3
607.252,1092.0
607.783,1082.4
608.314,1083.8
608.845,1089.7
609.376,1086.3
609.907,1087.8
610.438,1090.7
610.968,1085.6
611.499,1099.4
612.03,1096.4
612.56,1099.6
613.091,1102.8
613.621,1107.9
614.151,1106.2
614.681,1113.2
615.212,1115.6
615.742,1109.5
616.272,1106.7
616.802,1119.6
617.332,1124.0
617.861,1120.1
618.391,1134.8
618.921,1124.1
619.45,1119.5
619.98,1121.6
620.509,1121.1
621.039,1125.6
621.568,1127.2
622.097,1133.3
622.627,1131.3
623.156,1139.7
623.685,1142.1
624.214,1140.9
624.743,1151.7
625.272,1150.7
625.801,1153.5
626.33,1150.8
626.858,1154.2
627.387,1159.3
627.916,1160.7
628.444,1175.6
628.973,1193.7
629.501,1187.8
630.029,1194.0
630.558,1193.4
631.086,1239.0
631.614,1326.2
632.142,1310.8
632.67,1282.2
633.198,1258.1
633.726,1243.0
634.254,1231.3
634.782,1227.5
635.31,1231.2
635.838,1271.8
636.365,1361.9
636.893,1363.0
637.421,1273.6
637.948,1252.9
638.476,1243.1
639.003,1247.5
639.531,1250.8
640.058,1259.8
640.585,1250.7
641.113,1279.3
641.64,1264.7
642.167,1272.1
642.694,1283.2
643.221,1263.1
643.748,1267.0
644.275,1273.3
644.802,1276.9
645.329,1270.9
645.856,1282.6
646.382,1287.9
646.909,1284.3
647.436,1289.5
647.962,1292.5
648.489,1284.1
649.016,1287.3
649.542,1289.9
650.069,1292.8
650.595,1295.2
651.121,1299.4
651.648,1296.1
652.174,1304.3
652.7,1309.2
653.227,1315.9
653.753,1306.2
654.279,1308.3
654.805,1313.0
655.331,1313.9
655.857,1310.3
656.383,1314.5
656.909,1309.5
657.435,1313.7
657.961,1312.7
658.487,1318.4
659.013,1317.5
659.538,1322.6
660.064,1317.1
660.59,1313.2
661.116,1318.4
661.641,1310.5
662.167,1306.0
662.692,1314.7
663.087,1309.2

File: VLFR_06-PET_nobio_Raman_86cc87f8.csv
nm,Intensity
526.5,829.8
527.047,828.3
527.594,830.7
528.14,828.7
528.687,828.3
529.233,829.2
529.779,828.2
530.325,829.4
530.871,830.2
531.417,830.0
531.962,833.1
532.508,830.3
533.053,830.9
533.599,838.8
534.144,1981.6
534.689,1665.1
535.234,1342.3
535.778,1143.7
536.323,1031.1
536.867,979.4
537.412,963.0
537.956,959.2
538.5,962.5
539.044,958.9
539.588,975.0
540.132,977.4
540.675,938.7
541.219,929.5
541.762,921.7
542.305,924.9
542.848,928.7
543.391,930.1
543.934,930.8
544.477,927.3
545.02,933.7
545.562,938.4
546.105,935.4
546.647,934.8
547.189,936.2
547.731,938.4
548.273,940.3
548.815,945.4
549.356,950.0
549.898,952.4
550.439,967.7
550.981,972.1
551.522,957.7
552.063,961.9
552.604,967.1
553.145,992.3
553.686,975.3
554.226,971.4
554.767,974.0
555.307,986.1
555.848,1034.3
556.388,1037.9
556.928,1050.4
557.468,1176.8
558.008,1078.1
558.547,1067.3
559.087,1031.1
559.626,1005.8
560.166,1007.8
560.705,1010.6
561.244,1016.5
561.783,1021.5
562.322,1038.9
562.861,1049.3
563.4,1053.1
563.939,1044.1
564.477,1046.4
565.015,1094.5
565.554,1154.5
566.092,1160.9
566.63,1073.2
567.168,1056.9
567.706,1136.0
568.244,1075.2
568.781,1062.3
569.319,1074.9
569.857,1098.5
570.394,1138.1
570.931,1268.6
571.468,1374.0
572.005,1225.6
572.542,1131.7
573.079,1108.6
573.616,1108.6
574.153,1135.8
574.689,1119.3
575.226,1155.9
575.762,1122.5
576.298,1155.5
576.834,1168.4
577.371,1144.5
577.907,1132.1
578.442,1135.3
578.978,1137.8
579.514,1138.7
580.049,1143.5
580.585,1155.0
581.12,1174.4
581.656,1247.9
582.191,2364.8
582.726,1228.3
583.261,1175.4
583.796,1177.8
584.331,1185.6
584.865,1197.1
585.4,1288.9
585.935,1786.8
586.469,1567.3
587.004,1243.8
587.538,1207.9
588.072,1196.4
588.606,1192.2
589.14,1199.1
589.674,1199.6
590.208,1200.2
590.742,1201.1
591.275,1202.5
591.809,1209.0
592.342,1198.3
592.876,1200.7
593.409,1205.6
593.942,1206.9
594.476,1209.0
595.009,1211.8
595.542,1218.4
596.075,1219.2
596.607,1224.7
597.14,1225.5
597.673,1232.5
598.205,1232.7
598.738,1237.3
599.27,1237.4
599.803,1227.9
600.335,1227.4
600.867,1232.8
601.399,1232.1
601.931,1234.7
602.463,1239.2
602.995,1241.5
603.527,1242.2
604.058,1240.7
604.59,1238.8
605.122,1241.6
605.653,1238.2
606.184,1219.2
606.716,1230.5
607.247,1236.0
607.778,1237.1
608.309,1241.1
608.84,1248.4
609.371,1246.3
609.902,1243.5
610.433,1250.0
610.964,1245.5
611.494,1233.8
612.025,1254.2
612.556,1249.2
613.086,1264.8
613.616,1264.0
614.147,1268.3
614.677,1280.1
615.207,1270.8
615.737,1268.9
616.267,1273.7
616.797,1272.8
617.327,1282.2
617.857,1289.1
618.387,1292.0
618.917,1298.3
619.446,1293.2
619.976,1288.4
620.505,1282.0
621.035,1288.9
621.564,1294.4
622.093,1292.1
622.623,1301.3
623.152,1304.4
623.681,1312.6
624.21,1314.1
624.739,1324.9
625.268,1328.5
625.797,1328.1
626.326,1334.2
626.855,1322.8
627.383,1339.4
627.912,1344.0
628.441,1372.5
628.969,1383.8
629.498,1392.5
630.026,1382.2
630.554,1383.1
631.083,1445.7
631.611,1585.2
632.139,1571.4
632.667,1499.4
633.195,1476.5
633.724,1459.6
634.252,1438.5
634.779,1428.9
635.307,1432.1
635.835,1498.1
636.363,1630.8
636.891,1634.4
637.418,1489.0
637.946,1462.6
638.474,1450.8
639.001,1458.6
639.529,1462.0
640.056,1465.4
640.583,1472.0
641.111,1485.5
641.638,1476.6
642.165,1494.4
642.692,1502.2
643.22,1485.3
643.747,1492.5
644.274,1496.1
644.801,1488.4
645.328,1493.8
645.854,1506.0
646.381,1506.0
646.908,1514.4
647.435,1510.1
647.962,1530.7
648.488,1524.5
649.015,1516.6
649.542,1517.7
650.068,1518.3
650.595,1524.3
651.121,1528.1
651.648,1525.6
652.174,1534.6
652.7,1534.0
653.227,1538.7
653.753,1545.8
654.279,1541.2
654.805,1548.1
655.331,1542.5
655.858,1544.3
656.384,1539.1
656.91,1547.1
657.436,1552.4
657.962,1537.4
658.488,1554.8
659.013,1555.4
659.539,1553.5
660.065,1559.4
660.591,1562.2
661.117,1537.4
661.642,1537.0
662.168,1536.1
662.694,1540.0
663.088,1544.1

File: VLFR_06-PET_nobio_Raman_187be051.csv
cm-1,Intensity
-123.878,1858.2
-105.821,1858.3
-87.8007,1858.4
-69.8161,1856.95
-51.8675,1857.6
-33.9547,1859.15
-16.0776,1876.7
1.76388,2729.45
19.5698,1860.2
37.3403,1864.85
55.0755,2599.95
72.7754,4381.65
90.4402,3938.0
108.07,3585.3
125.665,3277.85
143.225,3132.7
160.75,3054.05
178.241,3019.9
195.697,3114.3
213.119,3109.65
230.506,3130.9
247.859,3155.2
265.178,3227.65
282.463,3170.1
299.713,3172.9
316.93,3146.4
334.113,3173.35
351.263,3218.7
368.379,3240.5
385.461,3262.45
402.51,3283.75
419.526,3263.35
436.508,3317.45
453.458,3303.15
470.374,3377.85
487.257,3364.2
504.107,3360.4
520.925,3370.55
537.71,3411.45
554.462,3459.05
571.182,3463.8
587.87,3440.85
604.525,3476.8
621.148,3544.5
637.739,3633.55
654.297,3598.25
670.824,3600.0
687.319,3592.25
703.782,3702.4
720.213,3623.25
736.613,3669.3
752.981,3726.9
769.317,3719.25
785.623,3870.35
801.897,3903.75
818.139,3960.3
834.351,3980.65
850.532,4226.1
866.681,4117.25
882.8,4049.8
898.888,4003.6
914.945,3951.3
930.972,4050.55
946.968,3989.0
962.934,4091.8
978.869,4109.7
994.774,4141.15
1010.65,4176.3
1026.49,4228.05
1042.31,4219.55
1058.09,4231.6
1073.85,4309.3
1089.57,4388.45
1105.27,4474.05
1120.93,4554.0
1136.57,4371.9
1152.18,4336.25
1167.75,4400.5
1183.3,4455.0
1198.82,4390.2
1214.31,4407.3
1229.77,4434.65
1245.2,4529.35
1260.6,4673.95
1275.97,4889.65
1291.32,5032.15
1306.63,4844.95
1321.92,4701.1
1337.18,4552.8
1352.41,4605.25
1367.61,4664.55
1382.78,4644.35
1397.93,4659.75
1413.05,4772.25
1428.14,4736.35
1443.2,4836.3
1458.23,4816.35
1473.23,4803.85
1488.21,4757.05
1503.16,4782.2
1518.08,4737.6
1532.97,4850.45
1547.84,4882.55
1562.68,4921.3
1577.49,5033.55
1592.27,5051.9
1607.03,6167.6
1621.76,5771.2
1636.46,4980.6
1651.14,5034.15
1665.78,5034.5
1680.41,5029.3
1695.0,5085.3
1709.57,5305.55
1724.11,6161.05
1738.62,5793.05
1753.11,5219.3
1767.57,5152.35
1782.01,5116.15
1796.41,5160.15
1810.8,5206.55
1825.15,5161.3
1839.48,5181.15
1853.79,5139.4
1868.06,5186.85
1882.31,5226.75
1896.54,5255.4
1910.74,5317.1
1924.91,5254.75
1939.06,5238.9
1953.19,5395.35
1967.28,5238.7
1981.35,5294.2
1995.4,5328.65
2009.42,5344.4
2023.42,5402.25
2037.39,5465.8
2051.33,5410.35
2065.25,5434.05
2079.15,5410.75
2093.01,5433.25
2106.86,5465.3
2120.68,5418.0
2134.47,5452.15
2148.24,5404.8
2161.99,5451.5
2175.71,5499.5
2189.41,5505.25
2203.08,5553.25
2216.73,5497.45
2230.35,5519.0
2243.95,5495.85
2257.52,5535.55
2271.07,5449.9
2284.6,5505.3
2298.1,5447.0
2311.58,5549.5
2325.03,5472.55
2338.46,5469.85
2351.87,5596.5
2365.25,5577.9
2378.61,5548.2
2391.94,5561.8
2405.26,5659.2
2418.54,5623.8
2431.81,5569.65
2445.05,5621.65
2458.27,5589.6
2471.46,5578.85
2484.63,5599.75
2497.78,5590.1
2510.9,5579.25
2524.0,5661.4
2537.08,5592.65
2550.14,5685.0
2563.17,5676.1
2576.18,5606.5
2589.17,5704.5
2602.13,5679.4
2615.07,5654.3
2627.99,5680.45
2640.89,5706.55
2653.76,5683.0
2666.61,5733.7
2679.44,5633.7
2692.25,5689.6
2705.03,5753.5
2717.79,5726.4
2730.53,5616.5
2743.25,5727.5
2755.94,5790.6
2768.61,5828.4
2781.27,5816.8
2793.89,5797.8
2806.5,5660.85
2819.09,5804.95
2831.65,5777.8
2844.19,5776.3
2856.71,5794.5
2869.21,5858.25
2881.69,5802.8
2894.14,5951.1
2906.58,5910.35
2918.99,5961.95
2931.38,5830.55
2943.75,6079.4
2956.1,6283.7
2968.42,6280.3
2980.73,6044.2
2993.01,6107.5
3005.28,6158.75
3017.52,6026.0
3029.74,6031.5
3041.94,5963.65
3054.12,6063.1
3066.28,6068.8
3078.42,6344.2
3090.54,6284.4
3102.63,6179.45
3114.71,6139.45
3126.77,6007.75
3138.8,6059.6
3150.82,6006.9
3162.81,5995.55
3174.78,5984.55
3186.74,5991.8
3198.67,6044.0
3210.58,5908.6
3222.47,5992.55
3234.35,6066.1
3246.2,5903.4
3258.03,6038.2
3269.84,6064.65
3281.64,5938.3
3293.41,6033.95
3305.16,5955.2
3316.89,5889.1
3328.61,5938.4
3340.3,5880.1
3351.97,5943.2
3363.63,5828.3
3375.26,5847.6
3386.88,5838.55
3398.47,5819.8
3410.05,5719.2
3421.6,5806.5
3433.14,5728.9
3444.66,5845.65
3456.15,5792.2
3467.63,5679.95
3479.09,5714.95
3490.53,5769.15
3501.96,5651.1
3513.36,5612.65
3524.74,5533.95
3536.11,5627.6
3547.45,5530.05
3558.78,5555.15
3570.09,5475.5
3581.37,5451.8
3592.64,5423.4
3603.9,5416.65
3615.13,5474.25
3626.34,5170.95
3637.54,5194.5
3648.72,5229.45
3659.87,5265.3
3665.45,5209.25

File: VLFR_06-PET_nobio_Raman_4343f96a.csv
nm,Intensity
526.5,829.4
527.047,829.1
527.594,828.8
528.14,829.5
528.687,830.0
529.233,828.0
529.779,827.9
530.325,830.1
530.871,828.4
531.417,828.1
531.962,831.0
532.508,828.4
533.053,828.7
533.599,836.0
534.144,1527.4
534.689,1336.0
535.234,1152.1
535.778,1038.9
536.323,968.3
536.867,941.1
537.412,930.7
537.956,921.8
538.5,931.2
539.044,932.6
539.588,936.7
540.132,940.8
540.675,919.0
541.219,914.4
541.762,913.2
542.305,912.5
542.848,920.1
543.391,914.8
543.934,920.7
544.477,922.5
545.02,921.1
545.562,925.0
546.105,925.5
546.647,928.3
547.189,929.9
547.731,933.0
548.273,935.6
548.815,930.9
549.356,938.5
549.898,936.3
550.439,947.3
550.981,956.5
551.522,948.5
552.063,950.6
552.604,954.1
553.145,963.9
553.686,959.2
554.226,956.1
554.767,961.7
555.307,968.5
555.848,1002.3
556.388,1004.2
556.928,1009.6
557.468,1088.8
558.008,1029.7
558.547,1024.2
559.087,1003.8
559.626,985.9
560.166,986.7
560.705,989.7
561.244,993.8
561.783,995.5
562.322,1011.3
562.861,1019.2
563.4,1023.8
563.939,1013.6
564.477,1030.8
565.015,1051.9
565.554,1083.4
566.092,1089.7
566.63,1044.4
567.168,1031.5
567.706,1081.4
568.244,1043.0
568.781,1041.4
569.319,1047.2
569.857,1064.6
570.394,1099.4
570.931,1166.5
571.468,1233.4
572.005,1149.2
572.542,1093.6
573.079,1076.8
573.616,1082.5
574.153,1097.3
574.689,1090.3
575.226,1109.7
575.762,1098.8
576.298,1117.3
576.834,1122.1
577.371,1110.7
577.907,1108.4
578.442,1109.0
578.978,1110.2
579.514,1115.8
580.049,1117.1
580.585,1126.4
581.12,1140.8
581.656,1186.9
582.191,1851.7
582.726,1177.6
583.261,1145.9
583.796,1149.1
584.331,1160.2
584.865,1163.4
585.4,1210.4
585.935,1526.9
586.469,1388.1
587.004,1206.2
587.538,1171.8
588.072,1172.5
588.606,1175.2
589.14,1170.2
589.674,1169.6
590.208,1176.7
590.742,1182.1
591.275,1180.8
591.809,1183.6
592.342,1181.6
592.876,1185.9
593.409,1185.8
593.942,1187.6
594.476,1191.8
595.009,1192.1
595.542,1195.4
596.075,1198.3
596.607,1194.5
597.14,1205.6
597.673,1202.4
598.205,1210.5
598.738,1215.0
599.27,1219.3
599.803,1219.0
600.335,1203.7
600.867,1208.5
601.399,1215.6
601.931,1217.0
602.463,1217.8
602.995,1224.8
603.527,1223.8
604.058,1226.9
604.59,1219.9
605.122,1221.5
605.653,1215.9
606.184,1215.1
606.716,1215.0
607.247,1225.2
607.778,1224.2
608.309,1228.1
608.84,1225.6
609.371,1232.6
609.902,1234.5
610.433,1230.1
610.964,1228.1
611.494,1229.1
612.025,1239.0
612.556,1239.8
613.086,1247.0
613.616,1253.0
614.147,1259.2
614.677,1256.4
615.207,1249.0
615.737,1264.0
616.267,1258.8
616.797,1260.5
617.327,1263.8
617.857,1273.9
618.387,1279.7
618.917,1281.4
619.446,1270.1
619.976,1274.1
620.505,1275.0
621.035,1272.7
621.564,1275.0
622.093,1285.7
622.623,1285.8
623.152,1291.1
623.681,1298.8
624.21,1300.5
624.739,1310.8
625.268,1314.4
625.797,1318.0
626.326,1307.3
626.855,1320.5
627.383,1323.8
627.912,1336.0
628.441,1338.2
628.969,1366.2
629.498,1359.1
630.026,1367.4
630.554,1369.5
631.083,1415.9
631.611,1498.0
632.139,1494.0
632.667,1441.4
633.195,1432.5
633.724,1427.4
634.252,1409.0
634.779,1401.0
635.307,1414.8
635.835,1455.5
636.363,1541.8
636.891,1548.2
637.418,1461.8
637.946,1444.4
638.474,1450.6
639.001,1442.7
639.529,1449.1
640.056,1453.9
640.583,1453.8
641.111,1466.4
641.638,1463.1
642.165,1474.7
642.692,1488.8
643.22,1473.9
643.747,1474.9
644.274,1479.5
644.801,1475.6
645.328,1475.4
645.854,1483.0
646.381,1481.3
646.908,1489.2
647.435,1503.1
647.962,1501.5
648.488,1500.4
649.015,1499.5
649.542,1499.9
650.068,1505.6
650.595,1503.9
651.121,1508.7
651.648,1508.5
652.174,1503.6
652.7,1515.0
653.227,1508.4
653.753,1519.8
654.279,1523.1
654.805,1526.9
655.331,1524.7
655.858,1513.6
656.384,1517.4
656.91,1525.8
657.436,1527.6
657.962,1522.2
658.488,1521.3
659.013,1523.1
659.539,1528.6
660.065,1525.4
660.591,1531.8
661.117,1517.8
661.642,1514.4
662.168,1511.6
662.694,1521.6
663.088,1513.3

File: VLFR_06-PET_nobio_Raman_7100bd7c.csv
nm,Intensity
528.65,1841.4
529.155,1841.2
529.66,1841.0
530.165,1841.73
530.67,1841.37
531.175,1842.7
531.68,1867.33
532.185,2955.53
532.69,1844.43
533.194,1849.87
533.699,3033.77
534.204,5837.4
534.708,4712.8
535.213,3808.4
535.717,3110.57
536.222,2699.4
536.726,2542.57
537.231,2467.13
537.735,2453.97
538.239,2468.33
538.743,2459.47
539.247,2479.97
539.751,2575.57
540.255,2501.23
540.759,2386.33
541.263,2358.07
541.767,2339.87
542.271,2347.4
542.775,2358.07
543.279,2340.63
543.782,2385.03
544.286,2348.1
544.789,2374.43
545.293,2373.43
545.796,2371.7
546.3,2368.33
546.803,2374.9
547.306,2363.27
547.81,2382.6
548.313,2392.1
548.816,2386.8
549.319,2376.87
549.822,2369.5
550.325,2473.73
550.828,2718.2
551.331,2405.37
551.834,2402.83
552.337,2421.43
552.839,2650.2
553.342,2419.67
553.844,2426.37
554.347,2428.67
554.849,2445.03
555.352,2568.13
555.854,2694.53
556.357,2728.8
556.859,2785.17
557.361,3343.07
557.863,3020.87
558.365,2871.23
558.867,2681.6
559.369,2531.0
559.871,2488.63
560.373,2497.1
560.875,2527.47
561.377,2551.0
561.878,2606.7
562.38,2626.27
562.881,2699.4
563.383,2658.8
563.884,2620.8
564.386,2647.03
564.887,2882.3
565.388,3161.5
565.89,3295.97
566.391,2851.93
566.892,2677.6
567.393,2866.33
567.894,2941.23
568.395,2717.93
568.896,2737.53
569.396,2771.5
569.897,2875.23
570.398,3196.03
570.898,3886.37
571.399,4318.47
571.9,3597.33
572.4,3057.4
572.9,2885.77
573.401,2874.07
573.901,2975.53
574.401,2919.7
574.901,2986.57
575.401,3116.7
575.901,2997.67
576.401,3155.37
576.901,3130.47
577.401,2976.87
577.901,2950.07
578.4,2965.77
578.9,2950.8
579.399,2985.2
579.899,3008.63
580.398,3031.2
580.898,3153.03
581.397,3319.0
581.896,6043.13
582.395,5215.03
582.895,3177.53
583.394,3116.63
583.893,3101.37
584.391,3167.2
584.89,3251.03
585.389,4023.5
585.888,6006.07
586.386,4924.27
586.885,3428.1
587.384,3193.67
587.882,3176.7
588.38,3153.33
588.879,3124.37
589.377,3132.77
589.875,3106.13
590.373,3125.4
590.871,3119.27
591.369,3127.7
591.867,3157.47
592.365,3119.4
592.863,3155.03
593.361,3140.47
593.858,3134.97
594.356,3145.03
594.853,3168.37
595.351,3168.97
595.848,3178.0
596.345,3179.37
596.843,3180.4
597.34,3178.6
597.837,3188.03
598.334,3222.13
598.831,3228.13
599.328,3202.7
599.824,3217.6
600.321,3234.0
600.818,3220.97
601.314,3234.57
601.811,3209.53
602.307,3221.53
602.804,3226.73
603.3,3221.2
603.796,3247.7
604.293,3220.57
604.789,3243.87
605.285,3227.23
605.781,3228.03
606.277,3270.3
606.772,3274.6
607.268,3243.97
607.764,3271.83
608.259,3264.73
608.755,3277.17
609.25,3277.73
609.746,3279.87
610.241,3264.47
610.736,3317.7
611.231,3276.23
611.727,3275.27
612.222,3300.93
612.716,3292.73
613.211,3277.83
613.706,3331.5
614.201,3341.77
614.695,3340.47
615.19,3330.13
615.684,3337.37
616.179,3326.23
616.673,3386.33
617.168,3384.53
617.662,3397.97
618.156,3427.1
618.65,3413.4
619.144,3440.8
619.638,3380.2
620.131,3397.73
620.625,3420.7
621.119,3450.1
621.612,3392.63
622.106,3418.33
622.599,3456.33
623.093,3453.3
623.586,3382.37
624.079,3475.2
624.572,3461.47
625.065,3557.9
625.558,3451.47
626.051,3504.1
626.544,3487.57
627.037,3490.07
627.529,3524.4
628.022,3572.63
628.514,3621.7
629.007,3668.23
629.499,3747.17
629.991,3619.67
630.483,3659.17
630.976,3936.6
631.468,4501.43
631.959,4505.0
632.451,4179.6
632.943,4062.2
633.435,3962.63
633.926,3826.73
634.418,3719.8
634.909,3785.57
635.401,3824.87
635.892,4127.37
636.383,4632.07
636.874,4331.43
637.365,3875.3
637.856,3761.57
638.347,3686.03
638.838,3708.4
639.329,3734.97
639.819,3654.6
640.31,3683.4
640.8,3661.73
641.291,3656.93
641.781,3735.77
642.271,3746.13
642.761,3667.57
643.251,3671.83
643.741,3668.33
644.231,3642.97
644.721,3626.87
645.211,3629.7
645.7,3656.0
646.19,3690.67
646.679,3587.83
647.169,3624.5
647.658,3713.03
648.147,3605.47
648.636,3660.53
649.125,3622.63
649.614,3600.7
650.103,3599.53
650.592,3674.5
651.08,3607.63
651.569,3610.43
652.058,3579.0
652.546,3505.2
653.034,3565.57
653.523,3531.57
654.011,3496.3
654.499,3539.07
654.987,3517.8
655.475,3497.67
655.963,3523.23
656.45,3467.17
656.938,3381.03
657.425,3441.63
657.913,3378.13
658.4,3371.6
658.888,3347.67
659.375,3328.5
659.862,3280.4
660.349,3323.5
660.836,3283.2
661.079,3287.83