Folder: MPX_specDB/spectra (part 88)

File: VLFR_06-PET_nobio_Raman_31789562.csv
nm,Intensity
526.508,830.933
527.055,829.867
527.602,830.7
528.149,830.967
528.695,830.3
529.241,830.1
529.787,830.467
530.334,831.033
530.879,830.2
531.425,830.033
531.971,834.267
532.516,831.133
533.062,829.933
533.607,830.6
534.152,921.1
534.697,905.3
535.242,886.067
535.786,872.367
536.331,865.6
536.876,863.5
537.42,860.367
537.964,860.833
538.508,862.0
539.052,863.467
539.596,865.833
540.14,862.467
540.683,863.267
541.227,863.033
541.77,864.5
542.313,869.033
542.856,872.0
543.399,868.967
543.942,867.633
544.485,868.533
545.027,869.233
545.57,869.667
546.112,867.467
546.654,870.967
547.196,870.133
547.738,868.367
548.28,865.767
548.822,865.4
549.363,867.6
549.905,867.433
550.446,867.367
550.988,868.5
551.529,866.667
552.07,865.967
552.611,867.7
553.152,867.6
553.692,867.4
554.233,866.633
554.773,868.1
555.314,869.067
555.854,871.067
556.394,870.633
556.934,871.833
557.474,881.267
558.014,875.767
558.553,877.833
559.093,875.6
559.632,873.3
560.172,872.767
560.711,873.0
561.25,875.4
561.789,877.0
562.328,876.567
562.867,881.267
563.406,883.2
563.944,887.167
564.483,891.0
565.021,904.567
565.559,903.867
566.098,899.233
566.636,889.2
567.174,885.167
567.711,885.267
568.249,882.0
568.787,883.3
569.324,885.267
569.862,888.367
570.399,890.3
570.936,899.033
571.474,904.367
572.011,897.367
572.548,894.733
573.084,895.467
573.621,896.9
574.158,901.133
574.694,898.167
575.231,897.433
575.767,895.7
576.303,895.333
576.84,895.133
577.376,896.033
577.912,891.2
578.447,890.333
578.983,890.333
579.519,891.133
580.054,891.2
580.59,890.267
581.125,892.167
581.661,896.1
582.196,950.233
582.731,897.2
583.266,894.4
583.801,894.033
584.336,895.533
584.87,895.033
585.405,899.867
585.94,922.5
586.474,915.4
587.008,898.533
587.543,898.0
588.077,896.0
588.611,896.133
589.145,897.533
589.679,895.633
590.213,898.0
590.747,897.367
591.28,898.633
591.814,898.767
592.347,900.3
592.881,897.767
593.414,897.067
593.947,898.533
594.48,900.2
595.014,900.767
595.547,901.367
596.079,901.967
596.612,901.867
597.145,900.667
597.678,902.2
598.21,903.7
598.743,903.933
599.275,904.9
599.807,901.633
600.34,903.3
600.872,901.067
601.404,903.4
601.936,904.367
602.468,904.667
603.0,904.4
603.532,904.6
604.063,904.467
604.595,903.3
605.126,901.833
605.658,903.867
606.189,901.533
606.721,900.8
607.252,901.233
607.783,902.6
608.314,904.433
608.845,905.267
609.376,903.0
609.907,904.233
610.438,903.1
610.968,904.933
611.499,904.433
612.03,906.667
612.56,905.0
613.091,905.367
613.621,907.833
614.151,907.5
614.681,907.3
615.212,907.967
615.742,907.7
616.272,909.9
616.802,905.8
617.332,909.1
617.861,910.0
618.391,910.733
618.921,910.733
619.45,908.3
619.98,910.5
620.509,910.267
621.039,912.067
621.568,910.667
622.097,912.233
622.627,912.067
623.156,913.1
623.685,914.333
624.214,914.533
624.743,917.1
625.272,918.233
625.801,920.7
626.33,920.3
626.858,923.367
627.387,928.7
627.916,935.267
628.444,951.9
628.973,956.867
629.501,955.933
630.029,950.433
630.558,946.033
631.086,946.533
631.614,944.7
632.142,941.533
632.67,934.233
633.198,928.8
633.726,922.9
634.254,920.033
634.782,921.433
635.31,922.0
635.838,924.067
636.365,927.733
636.893,927.267
637.421,924.467
637.948,925.233
638.476,922.067
639.003,922.933
639.531,924.667
640.058,924.9
640.585,926.1
641.113,925.533
641.64,927.5
642.167,927.533
642.694,927.2
643.221,926.1
643.748,926.8
644.275,924.167
644.802,927.167
645.329,928.1
645.856,926.8
646.382,927.733
646.909,930.033
647.436,929.833
647.962,930.2
648.489,928.9
649.016,929.367
649.542,930.033
650.069,930.3
650.595,929.967
651.121,929.133
651.648,931.267
652.174,930.433
652.7,927.467
653.227,927.033
653.753,929.133
654.279,924.633
654.805,926.533
655.331,925.267
655.857,924.233
656.383,925.133
656.909,925.467
657.435,922.167
657.961,921.467
658.487,922.533
659.013,921.267
659.538,921.233
660.064,920.9
660.59,918.833
661.116,919.167
661.641,918.467
662.167,916.1
662.692,918.833
663.087,916.533

File: VLFR_06-PET_nobio_Raman_a0dfeccd.csv
nm,Intensity
526.547,832.6
527.094,833.2
527.641,832.8
528.188,833.3
528.734,832.3
529.281,832.2
529.827,832.7
530.373,832.7
530.92,832.0
531.466,831.7
532.011,837.4
532.557,833.0
533.103,832.5
533.648,852.7
534.193,2238.6
534.738,1811.9
535.283,1431.8
535.828,1196.5
536.373,1070.9
536.917,1021.3
537.462,998.4
538.006,988.0
538.55,993.9
539.094,999.0
539.638,1010.9
540.182,1015.6
540.726,971.7
541.269,960.5
541.812,951.4
542.356,951.3
542.899,953.3
543.442,953.6
543.985,964.3
544.527,961.1
545.07,963.9
545.612,964.2
546.155,970.2
546.697,973.1
547.239,969.7
547.781,973.1
548.323,975.3
548.865,975.8
549.406,979.3
549.948,978.8
550.489,1011.2
551.03,1000.5
551.572,999.3
552.113,997.6
552.654,1009.7
553.194,1018.1
553.735,1014.6
554.276,1009.0
554.816,1009.2
555.356,1029.8
555.896,1074.8
556.437,1094.9
556.977,1099.2
557.516,1273.6
558.056,1126.2
558.596,1124.8
559.135,1073.6
559.675,1039.0
560.214,1046.1
560.753,1049.3
561.292,1051.8
561.831,1056.4
562.37,1077.4
562.909,1094.9
563.448,1095.9
563.986,1080.1
564.525,1099.6
565.063,1153.2
565.601,1230.4
566.139,1208.5
566.677,1117.7
567.215,1102.8
567.753,1198.4
568.291,1109.8
568.828,1107.6
569.366,1118.3
569.903,1150.3
570.441,1213.2
570.978,1369.4
571.515,1470.1
572.052,1297.1
572.589,1176.5
573.126,1144.1
573.662,1157.2
574.199,1187.1
574.735,1160.5
575.272,1210.8
575.808,1173.7
576.344,1211.2
576.88,1225.0
577.416,1185.5
577.952,1178.3
578.488,1185.5
579.024,1178.7
579.559,1178.6
580.095,1194.9
580.63,1199.9
581.166,1218.8
581.701,1356.6
582.236,2707.3
582.771,1270.1
583.306,1223.4
583.841,1219.8
584.376,1234.8
584.911,1252.3
585.445,1411.1
585.98,2005.7
586.514,1634.1
587.048,1289.3
587.583,1256.7
588.117,1239.1
588.651,1241.0
589.185,1238.5
589.719,1235.0
590.253,1241.0
590.786,1233.9
591.32,1242.0
591.853,1241.5
592.387,1245.8
592.92,1244.3
593.454,1238.1
593.987,1251.3
594.52,1248.6
595.053,1253.6
595.586,1256.5
596.119,1264.0
596.651,1255.1
597.184,1264.3
597.717,1260.3
598.249,1264.7
598.782,1267.1
599.314,1273.8
599.846,1264.9
600.379,1263.5
600.911,1267.5
601.443,1266.6
601.975,1268.5
602.507,1270.9
603.038,1269.6
603.57,1275.7
604.102,1282.3
604.633,1264.0
605.165,1268.3
605.696,1257.5
606.228,1259.4
606.759,1255.6
607.29,1265.9
607.821,1256.2
608.352,1271.9
608.883,1270.5
609.414,1272.4
609.945,1270.0
610.476,1268.7
611.006,1266.1
611.537,1273.5
612.067,1273.4
612.598,1275.3
613.128,1288.7
613.659,1289.0
614.189,1293.3
614.719,1294.8
615.249,1292.8
615.779,1292.0
616.309,1297.7
616.839,1296.0
617.369,1304.8
617.899,1316.3
618.428,1314.2
618.958,1314.6
619.487,1303.8
620.017,1307.2
620.546,1307.5
621.076,1300.6
621.605,1299.8
622.134,1322.0
622.663,1317.7
623.193,1314.9
623.722,1329.1
624.251,1328.9
624.78,1339.7
625.308,1350.8
625.837,1346.4
626.366,1340.6
626.895,1342.8
627.423,1336.5
627.952,1362.8
628.48,1373.6
629.009,1414.7
629.537,1415.7
630.065,1405.2
630.594,1414.9
631.122,1490.5
631.65,1663.0
632.178,1625.4
632.706,1529.4
633.234,1505.6
633.762,1481.6
634.29,1458.4
634.818,1440.5
635.346,1455.4
635.873,1549.3
636.401,1705.3
636.929,1667.5
637.456,1510.7
637.984,1463.8
638.511,1464.8
639.039,1469.6
639.566,1469.1
640.093,1479.2
640.62,1480.7
641.148,1482.0
641.675,1482.2
642.202,1513.2
642.729,1506.9
643.256,1498.4
643.783,1493.1
644.31,1488.6
644.837,1499.6
645.364,1491.9
645.891,1504.2
646.417,1495.6
646.944,1503.7
647.471,1514.4
647.997,1517.4
648.524,1516.8
649.051,1515.4
649.577,1514.2
650.104,1518.0
650.63,1519.9
651.157,1521.4
651.683,1535.6
652.209,1543.3
652.736,1529.1
653.262,1526.4
653.788,1541.6
654.314,1541.0
654.84,1536.6
655.366,1554.7
655.893,1546.0
656.419,1542.8
656.945,1548.5
657.471,1544.5
657.997,1539.9
658.522,1547.4
659.048,1560.4
659.574,1555.8
660.1,1545.5
660.626,1562.4
661.152,1549.0
661.677,1541.0
662.203,1536.5
662.729,1547.4
663.123,1530.7

File: VLFR_06-PET_nobio_Raman_a1d0d689.csv
nm,Intensity
526.532,833.8
527.079,833.75
527.625,833.75
528.172,833.2
528.718,833.65
529.265,833.6
529.811,832.35
530.357,834.2
530.903,832.95
531.449,833.75
531.994,846.7
532.54,835.4
533.085,833.6
533.63,853.4
534.176,2065.5
534.721,1692.45
535.266,1366.35
535.81,1174.4
536.355,1057.4
536.9,1016.2
537.444,996.7
537.988,989.6
538.533,997.0
539.077,993.5
539.621,1012.8
540.165,1013.25
540.708,975.8
541.252,967.7
541.795,964.45
542.339,960.6
542.882,964.5
543.425,967.35
543.968,976.05
544.511,974.7
545.054,975.8
545.597,977.55
546.139,981.75
546.682,982.1
547.224,986.5
547.766,988.15
548.308,994.35
548.85,991.35
549.392,997.6
549.934,997.2
550.475,1032.25
551.017,1017.45
551.558,1009.2
552.1,1015.25
552.641,1030.55
553.182,1038.6
553.723,1031.2
554.264,1031.65
554.804,1033.75
555.345,1047.9
555.885,1098.1
556.426,1105.55
556.966,1114.1
557.506,1276.5
558.046,1139.55
558.586,1141.3
559.126,1096.15
559.665,1071.6
560.205,1078.1
560.745,1080.55
561.284,1085.8
561.823,1091.15
562.362,1108.75
562.901,1126.75
563.44,1131.25
563.979,1119.65
564.518,1135.25
565.056,1188.3
565.595,1250.85
566.133,1240.45
566.671,1157.35
567.21,1147.4
567.748,1238.75
568.285,1160.75
568.823,1161.6
569.361,1174.45
569.899,1201.4
570.436,1256.4
570.974,1393.5
571.511,1483.9
572.048,1334.7
572.585,1238.7
573.122,1214.7
573.659,1224.35
574.196,1247.7
574.733,1234.75
575.269,1275.7
575.806,1249.45
576.342,1280.85
576.878,1290.15
577.414,1262.5
577.951,1256.9
578.486,1267.7
579.022,1268.4
579.558,1273.55
580.094,1279.65
580.629,1290.45
581.165,1306.05
581.7,1418.35
582.236,2584.85
582.771,1354.45
583.306,1318.0
583.841,1326.85
584.376,1336.85
584.911,1352.1
585.445,1479.2
585.98,1993.85
586.514,1686.6
587.049,1394.7
587.583,1367.95
588.117,1359.35
588.651,1354.85
589.186,1356.05
589.72,1358.75
590.253,1357.05
590.787,1365.3
591.321,1368.75
591.854,1370.35
592.388,1372.15
592.921,1371.55
593.455,1377.6
593.988,1378.95
594.521,1387.7
595.054,1389.6
595.587,1390.4
596.12,1392.15
596.653,1400.9
597.186,1400.2
597.718,1406.7
598.251,1419.8
598.783,1420.65
599.316,1419.45
599.848,1424.0
600.38,1416.4
600.912,1427.15
601.444,1416.2
601.976,1414.0
602.508,1425.85
603.04,1427.6
603.572,1436.65
604.103,1437.5
604.635,1433.9
605.167,1428.65
605.698,1419.35
606.229,1422.45
606.761,1419.25
607.292,1426.5
607.823,1427.7
608.354,1436.85
608.885,1444.85
609.416,1450.0
609.947,1447.0
610.477,1448.45
611.008,1442.8
611.539,1451.35
612.069,1463.75
612.6,1465.55
613.13,1472.3
613.66,1479.25
614.19,1489.25
614.721,1487.05
615.251,1489.85
615.781,1484.75
616.311,1491.25
616.841,1501.6
617.37,1508.2
617.9,1510.8
618.43,1523.7
618.96,1514.85
619.489,1511.85
620.019,1514.7
620.548,1516.65
621.077,1514.85
621.607,1519.15
622.136,1525.25
622.665,1535.3
623.194,1544.05
623.723,1547.95
624.252,1565.35
624.781,1574.95
625.31,1586.15
625.839,1577.2
626.368,1573.45
626.896,1579.4
627.425,1589.15
627.953,1600.25
628.482,1630.65
629.01,1659.95
629.539,1651.65
630.067,1644.6
630.596,1665.75
631.124,1745.25
631.652,1877.65
632.18,1850.2
632.708,1776.25
633.236,1763.35
633.764,1750.3
634.292,1720.55
634.82,1716.25
635.348,1732.7
635.876,1813.75
636.403,1949.6
636.931,1912.25
637.459,1786.85
637.986,1771.8
638.514,1765.0
639.041,1767.15
639.568,1786.95
640.096,1785.1
640.623,1793.0
641.15,1798.25
641.678,1815.55
642.205,1827.2
642.732,1820.6
643.259,1809.0
643.786,1807.5
644.313,1814.3
644.84,1815.8
645.367,1817.2
645.894,1827.7
646.421,1837.4
646.948,1837.6
647.474,1845.4
648.001,1847.15
648.528,1845.35
649.054,1847.15
649.581,1853.85
650.108,1847.55
650.634,1852.1
651.161,1852.85
651.687,1859.55
652.214,1867.4
652.74,1868.2
653.266,1875.85
653.793,1872.45
654.319,1874.05
654.845,1869.3
655.371,1869.9
655.897,1881.2
656.424,1873.1
656.95,1879.55
657.476,1883.5
658.002,1873.45
658.528,1888.5
659.054,1885.15
659.58,1885.45
660.106,1889.45
660.631,1888.8
661.157,1877.35
661.683,1870.0
662.209,1864.15
662.735,1869.85
663.129,1862.25

File: VLFR_06-PET_nobio_Raman_ab965163.csv
nm,Intensity
526.486,829.6
527.033,830.1
527.579,830.5
528.126,829.8
528.672,830.2
529.219,830.5
529.765,830.9
530.311,830.4
530.857,829.2
531.403,831.1
531.948,831.3
532.494,831.7
533.039,829.1
533.585,837.9
534.13,2089.5
534.675,1757.5
535.22,1414.9
535.764,1210.5
536.309,1082.5
536.854,1030.3
537.398,1009.3
537.942,1006.9
538.486,1010.0
539.03,1010.1
539.574,1020.4
540.118,1038.1
540.662,991.7
541.205,984.3
541.749,971.9
542.292,978.2
542.835,978.0
543.378,979.7
543.921,983.0
544.464,983.4
545.006,985.5
545.549,985.5
546.091,983.4
546.634,990.5
547.176,987.7
547.718,985.8
548.26,987.4
548.802,991.4
549.343,998.5
549.885,1002.4
550.426,1006.4
550.968,1024.7
551.509,1000.2
552.05,1005.2
552.591,1008.8
553.132,1035.1
553.673,1011.6
554.214,1008.0
554.754,1012.9
555.295,1024.6
555.835,1076.8
556.375,1081.2
556.915,1087.7
557.455,1221.4
557.995,1122.5
558.535,1116.2
559.075,1068.7
559.614,1042.6
560.154,1041.0
560.693,1046.8
561.232,1051.6
561.772,1058.9
562.311,1075.4
562.85,1077.2
563.388,1087.8
563.927,1083.2
564.466,1090.6
565.004,1125.9
565.543,1200.4
566.081,1205.6
566.619,1109.3
567.157,1090.7
567.695,1176.2
568.233,1114.8
568.771,1103.1
569.309,1102.3
569.846,1135.9
570.384,1179.7
570.921,1303.5
571.458,1435.5
571.995,1281.9
572.532,1175.8
573.069,1139.7
573.606,1148.1
574.143,1177.5
574.68,1167.3
575.216,1195.2
575.753,1177.1
576.289,1200.1
576.825,1219.6
577.361,1193.2
577.897,1175.6
578.433,1186.1
578.969,1190.3
579.505,1193.8
580.041,1200.7
580.576,1199.5
581.112,1231.0
581.647,1297.4
582.183,2462.3
582.718,1286.6
583.253,1234.9
583.788,1246.9
584.323,1240.1
584.858,1256.3
585.392,1352.5
585.927,1880.2
586.462,1664.3
586.996,1312.9
587.53,1268.6
588.065,1260.6
588.599,1260.6
589.133,1259.9
589.667,1256.2
590.201,1255.7
590.735,1259.1
591.268,1259.5
591.802,1253.8
592.335,1265.3
592.869,1264.4
593.402,1264.6
593.936,1262.6
594.469,1274.7
595.002,1282.3
595.535,1275.3
596.068,1278.2
596.601,1289.1
597.133,1289.1
597.666,1277.7
598.199,1297.5
598.731,1298.5
599.264,1298.3
599.796,1296.6
600.328,1304.0
600.86,1296.1
601.393,1294.7
601.925,1285.6
602.457,1299.8
602.988,1303.2
603.52,1298.5
604.052,1304.7
604.583,1291.8
605.115,1304.4
605.646,1295.7
606.178,1293.1
606.709,1287.6
607.24,1300.4
607.771,1290.5
608.302,1293.2
608.833,1301.8
609.364,1300.7
609.895,1306.8
610.426,1307.2
610.957,1304.3
611.487,1309.5
612.018,1313.3
612.548,1317.9
613.078,1322.8
613.609,1325.9
614.139,1338.7
614.669,1330.0
615.199,1330.8
615.729,1338.8
616.259,1333.7
616.789,1338.9
617.319,1348.1
617.849,1357.3
618.378,1361.0
618.908,1358.4
619.437,1356.6
619.967,1349.8
620.496,1359.8
621.025,1353.3
621.555,1367.5
622.084,1363.8
622.613,1374.0
623.142,1385.2
623.671,1383.4
624.2,1387.8
624.729,1407.2
625.258,1402.5
625.786,1400.3
626.315,1393.9
626.844,1419.0
627.372,1404.9
627.901,1409.3
628.429,1446.6
628.957,1476.5
629.486,1467.1
630.014,1465.8
630.542,1475.9
631.07,1524.8
631.598,1676.7
632.126,1681.9
632.654,1587.3
633.182,1577.3
633.71,1570.2
634.237,1530.6
634.765,1512.6
635.293,1541.5
635.82,1598.5
636.348,1714.3
636.875,1741.1
637.403,1591.5
637.93,1566.3
638.458,1549.9
638.985,1556.7
639.512,1565.1
640.039,1571.7
640.566,1571.5
641.093,1583.5
641.62,1591.7
642.147,1599.5
642.674,1606.6
643.201,1592.8
643.728,1593.8
644.255,1595.0
644.781,1597.9
645.308,1604.8
645.835,1601.3
646.361,1605.7
646.888,1624.8
647.414,1625.6
647.941,1632.7
648.467,1627.3
648.993,1633.5
649.52,1632.2
650.046,1634.7
650.572,1628.9
651.098,1640.6
651.625,1654.8
652.151,1639.0
652.677,1650.3
653.203,1647.1
653.729,1667.0
654.255,1660.9
654.78,1663.1
655.306,1663.5
655.832,1663.5
656.358,1665.3
656.884,1667.6
657.409,1665.0
657.935,1677.9
658.461,1660.3
658.986,1672.0
659.512,1670.4
660.037,1670.3
660.563,1666.2
661.088,1652.0
661.614,1663.1
662.139,1652.1
662.664,1657.5
663.058,1660.4

File: VLFR_06-PET_nobio_Raman_acc5168f.csv
cm-1,Intensity
-123.878,1855.55
-105.821,1856.6
-87.8007,1856.9
-69.8161,1856.25
-51.8675,1857.55
-33.9547,1862.55
-16.0776,1918.55
1.76388,3802.9
19.5698,1861.25
37.3403,1869.7
55.0755,3519.65
72.7754,7081.85
90.4402,5752.8
108.07,4465.0
125.665,3553.3
143.225,3017.5
160.75,2812.8
178.241,2716.85
195.697,2682.15
213.119,2699.05
230.506,2705.8
247.859,2756.3
265.178,2879.8
282.463,2771.4
299.713,2623.55
316.93,2586.85
334.113,2589.6
351.263,2589.2
368.379,2606.95
385.461,2593.25
402.51,2648.9
419.526,2621.95
436.508,2648.85
453.458,2664.55
470.374,2669.25
487.257,2651.0
504.107,2690.25
520.925,2692.35
537.71,2717.1
554.462,2755.1
571.182,2734.7
587.87,2741.55
604.525,2764.65
621.148,2917.75
637.739,3241.45
654.297,2848.85
670.824,2850.3
687.319,2885.45
703.782,3181.6
720.213,2908.4
736.613,2938.05
752.981,2951.05
769.317,3015.7
785.623,3173.45
801.897,3402.75
818.139,3470.1
834.351,3530.65
850.532,4355.0
866.681,3845.0
882.8,3714.2
898.888,3461.05
914.945,3228.95
930.972,3212.55
946.968,3230.9
962.934,3275.75
978.869,3345.35
994.774,3392.05
1010.65,3446.85
1026.49,3560.95
1042.31,3518.5
1058.09,3453.2
1073.85,3506.15
1089.57,3859.4
1105.27,4278.9
1120.93,4457.3
1136.57,3802.9
1152.18,3589.9
1167.75,3865.7
1183.3,3963.6
1198.82,3637.15
1214.31,3615.4
1229.77,3704.45
1245.2,3917.4
1260.6,4317.25
1275.97,5154.75
1291.32,5797.35
1306.63,4798.15
1321.92,4121.8
1337.18,3911.0
1352.41,3881.6
1367.61,4050.8
1382.78,3959.7
1397.93,4065.9
1413.05,4301.55
1428.14,4056.2
1443.2,4292.1
1458.23,4321.7
1473.23,4124.45
1488.21,4052.55
1503.16,4054.8
1518.08,4083.8
1532.97,4112.3
1547.84,4164.1
1562.68,4228.4
1577.49,4374.55
1592.27,4561.95
1607.03,8319.3
1621.76,7519.9
1636.46,4444.05
1651.14,4353.5
1665.78,4394.65
1680.41,4390.7
1695.0,4587.1
1709.57,5587.45
1724.11,8455.2
1738.62,7004.75
1753.11,4907.0
1767.57,4560.1
1782.01,4526.65
1796.41,4510.25
1810.8,4550.8
1825.15,4505.95
1839.48,4494.6
1853.79,4458.9
1868.06,4525.45
1882.31,4497.9
1896.54,4591.15
1910.74,4599.25
1924.91,4573.35
1939.06,4610.55
1953.19,4556.7
1967.28,4686.4
1981.35,4656.25
1995.4,4628.45
2009.42,4651.5
2023.42,4671.35
2037.39,4757.8
2051.33,4673.95
2065.25,4641.7
2079.15,4708.45
2093.01,4741.75
2106.86,4709.9
2120.68,4792.2
2134.47,4747.9
2148.24,4679.55
2161.99,4768.15
2175.71,4735.55
2189.41,4835.6
2203.08,4798.4
2216.73,4726.9
2230.35,4721.7
2243.95,4799.85
2257.52,4763.65
2271.07,4677.6
2284.6,4822.25
2298.1,4703.85
2311.58,4785.3
2325.03,4736.35
2338.46,4806.4
2351.87,4800.85
2365.25,4810.55
2378.61,4778.35
2391.94,4722.15
2405.26,4808.2
2418.54,4783.9
2431.81,4761.6
2445.05,4798.35
2458.27,4745.25
2471.46,4747.4
2484.63,4785.3
2497.78,4811.6
2510.9,4797.65
2524.0,4870.15
2537.08,4752.2
2550.14,4842.5
2563.17,4892.85
2576.18,4923.75
2589.17,4910.95
2602.13,4832.85
2615.07,4912.3
2627.99,4846.5
2640.89,4862.9
2653.76,4881.1
2666.61,4906.8
2679.44,4880.45
2692.25,4893.2
2705.03,4900.8
2717.79,4870.5
2730.53,4930.25
2743.25,4929.9
2755.94,4955.65
2768.61,5000.95
2781.27,5062.35
2793.89,5063.6
2806.5,4957.05
2819.09,5055.1
2831.65,5054.55
2844.19,5077.25
2856.71,5049.5
2869.21,5262.4
2881.69,5287.25
2894.14,5408.0
2906.58,5515.05
2918.99,5420.6
2931.38,5399.7
2943.75,5912.3
2956.1,6550.3
2968.42,6677.9
2980.73,6200.1
2993.01,6067.0
3005.28,5952.45
3017.52,5759.6
3029.74,5746.95
3041.94,5621.0
3054.12,5742.0
3066.28,6237.0
3078.42,6999.15
3090.54,6711.65
3102.63,5977.5
3114.71,5853.45
3126.77,5729.05
3138.8,5791.9
3150.82,5781.75
3162.81,5675.2
3174.78,5756.95
3186.74,5717.9
3198.67,5758.5
3210.58,5752.65
3222.47,5876.45
3234.35,5905.15
3246.2,5851.9
3258.03,5914.15
3269.84,5812.45
3281.64,5774.2
3293.41,6000.65
3305.16,5838.3
3316.89,5858.8
3328.61,5831.55
3340.3,5874.15
3351.97,5828.3
3363.63,5814.4
3375.26,5856.95
3386.88,5749.6
3398.47,5769.2
3410.05,5824.95
3421.6,5796.9
3433.14,5700.25
3444.66,5720.5
3456.15,5835.05
3467.63,5635.45
3479.09,5815.5
3490.53,5700.1
3501.96,5620.95
3513.36,5690.1
3524.74,5666.05
3536.11,5624.2
3547.45,5494.8
3558.78,5500.4
3570.09,5486.5
3581.37,5426.15
3592.64,5426.1
3603.9,5377.9
3615.13,5543.4
3626.34,5233.15
3637.54,5342.95
3648.72,5156.65
3659.87,5256.95
3665.45,5286.55

File: VLFR_06-PET_nobio_Raman_ae96dcf8.csv
nm,Intensity
526.532,833.4
527.079,834.25
527.625,834.0
528.172,833.15
528.718,833.95
529.265,833.7
529.811,834.35
530.357,834.0
530.903,833.75
531.449,834.2
531.994,840.55
532.54,833.05
533.085,833.85
533.63,860.0
534.176,2578.95
534.721,2048.6
535.266,1579.95
535.81,1295.15
536.355,1131.2
536.9,1068.85
537.444,1041.3
537.988,1027.8
538.533,1039.55
539.077,1030.45
539.621,1054.85
540.165,1057.85
540.708,1009.1
541.252,991.35
541.795,986.8
542.339,984.9
542.882,986.3
543.425,988.85
543.968,997.05
544.511,992.4
545.054,995.95
545.597,996.65
546.139,1002.25
546.682,1002.8
547.224,1006.7
547.766,1010.15
548.308,1011.2
548.85,1013.65
549.392,1019.8
549.934,1025.05
550.475,1066.65
551.017,1047.05
551.558,1037.0
552.1,1042.0
552.641,1064.25
553.182,1066.6
553.723,1058.6
554.264,1052.25
554.804,1058.2
555.345,1086.65
555.885,1145.25
556.426,1167.85
556.966,1179.8
557.506,1395.2
558.046,1206.65
558.586,1201.85
559.126,1141.9
559.665,1107.6
560.205,1111.15
560.745,1113.9
561.284,1120.3
561.823,1133.5
562.362,1149.75
562.901,1178.7
563.44,1177.15
563.979,1161.8
564.518,1182.35
565.056,1259.15
565.595,1341.85
566.133,1326.0
566.671,1210.15
567.21,1191.7
567.748,1312.0
568.285,1214.35
568.823,1205.15
569.361,1217.7
569.899,1262.95
570.436,1335.5
570.974,1521.8
571.511,1650.65
572.048,1438.3
572.585,1293.7
573.122,1259.6
573.659,1276.75
574.196,1315.45
574.733,1290.9
575.269,1346.1
575.806,1302.55
576.342,1346.5
576.878,1369.1
577.414,1325.9
577.951,1313.65
578.486,1324.0
579.022,1326.85
579.558,1328.5
580.094,1337.2
580.629,1354.8
581.165,1379.8
581.7,1526.4
582.236,3147.4
582.771,1441.3
583.306,1390.15
583.841,1386.15
584.376,1398.5
584.911,1426.15
585.445,1602.25
585.98,2312.7
586.514,1887.4
587.049,1487.05
587.583,1442.2
588.117,1431.75
588.651,1425.85
589.186,1431.8
589.72,1427.85
590.253,1434.55
590.787,1440.55
591.321,1439.1
591.854,1439.05
592.388,1445.45
592.921,1439.15
593.455,1448.95
593.988,1449.55
594.521,1454.2
595.054,1455.15
595.587,1466.35
596.12,1478.05
596.653,1475.55
597.186,1479.6
597.718,1486.55
598.251,1490.75
598.783,1499.25
599.316,1496.5
599.848,1502.6
600.38,1498.95
600.912,1497.9
601.444,1492.65
601.976,1497.75
602.508,1502.45
603.04,1514.4
603.572,1518.9
604.103,1510.1
604.635,1509.7
605.167,1496.55
605.698,1500.65
606.229,1494.45
606.761,1502.25
607.292,1508.4
607.823,1510.85
608.354,1517.5
608.885,1522.65
609.416,1523.65
609.947,1526.7
610.477,1517.8
611.008,1521.3
611.539,1527.95
612.069,1529.15
612.6,1543.95
613.13,1554.25
613.66,1555.85
614.19,1566.0
614.721,1560.95
615.251,1560.3
615.781,1566.8
616.311,1568.3
616.841,1584.45
617.37,1591.65
617.9,1597.6
618.43,1605.35
618.96,1599.85
619.489,1594.4
620.019,1598.45
620.548,1594.35
621.077,1597.05
621.607,1609.0
622.136,1613.5
622.665,1613.8
623.194,1639.05
623.723,1650.6
624.252,1647.35
624.781,1661.35
625.31,1665.1
625.839,1676.7
626.368,1666.95
626.896,1676.75
627.425,1676.25
627.953,1704.75
628.482,1719.5
629.01,1760.15
629.539,1765.5
630.067,1758.75
630.596,1770.2
631.124,1863.7
631.652,2037.9
632.18,2001.1
632.708,1899.35
633.236,1893.8
633.764,1869.9
634.292,1839.7
634.82,1835.45
635.348,1858.25
635.876,1943.35
636.403,2126.2
636.931,2093.8
637.459,1911.3
637.986,1894.4
638.514,1884.2
639.041,1885.15
639.568,1894.25
640.096,1899.7
640.623,1903.45
641.15,1925.95
641.678,1927.5
642.205,1952.35
642.732,1953.1
643.259,1936.25
643.786,1931.15
644.313,1937.35
644.84,1942.45
645.367,1941.65
645.894,1955.7
646.421,1954.6
646.948,1967.0
647.474,1982.9
648.001,1988.15
648.528,1979.45
649.054,1972.6
649.581,1979.2
650.108,1990.0
650.634,1988.7
651.161,1985.45
651.687,2004.25
652.214,2002.0
652.74,2002.45
653.266,2003.15
653.793,2018.05
654.319,2016.05
654.845,2012.85
655.371,2004.75
655.897,2010.5
656.424,2019.5
656.95,2027.7
657.476,2009.1
658.002,2013.55
658.528,2027.8
659.054,2012.75
659.58,2029.55
660.106,2020.65
660.631,2020.35
661.157,2006.9
661.683,1999.4
662.209,2004.55
662.735,2003.35
663.129,2007.0