Folder: MPX_specDB/spectra (part 151)

File: VLFR_08-PLA_nobio_Raman_611f5796.csv
nm,Intensity
526.486,829.0
527.033,828.8
527.579,829.2
528.126,829.0
528.672,828.933
529.219,828.567
529.765,829.833
530.311,829.867
530.857,829.133
531.403,829.567
531.948,831.8
532.494,830.667
533.039,829.4
533.585,829.2
534.13,861.367
534.675,858.333
535.22,854.067
535.764,852.533
536.309,851.9
536.854,852.367
537.398,851.167
537.942,853.167
538.486,852.333
539.03,852.967
539.574,851.867
540.118,851.867
540.662,853.2
541.205,854.0
541.749,852.133
542.292,853.567
542.835,853.2
543.378,855.833
543.921,855.833
544.464,854.433
545.006,855.2
545.549,854.9
546.091,854.433
546.634,856.4
547.176,854.867
547.718,856.6
548.26,855.433
548.802,856.033
549.343,855.933
549.885,857.167
550.426,856.7
550.968,859.133
551.509,859.9
552.05,858.667
552.591,858.933
553.132,858.1
553.673,858.267
554.214,858.733
554.754,859.167
555.295,859.467
555.835,858.167
556.375,858.867
556.915,858.967
557.455,860.333
557.995,869.233
558.535,862.1
559.075,860.9
559.614,859.867
560.154,859.8
560.693,859.067
561.232,858.933
561.772,859.3
562.311,860.8
562.85,862.4
563.388,863.1
563.927,864.567
564.466,863.967
565.004,864.667
565.543,865.767
566.081,867.2
566.619,865.033
567.157,862.633
567.695,861.433
568.233,864.433
568.771,865.533
569.309,865.333
569.846,866.4
570.384,866.267
570.921,866.0
571.458,867.033
571.995,868.1
572.532,866.833
573.069,869.4
573.606,868.633
574.143,869.667
574.68,870.3
575.216,868.167
575.753,868.267
576.289,869.2
576.825,874.967
577.361,869.633
577.897,869.367
578.433,868.667
578.969,868.733
579.505,869.767
580.041,870.067
580.576,869.967
581.112,870.2
581.647,870.0
582.183,869.5
582.718,870.033
583.253,866.9
583.788,868.967
584.323,870.3
584.858,869.133
585.392,869.533
585.927,869.167
586.462,870.633
586.996,874.6
587.53,876.367
588.065,872.867
588.599,871.333
589.133,871.2
589.667,869.3
590.201,869.067
590.735,869.9
591.268,869.067
591.802,870.8
592.335,870.767
592.869,869.1
593.402,868.9
593.936,869.367
594.469,870.467
595.002,870.533
595.535,869.2
596.068,871.1
596.601,868.433
597.133,869.433
597.666,869.633
598.199,868.767
598.731,871.1
599.264,870.1
599.796,870.933
600.328,871.4
600.86,870.067
601.393,869.933
601.925,870.3
602.457,870.267
602.988,870.3
603.52,869.2
604.052,871.567
604.583,870.3
605.115,869.167
605.646,868.5
606.178,869.467
606.709,867.0
607.24,870.833
607.771,869.067
608.302,868.2
608.833,869.133
609.364,869.3
609.895,869.333
610.426,870.3
610.957,868.7
611.487,868.7
612.018,866.267
612.548,869.667
613.078,867.833
613.609,869.167
614.139,869.967
614.669,869.667
615.199,868.7
615.729,869.433
616.259,870.2
616.789,868.433
617.319,868.833
617.849,869.967
618.378,868.567
618.908,868.133
619.437,868.833
619.967,867.567
620.496,868.5
621.025,868.0
621.555,867.733
622.084,868.233
622.613,867.633
623.142,870.133
623.671,869.833
624.2,868.8
624.729,868.133
625.258,869.267
625.786,868.867
626.315,868.667
626.844,868.733
627.372,868.567
627.901,869.867
628.429,876.733
628.957,874.5
629.486,873.433
630.014,876.4
630.542,881.433
631.07,921.8
631.598,898.467
632.126,880.467
632.654,879.533
633.182,889.167
633.71,885.167
634.237,874.633
634.765,869.233
635.293,866.2
635.82,866.767
636.348,866.067
636.875,864.5
637.403,867.767
637.93,865.133
638.458,864.5
638.985,865.433
639.512,864.667
640.039,864.9
640.566,863.9
641.093,865.0
641.62,864.033
642.147,865.067
642.674,864.2
643.201,862.2
643.728,861.733
644.255,862.533
644.781,863.3
645.308,862.167
645.835,860.7
646.361,862.633
646.888,860.4
647.414,862.8
647.941,861.9
648.467,860.433
648.993,859.767
649.52,861.767
650.046,859.933
650.572,858.633
651.098,859.367
651.625,859.6
652.151,859.8
652.677,860.4
653.203,860.5
653.729,859.133
654.255,859.267
654.78,859.233
655.306,859.0
655.832,857.733
656.358,859.067
656.884,858.5
657.409,857.733
657.935,858.033
658.461,857.2
658.986,857.267
659.512,858.267
660.037,857.767
660.563,856.567
661.088,858.0
661.614,856.933
662.139,855.167
662.664,856.3
663.058,856.833

File: VLFR_08-PLA_nobio_Raman_762d101f.csv
nm,Intensity
526.532,830.167
527.079,830.5
527.625,830.4
528.172,830.4
528.718,830.6
529.265,830.2
529.811,829.8
530.357,830.567
530.903,830.5
531.449,830.433
531.994,837.033
532.54,830.5
533.085,829.8
533.63,834.033
534.176,1050.43
534.721,996.033
535.266,954.767
535.81,934.9
536.355,926.967
536.9,925.633
537.444,916.067
537.988,912.233
538.533,901.133
539.077,897.467
539.621,892.9
540.165,887.633
540.708,908.3
541.252,908.0
541.795,897.2
542.339,891.9
542.882,893.8
543.425,918.533
543.968,926.6
544.511,901.633
545.054,890.967
545.597,886.5
546.139,883.533
546.682,887.6
547.224,888.7
547.766,885.8
548.308,887.067
548.85,888.4
549.392,891.7
549.934,888.633
550.475,890.867
551.017,895.033
551.558,895.333
552.1,897.0
552.641,900.333
553.182,898.933
553.723,896.967
554.264,905.433
554.804,897.167
555.345,891.267
555.885,887.033
556.426,889.8
556.966,894.267
557.506,911.167
558.046,1047.83
558.586,924.5
559.126,906.933
559.665,902.2
560.205,899.5
560.745,894.8
561.284,891.267
561.823,891.567
562.362,894.933
562.901,906.033
563.44,942.467
563.979,915.8
564.518,906.533
565.056,930.7
565.595,924.667
566.133,958.433
566.671,918.333
567.21,899.8
567.748,906.833
568.285,908.4
568.823,907.567
569.361,906.267
569.899,903.433
570.436,908.7
570.974,905.933
571.511,926.033
572.048,927.333
572.585,919.333
573.122,921.333
573.659,924.633
574.196,919.433
574.733,932.4
575.269,908.567
575.806,909.1
576.342,932.633
576.878,997.267
577.414,930.567
577.951,909.5
578.486,910.233
579.022,909.833
579.558,906.333
580.094,905.867
580.629,906.467
581.165,907.9
581.7,906.9
582.236,909.333
582.771,910.267
583.306,910.1
583.841,912.567
584.376,913.033
584.911,913.067
585.445,912.833
585.98,914.533
586.514,928.2
587.049,968.067
587.583,991.067
588.117,933.233
588.651,915.233
589.186,911.5
589.72,911.3
590.253,907.7
590.787,911.267
591.321,910.733
591.854,910.767
592.388,908.767
592.921,908.367
593.455,907.6
593.988,911.8
594.521,909.2
595.054,912.133
595.587,911.567
596.12,909.4
596.653,909.8
597.186,909.067
597.718,909.967
598.251,909.6
598.783,911.467
599.316,909.933
599.848,911.4
600.38,910.767
600.912,909.9
601.444,908.7
601.976,909.6
602.508,909.6
603.04,909.267
603.572,910.067
604.103,910.3
604.635,910.7
605.167,909.867
605.698,910.033
606.229,906.833
606.761,907.833
607.292,906.1
607.823,907.167
608.354,908.533
608.885,907.467
609.416,907.767
609.947,908.2
610.477,907.667
611.008,907.167
611.539,908.067
612.069,909.633
612.6,910.767
613.13,910.967
613.66,909.1
614.19,911.667
614.721,909.3
615.251,910.767
615.781,908.433
616.311,911.433
616.841,911.167
617.37,910.0
617.9,910.2
618.43,910.133
618.96,906.867
619.489,911.167
620.019,910.033
620.548,907.867
621.077,910.9
621.607,910.3
622.136,910.833
622.665,920.7
623.194,927.367
623.723,920.733
624.252,915.733
624.781,912.133
625.31,909.9
625.839,908.867
626.368,909.4
626.896,911.533
627.425,912.4
627.953,926.2
628.482,1003.07
629.01,978.4
629.539,979.7
630.067,987.8
630.596,1061.47
631.124,1491.67
631.652,1183.67
632.18,1056.0
632.708,1038.67
633.236,1142.63
633.764,1087.2
634.292,983.933
634.82,932.167
635.348,916.2
635.876,911.267
636.403,908.333
636.931,904.033
637.459,903.233
637.986,902.167
638.514,901.333
639.041,902.4
639.568,904.767
640.096,901.367
640.623,899.333
641.15,903.4
641.678,903.233
642.205,905.933
642.732,902.733
643.259,901.2
643.786,898.333
644.313,896.467
644.84,896.067
645.367,894.767
645.894,895.8
646.421,895.333
646.948,892.033
647.474,891.967
648.001,894.4
648.528,893.733
649.054,893.033
649.581,891.967
650.108,891.267
650.634,891.6
651.161,891.0
651.687,890.0
652.214,891.8
652.74,888.733
653.266,890.3
653.793,889.767
654.319,888.033
654.845,888.633
655.371,889.2
655.897,889.2
656.424,890.033
656.95,890.6
657.476,890.033
658.002,889.733
658.528,886.133
659.054,888.333
659.58,886.867
660.106,888.9
660.631,888.733
661.157,885.667
661.683,883.667
662.209,883.8
662.735,885.667
663.129,883.533

File: VLFR_08-PLA_nobio_Raman_806a5e4f.csv
nm,Intensity
526.5,830.2
527.047,829.1
527.594,829.2
528.14,829.8
528.687,829.2
529.233,829.2
529.779,829.4
530.325,831.8
530.871,829.4
531.417,829.8
531.962,832.7
532.508,830.1
533.053,829.1
533.599,829.9
534.144,1043.8
534.689,1000.5
535.234,964.8
535.778,942.6
536.323,941.1
536.867,939.3
537.412,925.3
537.956,924.2
538.5,918.0
539.044,910.6
539.588,908.4
540.132,901.6
540.675,920.2
541.219,918.6
541.762,909.3
542.305,902.8
542.848,905.6
543.391,928.7
543.934,939.2
544.477,919.2
545.02,908.4
545.562,901.0
546.105,899.7
546.647,904.9
547.189,905.6
547.731,904.5
548.273,902.3
548.815,907.3
549.356,909.4
549.898,912.2
550.439,908.9
550.981,912.2
551.522,920.3
552.063,916.2
552.604,918.6
553.145,916.8
553.686,916.8
554.226,929.3
554.767,918.6
555.307,912.4
555.848,908.1
556.388,912.8
556.928,918.7
557.468,930.7
558.008,1041.9
558.547,947.8
559.087,927.7
559.626,926.5
560.166,918.0
560.705,917.6
561.244,913.5
561.783,917.6
562.322,919.3
562.861,929.8
563.4,959.6
563.939,942.2
564.477,930.5
565.015,949.9
565.554,944.4
566.092,978.9
566.63,945.4
567.168,927.3
567.706,928.8
568.244,939.5
568.781,932.9
569.319,932.8
569.857,933.5
570.394,931.5
570.931,937.1
571.468,948.9
572.005,953.9
572.542,946.0
573.079,945.5
573.616,951.8
574.153,945.8
574.689,959.5
575.226,939.5
575.762,937.2
576.298,955.5
576.834,1016.2
577.371,965.5
577.907,940.5
578.442,941.6
578.978,936.8
579.514,939.9
580.049,943.9
580.585,935.9
581.12,939.7
581.656,938.7
582.191,939.6
582.726,941.3
583.261,939.9
583.796,940.5
584.331,940.6
584.865,945.0
585.4,940.6
585.935,941.4
586.469,954.6
587.004,992.3
587.538,1013.5
588.072,968.8
588.606,945.0
589.14,942.4
589.674,940.2
590.208,940.3
590.742,943.1
591.275,943.9
591.809,942.9
592.342,946.9
592.876,940.6
593.409,940.8
593.942,941.0
594.476,943.2
595.009,943.3
595.542,941.6
596.075,945.4
596.607,942.2
597.14,944.6
597.673,943.1
598.205,945.6
598.738,942.0
599.27,945.4
599.803,939.7
600.335,943.4
600.867,943.1
601.399,944.3
601.931,941.8
602.463,942.4
602.995,940.1
603.527,943.4
604.058,945.2
604.59,941.6
605.122,937.9
605.653,939.9
606.184,939.9
606.716,939.3
607.247,938.1
607.778,937.2
608.309,938.4
608.84,938.8
609.371,938.7
609.902,935.3
610.433,939.1
610.964,938.4
611.494,941.4
612.025,934.7
612.556,940.8
613.086,936.9
613.616,940.2
614.147,937.7
614.677,940.9
615.207,941.0
615.737,935.4
616.267,939.2
616.797,939.3
617.327,942.1
617.857,938.3
618.387,940.4
618.917,943.4
619.446,940.5
619.976,937.2
620.505,936.5
621.035,939.2
621.564,937.5
622.093,938.1
622.623,944.3
623.152,951.5
623.681,947.9
624.21,946.0
624.739,941.9
625.268,939.6
625.797,936.1
626.326,939.5
626.855,938.8
627.383,938.3
627.912,950.2
628.441,1007.5
628.969,1001.7
629.498,999.5
630.026,997.3
630.554,1060.1
631.083,1410.2
631.611,1184.9
632.139,1059.7
632.667,1035.1
633.195,1125.5
633.724,1087.0
634.252,1003.9
634.779,954.4
635.307,941.3
635.835,936.1
636.363,932.8
636.891,932.0
637.418,930.3
637.946,929.9
638.474,929.5
639.001,926.8
639.529,927.1
640.056,927.5
640.583,927.7
641.111,925.9
641.638,929.1
642.165,921.9
642.692,925.1
643.22,922.8
643.747,919.7
644.274,923.6
644.801,916.8
645.328,917.4
645.854,917.0
646.381,916.8
646.908,919.3
647.435,916.5
647.962,916.2
648.488,912.8
649.015,917.3
649.542,912.4
650.068,914.4
650.595,917.2
651.121,912.5
651.648,915.2
652.174,917.0
652.7,914.1
653.227,917.0
653.753,913.5
654.279,909.1
654.805,910.9
655.331,912.5
655.858,910.3
656.384,913.2
656.91,910.9
657.436,908.6
657.962,911.0
658.488,909.8
659.013,909.6
659.539,905.3
660.065,905.0
660.591,909.8
661.117,905.4
661.642,909.1
662.168,900.0
662.694,907.7
663.088,901.8

File: VLFR_08-PLA_nobio_Raman_912f177a.csv
nm,Intensity
526.508,830.9
527.055,831.3
527.602,830.1
528.149,829.4
528.695,829.8
529.241,830.1
529.787,832.6
530.334,831.2
530.879,829.6
531.425,830.0
531.971,832.4
532.516,832.2
533.062,830.0
533.607,831.7
534.152,1084.8
534.697,1035.2
535.242,990.4
535.786,969.8
536.331,962.0
536.876,961.5
537.42,951.7
537.964,948.0
538.508,935.4
539.052,930.5
539.596,929.2
540.14,923.0
540.683,943.1
541.227,945.9
541.77,936.0
542.313,931.1
542.856,933.4
543.399,961.5
543.942,972.1
544.485,946.6
545.027,932.2
545.57,927.3
546.112,926.3
546.654,928.7
547.196,932.4
547.738,931.0
548.28,931.2
548.822,935.7
549.363,934.3
549.905,933.8
550.446,938.6
550.988,938.5
551.529,941.7
552.07,944.3
552.611,947.3
553.152,948.2
553.692,945.3
554.233,951.2
554.773,947.8
555.314,943.7
555.854,936.9
556.394,939.0
556.934,945.5
557.474,961.6
558.014,1096.1
558.553,983.8
559.093,958.0
559.632,957.3
560.172,952.2
560.711,952.7
561.25,949.7
561.789,947.9
562.328,947.1
562.867,958.9
563.406,999.6
563.944,973.6
564.483,967.9
565.021,990.2
565.559,985.2
566.098,1018.4
566.636,985.8
567.174,957.8
567.711,965.9
568.249,969.8
568.787,969.8
569.324,973.0
569.862,966.0
570.399,968.2
570.936,966.6
571.474,992.9
572.011,994.2
572.548,982.9
573.084,983.6
573.621,988.9
574.158,985.4
574.694,1003.4
575.231,972.8
575.767,976.1
576.303,991.9
576.84,1061.4
577.376,1005.9
577.912,980.6
578.447,981.2
578.983,978.2
579.519,976.7
580.054,971.9
580.59,972.5
581.125,977.6
581.661,979.8
582.196,980.7
582.731,977.8
583.266,975.8
583.801,977.0
584.336,981.5
584.87,978.8
585.405,981.5
585.94,986.5
586.474,998.3
587.008,1037.6
587.543,1063.4
588.077,1009.9
588.611,983.4
589.145,974.8
589.679,978.9
590.213,980.9
590.747,979.5
591.28,982.6
591.814,978.3
592.347,981.7
592.881,978.9
593.414,980.5
593.947,980.9
594.48,980.7
595.014,979.6
595.547,980.5
596.079,982.4
596.612,982.7
597.145,981.0
597.678,983.7
598.21,981.9
598.743,980.6
599.275,983.5
599.807,986.8
600.34,980.3
600.872,985.7
601.404,980.3
601.936,982.3
602.468,983.1
603.0,979.7
603.532,986.8
604.063,985.1
604.595,983.7
605.126,982.4
605.658,983.1
606.189,980.5
606.721,977.3
607.252,981.8
607.783,980.0
608.314,981.6
608.845,981.3
609.376,985.6
609.907,982.3
610.438,982.8
610.968,983.4
611.499,980.1
612.03,986.2
612.56,983.4
613.091,983.9
613.621,986.8
614.151,990.9
614.681,984.6
615.212,992.1
615.742,986.8
616.272,990.6
616.802,992.1
617.332,993.0
617.861,987.5
618.391,989.9
618.921,988.4
619.45,989.6
619.98,984.6
620.509,991.4
621.039,990.9
621.568,988.8
622.097,989.6
622.627,999.5
623.156,1009.6
623.685,1001.3
624.214,992.5
624.743,989.9
625.272,991.1
625.801,990.9
626.33,988.8
626.858,993.0
627.387,990.2
627.916,1004.8
628.444,1081.9
628.973,1063.2
629.501,1064.2
630.029,1068.5
630.558,1135.3
631.086,1592.2
631.614,1303.9
632.142,1145.8
632.67,1112.2
633.198,1227.3
633.726,1184.6
634.254,1070.8
634.782,1010.4
635.31,992.2
635.838,982.8
636.365,979.7
636.893,977.5
637.421,974.4
637.948,975.5
638.476,972.4
639.003,974.2
639.531,972.1
640.058,972.5
640.585,976.0
641.113,969.1
641.64,973.8
642.167,967.4
642.694,968.5
643.221,968.7
643.748,961.8
644.275,965.1
644.802,960.6
645.329,958.6
645.856,959.9
646.382,957.1
646.909,955.8
647.436,959.8
647.962,959.4
648.489,953.4
649.016,949.8
649.542,950.4
650.069,954.1
650.595,952.4
651.121,949.0
651.648,952.3
652.174,946.5
652.7,949.7
653.227,949.7
653.753,952.6
654.279,949.6
654.805,944.0
655.331,943.3
655.857,943.6
656.383,946.8
656.909,948.1
657.435,950.2
657.961,944.7
658.487,944.5
659.013,942.7
659.538,947.3
660.064,943.8
660.59,940.4
661.116,936.9
661.641,938.2
662.167,938.3
662.692,935.4
663.087,935.4

File: VLFR_08-PLA_nobio_Raman_3489b4f1.csv
nm,Intensity
526.508,829.5
527.055,830.5
527.602,830.5
528.149,830.7
528.695,830.4
529.241,830.4
529.787,830.3
530.334,829.1
530.879,831.2
531.425,829.8
531.971,833.4
532.516,830.5
533.062,829.7
533.607,832.9
534.152,1041.5
534.697,1007.1
535.242,962.2
535.786,946.2
536.331,936.9
536.876,938.4
537.42,931.5
537.964,924.8
538.508,913.4
539.052,912.3
539.596,911.0
540.14,906.7
540.683,916.3
541.227,923.7
541.77,910.8
542.313,911.1
542.856,912.9
543.399,932.9
543.942,945.3
544.485,922.2
545.027,911.8
545.57,907.7
546.112,907.4
546.654,906.9
547.196,909.2
547.738,912.5
548.28,912.3
548.822,912.7
549.363,914.2
549.905,914.9
550.446,914.9
550.988,915.4
551.529,923.7
552.07,925.3
552.611,925.4
553.152,924.8
553.692,923.8
554.233,932.2
554.773,925.0
555.314,918.4
555.854,915.0
556.394,913.3
556.934,920.5
557.474,934.1
558.014,1053.7
558.553,961.5
559.093,932.9
559.632,930.9
560.172,929.1
560.711,925.0
561.25,918.8
561.789,922.5
562.328,920.7
562.867,930.3
563.406,965.9
563.944,947.8
564.483,936.4
565.021,959.9
565.559,952.6
566.098,985.7
566.636,947.2
567.174,931.7
567.711,937.5
568.249,939.7
568.787,938.5
569.324,940.9
569.862,936.6
570.399,937.6
570.936,941.6
571.474,958.5
572.011,956.9
572.548,947.0
573.084,949.7
573.621,954.6
574.158,953.6
574.694,962.7
575.231,939.3
575.767,942.0
576.303,960.0
576.84,1018.9
577.376,959.3
577.912,946.9
578.447,944.5
578.983,944.2
579.519,944.2
580.054,941.5
580.59,939.3
581.125,940.5
581.661,945.9
582.196,942.5
582.731,942.4
583.266,944.0
583.801,943.6
584.336,944.7
584.87,943.6
585.405,946.0
585.94,952.2
586.474,960.6
587.008,995.1
587.543,1027.5
588.077,966.9
588.611,944.6
589.145,946.2
589.679,945.9
590.213,947.4
590.747,947.1
591.28,945.0
591.814,942.6
592.347,943.8
592.881,948.3
593.414,938.2
593.947,944.8
594.48,943.0
595.014,943.2
595.547,943.4
596.079,945.5
596.612,942.1
597.145,941.2
597.678,947.8
598.21,946.7
598.743,945.1
599.275,946.8
599.807,946.5
600.34,942.4
600.872,940.4
601.404,938.9
601.936,939.5
602.468,946.3
603.0,945.8
603.532,943.4
604.063,946.8
604.595,943.1
605.126,942.1
605.658,944.1
606.189,937.0
606.721,937.2
607.252,941.5
607.783,937.9
608.314,941.2
608.845,944.0
609.376,940.2
609.907,942.1
610.438,937.6
610.968,941.3
611.499,936.5
612.03,935.1
612.56,938.0
613.091,939.8
613.621,942.7
614.151,942.8
614.681,939.1
615.212,940.3
615.742,940.1
616.272,936.8
616.802,943.1
617.332,940.8
617.861,939.4
618.391,940.8
618.921,940.0
619.45,938.1
619.98,940.0
620.509,935.0
621.039,942.3
621.568,939.6
622.097,939.0
622.627,950.2
623.156,960.6
623.685,951.2
624.214,948.2
624.743,942.1
625.272,939.9
625.801,937.0
626.33,937.6
626.858,939.0
627.387,942.6
627.916,952.1
628.444,1016.7
628.973,1008.9
629.501,1002.1
630.029,1011.1
630.558,1067.7
631.086,1489.1
631.614,1227.2
632.142,1077.0
632.67,1059.2
633.198,1161.2
633.726,1119.8
634.254,1015.3
634.782,960.2
635.31,940.2
635.838,935.5
636.365,935.4
636.893,930.9
637.421,931.9
637.948,928.6
638.476,929.1
639.003,927.7
639.531,926.4
640.058,926.6
640.585,929.2
641.113,924.9
641.64,926.3
642.167,924.8
642.694,928.2
643.221,922.7
643.748,920.2
644.275,920.9
644.802,918.8
645.329,916.7
645.856,916.1
646.382,915.6
646.909,916.7
647.436,914.5
647.962,917.7
648.489,914.5
649.016,915.1
649.542,915.0
650.069,916.0
650.595,914.7
651.121,913.6
651.648,912.7
652.174,909.4
652.7,910.7
653.227,913.0
653.753,909.8
654.279,908.8
654.805,907.7
655.331,913.3
655.857,908.6
656.383,912.8
656.909,903.4
657.435,908.7
657.961,909.2
658.487,903.2
659.013,908.7
659.538,907.7
660.064,906.2
660.59,906.3
661.116,905.2
661.641,902.3
662.167,903.5
662.692,903.3
663.087,902.3

File: VLFR_08-PLA_nobio_Raman_9013e8b2.csv
nm,Intensity
526.486,830.1
527.033,829.66
527.579,829.34
528.126,829.6
528.672,829.22
529.219,829.16
529.765,828.98
530.311,829.76
530.857,829.42
531.403,829.84
531.948,833.04
532.494,831.64
533.039,829.42
533.585,829.98
534.13,891.08
534.675,894.28
535.22,888.54
535.764,887.3
536.309,885.08
536.854,885.26
537.398,882.72
537.942,881.88
538.486,882.76
539.03,881.3
539.574,883.56
540.118,882.46
540.662,885.3
541.205,891.1
541.749,907.76
542.292,898.54
542.835,899.48
543.378,902.1
543.921,892.28
544.464,894.36
545.006,905.04
545.549,911.26
546.091,894.28
546.634,896.3
547.176,896.2
547.718,893.44
548.26,895.16
548.802,895.9
549.343,896.06
549.885,895.3
550.426,898.06
550.968,898.76
551.509,897.96
552.05,897.58
552.591,897.42
553.132,896.4
553.673,899.82
554.214,898.7
554.754,898.2
555.295,897.84
555.835,899.0
556.375,898.64
556.915,900.82
557.455,901.4
557.995,903.52
558.535,906.98
559.075,908.08
559.614,905.7
560.154,903.62
560.693,906.2
561.232,907.78
561.772,912.38
562.311,912.4
562.85,913.64
563.388,919.76
563.927,930.46
564.466,934.38
565.004,981.22
565.543,953.32
566.081,960.16
566.619,929.8
567.157,926.94
567.695,921.0
568.233,918.12
568.771,918.46
569.309,920.3
569.846,925.58
570.384,928.46
570.921,931.4
571.458,937.16
571.995,931.2
572.532,941.72
573.069,955.94
573.606,941.4
574.143,950.46
574.68,950.34
575.216,948.66
575.753,941.88
576.289,940.12
576.825,946.22
577.361,944.84
577.897,943.06
578.433,937.38
578.969,940.84
579.505,946.4
580.041,940.92
580.576,941.52
581.112,945.98
581.647,961.38
582.183,951.16
582.718,949.3
583.253,950.44
583.788,952.62
584.323,952.26
584.858,954.24
585.392,954.28
585.927,956.72
586.462,958.96
586.996,963.06
587.53,964.24
588.065,962.1
588.599,966.74
589.133,962.84
589.667,967.68
590.201,970.36
590.735,971.62
591.268,974.9
591.802,975.68
592.335,978.66
592.869,978.74
593.402,981.52
593.936,983.12
594.469,986.08
595.002,989.12
595.535,995.3
596.068,995.9
596.601,1001.14
597.133,1005.36
597.666,1011.02
598.199,1013.98
598.731,1018.34
599.264,1021.64
599.796,1024.52
600.328,1027.68
600.86,1033.06
601.393,1037.28
601.925,1036.8
602.457,1045.36
602.988,1048.1
603.52,1053.46
604.052,1057.26
604.583,1061.5
605.115,1063.66
605.646,1063.78
606.178,1066.86
606.709,1071.9
607.24,1074.94
607.771,1082.32
608.302,1084.76
608.833,1090.52
609.364,1095.54
609.895,1097.2
610.426,1099.9
610.957,1105.1
611.487,1107.36
612.018,1114.0
612.548,1123.28
613.078,1126.06
613.609,1130.54
614.139,1134.54
614.669,1137.24
615.199,1137.54
615.729,1138.16
616.259,1139.42
616.789,1144.48
617.319,1147.24
617.849,1151.86
618.378,1150.1
618.908,1152.78
619.437,1154.22
619.967,1158.92
620.496,1155.12
621.025,1156.1
621.555,1157.5
622.084,1158.98
622.613,1163.9
623.142,1167.6
623.671,1166.6
624.2,1168.56
624.729,1166.86
625.258,1169.1
625.786,1174.6
626.315,1170.5
626.844,1177.92
627.372,1190.68
627.901,1197.18
628.429,1215.72
628.957,1228.4
629.486,1227.02
630.014,1212.72
630.542,1200.66
631.07,1208.86
631.598,1192.26
632.126,1193.1
632.654,1169.22
633.182,1160.4
633.71,1153.8
634.237,1146.78
634.765,1145.32
635.293,1142.34
635.82,1148.88
636.348,1142.38
636.875,1145.08
637.403,1139.48
637.93,1138.48
638.458,1141.94
638.985,1139.06
639.512,1136.38
640.039,1139.28
640.566,1138.08
641.093,1139.56
641.62,1140.66
642.147,1139.74
642.674,1139.02
643.201,1136.38
643.728,1137.02
644.255,1142.74
644.781,1144.26
645.308,1142.9
645.835,1142.1
646.361,1137.14
646.888,1141.98
647.414,1145.4
647.941,1145.48
648.467,1138.94
648.993,1141.62
649.52,1137.26
650.046,1133.42
650.572,1129.62
651.098,1128.72
651.625,1128.44
652.151,1123.9
652.677,1122.5
653.203,1120.04
653.729,1119.22
654.255,1116.26
654.78,1115.1
655.306,1115.88
655.832,1113.84
656.358,1114.72
656.884,1118.0
657.409,1116.64
657.935,1114.52
658.461,1115.48
658.986,1117.44
659.512,1118.52
660.037,1119.4
660.563,1113.84
661.088,1113.8
661.614,1111.16
662.139,1109.94
662.664,1109.66
663.058,1110.0