Folder: MPX_specDB/spectra (part 61)

File: VLFR_02-HDPE_nobio_Raman_77980cb2.csv
cm-1,Intensity
-123.878,1852.65
-105.821,1852.9
-87.8007,1852.75
-69.8161,1853.6
-51.8675,1852.75
-33.9547,1855.5
-16.0776,1877.8
1.76388,3203.9
19.5698,1853.6
37.3403,1852.45
55.0755,1905.45
72.7754,2033.4
90.4402,2025.6
108.07,2020.0
125.665,1990.4
143.225,1976.85
160.75,1966.7
178.241,1971.35
195.697,1973.35
213.119,1969.15
230.506,1966.0
247.859,1961.05
265.178,1959.85
282.463,1960.2
299.713,1962.3
316.93,1964.8
334.113,1966.4
351.263,1965.3
368.379,1970.05
385.461,1971.15
402.51,1972.0
419.526,1971.0
436.508,1974.4
453.458,1976.15
470.374,1981.6
487.257,1976.3
504.107,1982.3
520.925,1979.35
537.71,1977.7
554.462,1980.0
571.182,1981.55
587.87,1979.45
604.525,1982.15
621.148,1982.95
637.739,1985.2
654.297,1984.5
670.824,1990.4
687.319,1985.0
703.782,1988.3
720.213,1997.25
736.613,1996.1
752.981,1998.75
769.317,2006.85
785.623,1997.3
801.897,2006.8
818.139,2003.5
834.351,2010.4
850.532,2019.75
866.681,2030.4
882.8,2019.85
898.888,2021.75
914.945,2019.6
930.972,2018.45
946.968,2017.55
962.934,2024.75
978.869,2018.25
994.774,2026.65
1010.65,2033.1
1026.49,2032.7
1042.31,2046.0
1058.09,2280.3
1073.85,2107.0
1089.57,2085.35
1105.27,2070.95
1120.93,2201.85
1136.57,2216.75
1152.18,2055.6
1167.75,2097.05
1183.3,2052.5
1198.82,2044.9
1214.31,2041.15
1229.77,2048.1
1245.2,2052.8
1260.6,2064.85
1275.97,2076.5
1291.32,2441.15
1306.63,2145.9
1321.92,2078.6
1337.18,2049.95
1352.41,2052.4
1367.61,2085.85
1382.78,2050.25
1397.93,2048.25
1413.05,2274.3
1428.14,2218.8
1443.2,2379.25
1458.23,2261.85
1473.23,2153.45
1488.21,2077.2
1503.16,2058.05
1518.08,2055.9
1532.97,2059.95
1547.84,2056.5
1562.68,2048.75
1577.49,2054.5
1592.27,2052.75
1607.03,2062.55
1621.76,2062.35
1636.46,2059.75
1651.14,2066.8
1665.78,2061.4
1680.41,2069.9
1695.0,2076.15
1709.57,2077.25
1724.11,2076.05
1738.62,2092.8
1753.11,2100.6
1767.57,2101.7
1782.01,2106.2
1796.41,2127.75
1810.8,2118.0
1825.15,2128.8
1839.48,2136.85
1853.79,2146.75
1868.06,2161.65
1882.31,2167.65
1896.54,2172.5
1910.74,2183.35
1924.91,2196.75
1939.06,2203.85
1953.19,2195.65
1967.28,2193.65
1981.35,2183.75
1995.4,2194.65
2009.42,2202.55
2023.42,2214.4
2037.39,2194.3
2051.33,2206.05
2065.25,2205.45
2079.15,2203.05
2093.01,2206.35
2106.86,2211.1
2120.68,2224.2
2134.47,2207.45
2148.24,2202.75
2161.99,2204.85
2175.71,2221.15
2189.41,2213.0
2203.08,2195.7
2216.73,2202.25
2230.35,2195.7
2243.95,2189.8
2257.52,2180.55
2271.07,2172.3
2284.6,2167.6
2298.1,2165.4
2311.58,2154.35
2325.03,2154.75
2338.46,2142.05
2351.87,2150.7
2365.25,2134.2
2378.61,2129.45
2391.94,2132.45
2405.26,2148.9
2418.54,2146.7
2431.81,2137.15
2445.05,2127.5
2458.27,2119.7
2471.46,2123.85
2484.63,2112.3
2497.78,2109.5
2510.9,2118.8
2524.0,2117.7
2537.08,2116.95
2550.14,2115.3
2563.17,2104.95
2576.18,2124.35
2589.17,2134.45
2602.13,2129.1
2615.07,2135.6
2627.99,2128.05
2640.89,2130.55
2653.76,2141.45
2666.61,2136.8
2679.44,2140.05
2692.25,2184.4
2705.03,2227.65
2717.79,2319.95
2730.53,2278.45
2743.25,2166.4
2755.94,2148.85
2768.61,2137.2
2781.27,2139.95
2793.89,2154.75
2806.5,2168.3
2819.09,2238.5
2831.65,2689.45
2844.19,4886.65
2856.71,4549.55
2869.21,3904.3
2881.69,5355.15
2894.14,3802.9
2906.58,3379.5
2918.99,3071.0
2931.38,2997.5
2943.75,2532.75
2956.1,2241.95
2968.42,2181.45
2980.73,2151.25
2993.01,2143.65
3005.28,2123.25
3017.52,2107.4
3029.74,2106.55
3041.94,2108.45
3054.12,2099.95
3066.28,2094.3
3078.42,2091.05
3090.54,2086.95
3102.63,2079.95
3114.71,2081.4
3126.77,2081.95
3138.8,2079.6
3150.82,2080.15
3162.81,2073.45
3174.78,2081.65
3186.74,2071.85
3198.67,2075.65
3210.58,2071.5
3222.47,2070.05
3234.35,2089.6
3246.2,2076.95
3258.03,2080.05
3269.84,2081.25
3281.64,2075.5
3293.41,2082.55
3305.16,2079.2
3316.89,2076.4
3328.61,2072.35
3340.3,2067.65
3351.97,2064.9
3363.63,2070.55
3375.26,2062.9
3386.88,2062.25
3398.47,2054.7
3410.05,2050.65
3421.6,2049.65
3433.14,2046.75
3444.66,2056.2
3456.15,2041.4
3467.63,2038.75
3479.09,2040.7
3490.53,2042.05
3501.96,2036.45
3513.36,2029.05
3524.74,2032.0
3536.11,2021.3
3547.45,2021.9
3558.78,2011.5
3570.09,2010.7
3581.37,2016.85
3592.64,2022.45
3603.9,2015.1
3615.13,2009.65
3626.34,1997.8
3637.54,2005.65
3648.72,2004.85
3659.87,1993.3
3665.45,1995.65

File: VLFR_02-HDPE_nobio_Raman_132716c1.csv
nm,Intensity
526.486,828.1
527.033,830.1
527.579,828.4
528.126,829.0
528.672,828.8
529.219,829.4
529.765,829.9
530.311,828.8
530.857,830.1
531.403,829.0
531.948,835.5
532.494,831.8
533.039,830.5
533.585,829.0
534.13,852.8
534.675,850.0
535.22,847.2
535.764,841.2
536.309,839.3
536.854,840.3
537.398,839.0
537.942,836.6
538.486,837.6
539.03,838.1
539.574,835.9
540.118,836.6
540.662,835.2
541.205,834.3
541.749,834.9
542.292,835.4
542.835,833.1
543.378,835.5
543.921,835.3
544.464,834.2
545.006,835.0
545.549,835.3
546.091,833.1
546.634,834.5
547.176,833.6
547.718,835.4
548.26,836.2
548.802,834.6
549.343,836.4
549.885,835.6
550.426,832.4
550.968,835.9
551.509,836.6
552.05,834.9
552.591,834.2
553.132,835.5
553.673,836.8
554.214,836.6
554.754,835.9
555.295,835.8
555.835,837.5
556.375,836.9
556.915,836.2
557.455,838.0
557.995,838.5
558.535,838.6
559.075,838.5
559.614,835.5
560.154,838.2
560.693,837.2
561.232,837.6
561.772,837.1
562.311,837.7
562.85,839.4
563.388,839.0
563.927,860.1
564.466,848.7
565.004,842.3
565.543,843.4
566.081,862.4
566.619,841.8
567.157,841.3
567.695,843.4
568.233,838.9
568.771,841.0
569.309,841.3
569.846,841.5
570.384,840.6
570.921,843.9
571.458,872.9
571.995,851.5
572.532,843.8
573.069,844.3
573.606,844.3
574.143,848.7
574.68,842.7
575.216,844.0
575.753,860.2
576.289,893.9
576.825,869.5
577.361,866.7
577.897,849.6
578.433,848.8
578.969,851.5
579.505,849.3
580.041,851.5
580.576,850.8
581.112,854.7
581.647,854.5
582.183,857.4
582.718,859.6
583.253,860.7
583.788,861.9
584.323,865.3
584.858,869.1
585.392,869.5
585.927,877.0
586.462,877.6
586.996,881.3
587.53,888.0
588.065,894.3
588.599,894.8
589.133,898.0
589.667,903.1
590.201,906.6
590.735,908.8
591.268,910.9
591.802,910.0
592.335,911.9
592.869,911.7
593.402,917.2
593.936,917.7
594.469,911.5
595.002,912.1
595.535,915.2
596.068,913.8
596.601,913.8
597.133,912.3
597.666,917.8
598.199,916.3
598.731,916.1
599.264,914.6
599.796,922.0
600.328,917.8
600.86,916.5
601.393,913.6
601.925,918.3
602.457,912.1
602.988,913.9
603.52,908.6
604.052,908.9
604.583,908.1
605.115,902.0
605.646,901.5
606.178,899.8
606.709,894.4
607.24,894.4
607.771,891.3
608.302,887.2
608.833,889.9
609.364,886.1
609.895,886.3
610.426,885.5
610.957,884.6
611.487,884.1
612.018,879.9
612.548,881.7
613.078,879.6
613.609,876.9
614.139,879.6
614.669,875.6
615.199,876.7
615.729,877.9
616.259,873.4
616.789,872.8
617.319,875.0
617.849,874.5
618.378,874.6
618.908,874.3
619.437,873.8
619.967,871.3
620.496,873.6
621.025,875.6
621.555,877.6
622.084,885.5
622.613,888.3
623.142,871.3
623.671,871.2
624.2,869.6
624.729,870.1
625.258,870.7
625.786,873.0
626.315,883.3
626.844,980.9
627.372,1171.9
627.901,1042.3
628.429,1120.5
628.957,1064.7
629.486,1010.5
630.014,963.9
630.542,953.8
631.07,907.8
631.598,877.6
632.126,872.1
632.654,870.8
633.182,869.1
633.71,871.5
634.237,869.9
634.765,866.8
635.293,865.8
635.82,865.7
636.348,871.0
636.875,869.6
637.403,868.0
637.93,870.3
638.458,870.4
638.985,870.6
639.512,872.0
640.039,871.6
640.566,873.2
641.093,874.7
641.62,877.0
642.147,875.5
642.674,878.5
643.201,875.3
643.728,877.5
644.255,877.0
644.781,877.3
645.308,876.7
645.835,875.5
646.361,875.9
646.888,879.6
647.414,879.9
647.941,879.1
648.467,879.6
648.993,875.5
649.52,874.2
650.046,876.0
650.572,875.1
651.098,873.6
651.625,874.6
652.151,873.2
652.677,875.3
653.203,874.8
653.729,874.9
654.255,874.3
654.78,875.4
655.306,876.0
655.832,874.1
656.358,875.4
656.884,876.5
657.409,872.7
657.935,877.2
658.461,874.6
658.986,877.4
659.512,874.7
660.037,875.7
660.563,872.6
661.088,870.6
661.614,871.6
662.139,869.0
662.664,866.9
663.058,867.3

File: VLFR_02-HDPE_nobio_Raman_146252b0.csv
nm,Intensity
526.486,829.0
527.033,829.4
527.579,828.1
528.126,828.8
528.672,829.3
529.219,829.7
529.765,828.9
530.311,830.0
530.857,827.6
531.403,829.9
531.948,832.2
532.494,830.9
533.039,830.4
533.585,829.0
534.13,861.4
534.675,859.9
535.22,853.9
535.764,850.7
536.309,847.8
536.854,845.9
537.398,844.0
537.942,845.4
538.486,845.5
539.03,846.4
539.574,844.4
540.118,844.8
540.662,842.3
541.205,843.0
541.749,842.8
542.292,842.7
542.835,841.4
543.378,844.5
543.921,843.6
544.464,844.3
545.006,842.6
545.549,843.0
546.091,842.9
546.634,843.6
547.176,843.7
547.718,843.9
548.26,843.8
548.802,844.0
549.343,842.0
549.885,845.2
550.426,845.6
550.968,844.3
551.509,845.3
552.05,846.6
552.591,842.9
553.132,845.1
553.673,846.9
554.214,844.4
554.754,846.3
555.295,847.1
555.835,846.0
556.375,845.9
556.915,848.0
557.455,849.6
557.995,849.4
558.535,850.1
559.075,851.7
559.614,849.1
560.154,849.4
560.693,849.7
561.232,848.4
561.772,847.2
562.311,851.1
562.85,851.7
563.388,851.3
563.927,886.1
564.466,862.3
565.004,861.4
565.543,859.0
566.081,920.5
566.619,862.6
567.157,853.0
567.695,855.4
568.233,851.3
568.771,854.7
569.309,853.8
569.846,854.6
570.384,855.4
570.921,859.6
571.458,903.9
571.995,868.3
572.532,859.7
573.069,853.6
573.606,856.1
574.143,860.3
574.68,855.7
575.216,858.0
575.753,903.4
576.289,899.0
576.825,885.1
577.361,872.5
577.897,859.4
578.433,855.7
578.969,855.4
579.505,855.5
580.041,859.6
580.576,858.3
581.112,855.2
581.647,856.1
582.183,858.3
582.718,858.1
583.253,859.2
583.788,857.0
584.323,855.4
584.858,858.2
585.392,859.5
585.927,858.7
586.462,856.9
586.996,855.2
587.53,858.5
588.065,858.3
588.599,860.1
589.133,860.6
589.667,860.9
590.201,861.5
590.735,859.3
591.268,857.2
591.802,859.9
592.335,860.1
592.869,861.0
593.402,856.8
593.936,859.7
594.469,858.6
595.002,858.5
595.535,859.0
596.068,859.6
596.601,859.5
597.133,858.5
597.666,863.7
598.199,859.8
598.731,862.1
599.264,862.7
599.796,864.3
600.328,865.1
600.86,861.2
601.393,863.7
601.925,862.2
602.457,862.5
602.988,863.1
603.52,862.6
604.052,862.9
604.583,860.2
605.115,860.6
605.646,861.5
606.178,859.1
606.709,860.4
607.24,861.4
607.771,860.2
608.302,860.5
608.833,860.0
609.364,858.1
609.895,856.8
610.426,859.8
610.957,861.3
611.487,862.0
612.018,859.7
612.548,860.7
613.078,860.6
613.609,860.0
614.139,861.6
614.669,860.9
615.199,858.6
615.729,857.9
616.259,859.5
616.789,858.1
617.319,861.6
617.849,863.5
618.378,862.0
618.908,865.1
619.437,862.6
619.967,864.5
620.496,864.5
621.025,867.9
621.555,870.2
622.084,876.2
622.613,876.6
623.142,868.6
623.671,865.4
624.2,864.0
624.729,864.5
625.258,866.8
625.786,867.5
626.315,876.3
626.844,956.6
627.372,1157.4
627.901,1027.6
628.429,1078.2
628.957,1060.5
629.486,1019.4
630.014,971.0
630.542,961.2
631.07,912.1
631.598,880.3
632.126,872.4
632.654,868.5
633.182,867.5
633.71,863.7
634.237,864.1
634.765,864.7
635.293,862.5
635.82,860.9
636.348,860.4
636.875,863.7
637.403,859.6
637.93,858.9
638.458,859.7
638.985,860.0
639.512,857.9
640.039,857.6
640.566,858.8
641.093,860.1
641.62,856.8
642.147,854.2
642.674,857.3
643.201,856.8
643.728,855.5
644.255,854.7
644.781,855.5
645.308,855.7
645.835,853.4
646.361,855.3
646.888,853.1
647.414,851.9
647.941,853.5
648.467,852.6
648.993,855.9
649.52,852.2
650.046,852.8
650.572,852.0
651.098,854.3
651.625,854.2
652.151,852.9
652.677,854.3
653.203,852.0
653.729,849.8
654.255,852.5
654.78,852.1
655.306,851.8
655.832,852.3
656.358,851.7
656.884,853.7
657.409,852.1
657.935,851.8
658.461,851.7
658.986,850.1
659.512,850.2
660.037,852.4
660.563,850.1
661.088,850.7
661.614,849.1
662.139,849.7
662.664,850.1
663.058,849.5

File: VLFR_02-HDPE_nobio_Raman_6429837d.csv
nm,Intensity
526.532,830.067
527.079,830.267
527.625,829.733
528.172,829.067
528.718,830.567
529.265,829.933
529.811,829.7
530.357,830.0
530.903,830.0
531.449,829.833
531.994,832.6
532.54,830.5
533.085,830.367
533.63,830.933
534.176,913.667
534.721,912.3
535.266,910.033
535.81,876.267
536.355,865.667
536.9,862.6
537.444,862.1
537.988,860.633
538.533,859.367
539.077,853.667
539.621,852.633
540.165,852.3
540.708,850.6
541.252,852.133
541.795,852.4
542.339,851.1
542.882,851.4
543.425,850.7
543.968,852.2
544.511,851.6
545.054,851.633
545.597,850.967
546.139,850.233
546.682,851.733
547.224,850.967
547.766,852.0
548.308,851.433
548.85,851.3
549.392,852.0
549.934,853.6
550.475,851.533
551.017,852.4
551.558,851.133
552.1,853.967
552.641,854.0
553.182,856.133
553.723,858.1
554.264,856.467
554.804,857.1
555.345,857.133
555.885,858.833
556.426,857.667
556.966,859.167
557.506,862.2
558.046,863.733
558.586,862.1
559.126,861.033
559.665,861.0
560.205,859.067
560.745,859.033
561.284,859.433
561.823,860.1
562.362,862.167
562.901,864.567
563.44,866.5
563.979,987.233
564.518,885.2
565.056,878.633
565.595,872.833
566.133,954.733
566.671,870.833
567.21,869.4
567.748,874.6
568.285,863.333
568.823,863.033
569.361,864.8
569.899,865.9
570.436,871.333
570.974,875.967
571.511,1077.17
572.048,892.133
572.585,872.067
573.122,866.667
573.659,867.3
574.196,872.333
574.733,863.733
575.269,871.0
575.806,910.633
576.342,1063.0
576.878,965.433
577.414,926.233
577.951,877.033
578.486,871.7
579.022,868.567
579.558,869.933
580.094,867.9
580.629,869.1
581.165,870.333
581.7,869.3
582.236,872.3
582.771,870.567
583.306,871.1
583.841,871.867
584.376,873.067
584.911,871.833
585.445,873.067
585.98,874.033
586.514,875.2
587.049,875.733
587.583,877.533
588.117,877.1
588.651,875.633
589.186,875.667
589.72,875.8
590.253,877.567
590.787,880.1
591.321,880.667
591.854,879.6
592.388,878.7
592.921,881.167
593.455,880.067
593.988,881.1
594.521,879.933
595.054,882.467
595.587,884.667
596.12,884.0
596.653,883.933
597.186,884.833
597.718,883.967
598.251,885.633
598.783,888.4
599.316,886.733
599.848,889.267
600.38,888.2
600.912,886.167
601.444,889.1
601.976,893.2
602.508,890.033
603.04,885.9
603.572,886.533
604.103,885.133
604.635,885.233
605.167,884.167
605.698,882.733
606.229,880.2
606.761,878.9
607.292,878.833
607.823,876.933
608.354,876.933
608.885,877.967
609.416,878.367
609.947,876.6
610.477,875.867
611.008,876.067
611.539,874.233
612.069,874.0
612.6,875.0
613.13,876.2
613.66,874.333
614.19,875.433
614.721,875.433
615.251,876.4
615.781,875.767
616.311,878.533
616.841,883.933
617.37,889.833
617.9,891.6
618.43,890.267
618.96,889.133
619.489,895.733
620.019,896.0
620.548,896.9
621.077,906.3
621.607,929.5
622.136,980.167
622.665,963.0
623.194,910.033
623.723,898.333
624.252,897.867
624.781,899.0
625.31,902.433
625.839,919.467
626.368,977.4
626.896,1517.6
627.425,2139.83
627.953,1614.73
628.482,2184.5
629.01,1543.77
629.539,1399.27
630.067,1230.7
630.596,1190.73
631.124,1012.13
631.652,924.6
632.18,904.433
632.708,897.733
633.236,892.9
633.764,887.633
634.292,884.1
634.82,879.667
635.348,879.333
635.876,877.067
636.403,875.1
636.931,875.667
637.459,872.067
637.986,869.167
638.514,868.7
639.041,867.533
639.568,867.933
640.096,868.467
640.623,865.833
641.15,866.967
641.678,866.033
642.205,866.767
642.732,865.533
643.259,866.967
643.786,866.033
644.313,867.567
644.84,865.5
645.367,864.467
645.894,864.8
646.421,866.2
646.948,865.6
647.474,865.167
648.001,865.0
648.528,864.4
649.054,864.5
649.581,864.233
650.108,863.6
650.634,865.233
651.161,863.233
651.687,861.767
652.214,864.5
652.74,863.467
653.266,862.167
653.793,863.2
654.319,863.733
654.845,862.233
655.371,862.833
655.897,860.733
656.424,859.933
656.95,860.7
657.476,862.2
658.002,860.767
658.528,861.533
659.054,861.267
659.58,862.233
660.106,864.0
660.631,860.533
661.157,860.333
661.683,858.1
662.209,859.567
662.735,856.8
663.129,857.5

File: VLFR_02-HDPE_nobio_Raman_25664995.csv
nm,Intensity
526.486,830.2
527.033,829.7
527.579,830.0
528.126,830.4
528.672,829.5
529.219,830.1
529.765,831.1
530.311,829.8
530.857,831.2
531.403,830.9
531.948,831.8
532.494,831.0
533.039,829.4
533.585,830.3
534.13,876.6
534.675,874.5
535.22,863.0
535.764,858.6
536.309,848.6
536.854,846.6
537.398,844.0
537.942,845.6
538.486,845.4
539.03,843.3
539.574,841.4
540.118,842.5
540.662,842.3
541.205,842.6
541.749,842.4
542.292,843.7
542.835,840.4
543.378,842.6
543.921,842.8
544.464,841.9
545.006,841.3
545.549,839.5
546.091,840.0
546.634,839.7
547.176,839.8
547.718,842.1
548.26,842.7
548.802,842.9
549.343,842.6
549.885,845.2
550.426,842.6
550.968,843.5
551.509,843.7
552.05,844.0
552.591,842.9
553.132,842.2
553.673,844.5
554.214,843.4
554.754,841.7
555.295,841.2
555.835,842.0
556.375,841.6
556.915,843.5
557.455,843.7
557.995,843.3
558.535,844.2
559.075,845.2
559.614,844.2
560.154,844.5
560.693,847.4
561.232,852.5
561.772,846.0
562.311,846.1
562.85,848.7
563.388,846.9
563.927,852.8
564.466,850.1
565.004,850.0
565.543,850.5
566.081,857.6
566.619,853.4
567.157,848.8
567.695,851.0
568.233,850.1
568.771,853.6
569.309,853.8
569.846,856.9
570.384,859.4
570.921,862.6
571.458,872.3
571.995,868.6
572.532,868.2
573.069,871.4
573.606,875.3
574.143,877.8
574.68,877.6
575.216,882.9
575.753,894.9
576.289,908.1
576.825,908.9
577.361,913.8
577.897,914.4
578.433,918.5
578.969,928.5
579.505,936.8
580.041,946.4
580.576,955.8
581.112,960.9
581.647,970.9
582.183,981.3
582.718,988.1
583.253,998.4
583.788,1006.1
584.323,1015.1
584.858,1020.9
585.392,1036.5
585.927,1049.2
586.462,1056.4
586.996,1071.5
587.53,1092.1
588.065,1097.8
588.599,1104.4
589.133,1119.6
589.667,1133.8
590.201,1147.6
590.735,1158.1
591.268,1169.7
591.802,1179.4
592.335,1184.6
592.869,1196.5
593.402,1202.0
593.936,1206.4
594.469,1219.7
595.002,1230.5
595.535,1239.2
596.068,1248.3
596.601,1272.4
597.133,1300.6
597.666,1319.2
598.199,1336.0
598.731,1351.5
599.264,1365.7
599.796,1368.1
600.328,1393.1
600.86,1373.2
601.393,1391.2
601.925,1380.7
602.457,1375.3
602.988,1353.6
603.52,1352.3
604.052,1329.2
604.583,1299.9
605.115,1281.6
605.646,1256.3
606.178,1239.9
606.709,1208.6
607.24,1192.6
607.771,1182.4
608.302,1173.8
608.833,1157.3
609.364,1148.3
609.895,1136.2
610.426,1119.1
610.957,1110.5
611.487,1107.0
612.018,1100.0
612.548,1094.9
613.078,1093.2
613.609,1084.7
614.139,1079.8
614.669,1068.9
615.199,1063.3
615.729,1059.4
616.259,1056.7
616.789,1046.2
617.319,1045.5
617.849,1034.8
618.378,1034.8
618.908,1028.4
619.437,1028.2
619.967,1013.0
620.496,1014.4
621.025,1017.5
621.555,1013.0
622.084,1016.8
622.613,1014.7
623.142,1004.7
623.671,1009.5
624.2,1005.7
624.729,1004.5
625.258,1001.0
625.786,994.9
626.315,998.2
626.844,1011.1
627.372,1051.7
627.901,1024.4
628.429,1043.0
628.957,1032.5
629.486,1028.7
630.014,1018.0
630.542,1007.9
631.07,1001.1
631.598,996.5
632.126,990.0
632.654,986.4
633.182,989.5
633.71,987.6
634.237,987.8
634.765,984.3
635.293,986.5
635.82,992.3
636.348,991.9
636.875,995.0
637.403,994.8
637.93,997.3
638.458,998.8
638.985,1002.7
639.512,1001.7
640.039,1003.9
640.566,1006.9
641.093,1010.1
641.62,1015.1
642.147,1013.1
642.674,1012.8
643.201,1018.1
643.728,1011.6
644.255,1016.9
644.781,1022.1
645.308,1019.1
645.835,1021.3
646.361,1024.3
646.888,1026.9
647.414,1029.3
647.941,1026.6
648.467,1030.9
648.993,1029.3
649.52,1033.4
650.046,1036.2
650.572,1035.5
651.098,1037.6
651.625,1039.3
652.151,1047.5
652.677,1044.7
653.203,1050.0
653.729,1045.0
654.255,1052.5
654.78,1051.6
655.306,1045.1
655.832,1048.3
656.358,1041.2
656.884,1044.7
657.409,1036.7
657.935,1038.1
658.461,1026.1
658.986,1025.3
659.512,1016.6
660.037,1011.6
660.563,1006.6
661.088,995.8
661.614,995.3
662.139,985.6
662.664,984.2
663.058,975.6

File: VLFR_02-HDPE_nobio_Raman_48982249.csv
nm,Intensity
526.5,829.6
527.047,829.2
527.594,826.5
528.14,829.4
528.687,828.6
529.233,829.3
529.779,828.4
530.325,828.8
530.871,829.0
531.417,828.9
531.962,832.3
532.508,828.8
533.053,827.9
533.599,829.4
534.144,841.3
534.689,839.6
535.234,838.5
535.778,837.6
536.323,838.5
536.867,839.8
537.412,837.7
537.956,836.8
538.5,837.1
539.044,837.2
539.588,836.4
540.132,835.8
540.675,835.1
541.219,834.3
541.762,834.6
542.305,835.6
542.848,834.9
543.391,835.4
543.934,836.9
544.477,840.5
545.02,843.8
545.562,856.2
546.105,866.0
546.647,850.4
547.189,837.5
547.731,836.5
548.273,834.4
548.815,835.1
549.356,836.4
549.898,844.0
550.439,843.7
550.981,853.7
551.522,840.1
552.063,837.0
552.604,836.0
553.145,837.4
553.686,835.3
554.226,836.0
554.767,837.3
555.307,835.6
555.848,836.4
556.388,836.3
556.928,836.0
557.468,836.0
558.008,834.9
558.547,836.3
559.087,836.0
559.626,837.1
560.166,838.1
560.705,838.0
561.244,841.0
561.783,860.6
562.322,998.0
562.861,868.2
563.4,839.0
563.939,838.9
564.477,841.2
565.015,839.2
565.554,843.1
566.092,843.7
566.63,846.1
567.168,844.1
567.706,840.7
568.244,841.1
568.781,840.3
569.319,840.0
569.857,838.4
570.394,837.0
570.931,839.6
571.468,837.8
572.005,839.3
572.542,838.4
573.079,838.8
573.616,837.8
574.153,838.4
574.689,839.3
575.226,839.7
575.762,838.1
576.298,840.4
576.834,840.2
577.371,839.9
577.907,839.5
578.442,838.9
578.978,839.7
579.514,839.5
580.049,839.5
580.585,840.8
581.12,840.9
581.656,840.2
582.191,843.4
582.726,842.4
583.261,842.0
583.796,841.1
584.331,842.7
584.865,844.4
585.4,842.2
585.935,843.0
586.469,843.7
587.004,845.4
587.538,844.9
588.072,845.9
588.606,843.3
589.14,847.1
589.674,847.0
590.208,847.3
590.742,846.8
591.275,848.3
591.809,850.6
592.342,852.5
592.876,851.1
593.409,852.7
593.942,853.3
594.476,855.8
595.009,856.5
595.542,859.2
596.075,859.3
596.607,860.1
597.14,866.3
597.673,863.9
598.205,867.5
598.738,867.9
599.27,868.9
599.803,869.3
600.335,870.0
600.867,869.2
601.399,870.1
601.931,869.2
602.463,868.9
602.995,865.7
603.527,870.5
604.058,869.9
604.59,866.8
605.122,865.5
605.653,863.3
606.184,866.6
606.716,860.6
607.247,860.8
607.778,863.5
608.309,862.5
608.84,857.4
609.371,859.8
609.902,858.9
610.433,858.9
610.964,858.2
611.494,858.6
612.025,856.8
612.556,854.6
613.086,857.4
613.616,859.1
614.147,856.2
614.677,859.4
615.207,856.1
615.737,856.3
616.267,853.2
616.797,854.5
617.327,854.9
617.857,855.3
618.387,855.2
618.917,853.7
619.446,852.2
619.976,853.2
620.505,853.1
621.035,854.5
621.564,850.2
622.093,852.9
622.623,851.9
623.152,854.0
623.681,853.0
624.21,851.6
624.739,850.2
625.268,850.9
625.797,849.7
626.326,848.2
626.855,851.2
627.383,852.1
627.912,851.1
628.441,851.0
628.969,850.7
629.498,851.0
630.026,850.5
630.554,851.0
631.083,851.6
631.611,850.7
632.139,848.3
632.667,848.7
633.195,846.9
633.724,846.6
634.252,849.5
634.779,847.7
635.307,845.6
635.835,847.1
636.363,846.5
636.891,847.5
637.418,847.9
637.946,848.6
638.474,850.0
639.001,850.3
639.529,847.5
640.056,850.9
640.583,848.9
641.111,847.6
641.638,849.4
642.165,850.4
642.692,851.5
643.22,852.1
643.747,849.5
644.274,850.5
644.801,850.2
645.328,850.2
645.854,851.9
646.381,853.1
646.908,851.3
647.435,855.1
647.962,854.2
648.488,854.0
649.015,854.1
649.542,854.1
650.068,855.5
650.595,857.7
651.121,854.4
651.648,857.5
652.174,856.4
652.7,856.2
653.227,859.9
653.753,857.3
654.279,862.7
654.805,859.4
655.331,861.2
655.858,858.5
656.384,857.8
656.91,860.6
657.436,854.1
657.962,855.1
658.488,858.2
659.013,853.6
659.539,854.7
660.065,853.5
660.591,855.5
661.117,851.9
661.642,852.7
662.168,850.8
662.694,849.8
663.088,850.2