Folder: MPX_specDB/spectra (part 54)

File: VLFR_02-HDPE_nobio_Raman_3f3df12c.csv
nm,Intensity
526.508,831.6
527.055,831.1
527.602,830.7
528.149,829.5
528.695,828.9
529.241,830.7
529.787,829.7
530.334,831.9
530.879,830.6
531.425,829.3
531.971,834.3
532.516,831.4
533.062,829.4
533.607,830.9
534.152,889.8
534.697,890.5
535.242,891.1
535.786,864.9
536.331,854.9
536.876,850.3
537.42,849.8
537.964,850.5
538.508,848.5
539.052,844.0
539.596,842.2
540.14,845.6
540.683,842.1
541.227,841.2
541.77,841.5
542.313,841.7
542.856,840.8
543.399,842.4
543.942,840.1
544.485,841.3
545.027,839.6
545.57,841.2
546.112,840.7
546.654,840.6
547.196,841.0
547.738,839.4
548.28,840.8
548.822,842.1
549.363,839.3
549.905,840.5
550.446,841.3
550.988,839.1
551.529,841.6
552.07,841.7
552.611,840.7
553.152,843.7
553.692,844.3
554.233,844.7
554.773,842.7
555.314,844.0
555.854,846.5
556.394,844.7
556.934,845.9
557.474,850.4
558.014,850.2
558.553,849.8
559.093,847.9
559.632,846.7
560.172,844.3
560.711,845.8
561.25,847.3
561.789,846.9
562.328,849.3
562.867,848.2
563.406,853.3
563.944,924.4
564.483,867.8
565.021,860.6
565.559,854.7
566.098,901.3
566.636,858.3
567.174,854.4
567.711,860.5
568.249,849.5
568.787,850.1
569.324,850.3
569.862,851.9
570.399,854.0
570.936,859.3
571.474,963.5
572.011,871.9
572.548,856.8
573.084,852.0
573.621,852.4
574.158,861.4
574.694,848.4
575.231,853.3
575.767,887.9
576.303,1005.7
576.84,932.3
577.376,913.9
577.912,862.6
578.447,853.0
578.983,852.7
579.519,853.5
580.054,852.4
580.59,850.3
581.125,849.5
581.661,847.9
582.196,848.4
582.731,851.4
583.266,850.6
583.801,848.3
584.336,850.6
584.87,849.4
585.405,849.8
585.94,849.2
586.474,848.9
587.008,850.8
587.543,853.8
588.077,851.0
588.611,850.8
589.145,850.0
589.679,852.2
590.213,852.3
590.747,852.0
591.28,851.8
591.814,853.2
592.347,853.0
592.881,855.7
593.414,852.9
593.947,855.3
594.48,853.1
595.014,856.5
595.547,855.5
596.079,859.0
596.612,858.4
597.145,859.5
597.678,859.9
598.21,860.4
598.743,862.9
599.275,864.7
599.807,862.4
600.34,862.4
600.872,864.0
601.404,866.6
601.936,869.0
602.468,867.8
603.0,863.7
603.532,865.2
604.063,864.6
604.595,865.3
605.126,859.9
605.658,860.4
606.189,858.4
606.721,859.9
607.252,858.4
607.783,859.0
608.314,858.3
608.845,857.7
609.376,857.9
609.907,857.9
610.438,856.7
610.968,856.7
611.499,858.0
612.03,858.1
612.56,856.8
613.091,858.0
613.621,856.6
614.151,857.4
614.681,859.7
615.212,857.6
615.742,861.0
616.272,863.4
616.802,866.3
617.332,871.3
617.861,874.2
618.391,871.9
618.921,870.2
619.45,873.4
619.98,877.2
620.509,876.4
621.039,884.4
621.568,902.4
622.097,947.1
622.627,945.0
623.156,890.6
623.685,880.2
624.214,878.4
624.743,878.6
625.272,883.4
625.801,893.5
626.33,936.7
626.858,1348.9
627.387,2004.7
627.916,1526.9
628.444,1924.0
628.973,1467.3
629.501,1327.6
630.029,1175.1
630.558,1149.0
631.086,993.0
631.614,901.5
632.142,885.5
632.67,877.3
633.198,873.5
633.726,871.0
634.254,865.2
634.782,863.9
635.31,862.4
635.838,861.0
636.365,861.8
636.893,858.9
637.421,852.6
637.948,855.4
638.476,851.6
639.003,851.6
639.531,851.3
640.058,852.7
640.585,852.3
641.113,851.7
641.64,848.6
642.167,851.3
642.694,848.8
643.221,851.6
643.748,848.6
644.275,849.6
644.802,848.9
645.329,848.4
645.856,850.9
646.382,853.2
646.909,849.6
647.436,849.4
647.962,849.9
648.489,851.5
649.016,852.0
649.542,851.7
650.069,851.0
650.595,850.6
651.121,852.1
651.648,850.3
652.174,851.7
652.7,850.3
653.227,850.1
653.753,849.6
654.279,852.6
654.805,848.4
655.331,850.4
655.857,850.1
656.383,852.5
656.909,851.5
657.435,851.8
657.961,851.6
658.487,849.8
659.013,851.8
659.538,848.9
660.064,854.0
660.59,851.0
661.116,849.3
661.641,849.1
662.167,849.5
662.692,847.8
663.087,847.1

File: VLFR_02-HDPE_nobio_Raman_4d032ea3.csv
nm,Intensity
526.547,832.3
527.094,833.7
527.641,833.3
528.188,833.2
528.734,831.6
529.281,833.0
529.827,833.8
530.373,832.6
530.92,831.7
531.466,832.5
532.011,839.3
532.557,832.3
533.103,832.7
533.648,834.9
534.193,904.5
534.738,891.1
535.283,878.9
535.828,869.9
536.373,865.7
536.917,863.1
537.462,864.2
538.006,862.0
538.55,859.5
539.094,856.3
539.638,854.1
540.182,854.1
540.726,852.8
541.269,855.4
541.812,855.2
542.356,855.3
542.899,855.3
543.442,853.0
543.985,854.7
544.527,857.8
545.07,855.6
545.612,853.6
546.155,857.9
546.697,854.6
547.239,853.6
547.781,856.3
548.323,854.5
548.865,855.6
549.406,856.9
549.948,857.0
550.489,856.1
551.03,858.7
551.572,856.0
552.113,857.3
552.654,856.0
553.194,856.2
553.735,861.7
554.276,860.9
554.816,861.0
555.356,861.4
555.896,862.9
556.437,862.5
556.977,866.3
557.516,867.9
558.056,870.1
558.596,871.0
559.135,868.4
559.675,867.8
560.214,867.5
560.753,868.6
561.292,865.2
561.831,867.7
562.37,872.3
562.909,871.8
563.448,877.8
563.986,990.9
564.525,894.1
565.063,889.2
565.601,888.5
566.139,1119.5
566.677,891.8
567.215,881.3
567.753,880.0
568.291,875.8
568.828,875.6
569.366,878.0
569.903,875.8
570.441,883.1
570.978,889.5
571.515,1102.7
572.052,911.3
572.589,890.0
573.126,881.2
573.662,882.0
574.199,893.0
574.735,884.0
575.272,903.4
575.808,964.9
576.344,1014.0
576.88,970.3
577.416,930.7
577.952,903.0
578.488,901.6
579.024,899.0
579.559,900.6
580.095,903.1
580.63,905.5
581.166,909.8
581.701,912.3
582.236,914.7
582.771,923.7
583.306,924.4
583.841,928.1
584.376,935.4
584.911,939.7
585.445,945.7
585.98,954.8
586.514,961.0
587.048,973.0
587.583,979.2
588.117,982.2
588.651,996.1
589.185,1001.0
589.719,1004.0
590.253,1013.3
590.786,1017.2
591.32,1015.5
591.853,1023.5
592.387,1019.3
592.92,1024.5
593.454,1025.0
593.987,1026.3
594.52,1022.8
595.053,1024.6
595.586,1026.4
596.119,1020.9
596.651,1020.0
597.184,1023.8
597.717,1022.1
598.249,1021.3
598.782,1019.2
599.314,1020.8
599.846,1022.2
600.379,1014.4
600.911,1014.4
601.443,1020.1
601.975,1014.2
602.507,1008.1
603.038,1009.0
603.57,1007.5
604.102,1006.2
604.633,998.2
605.165,995.1
605.696,993.8
606.228,982.7
606.759,976.1
607.29,982.0
607.821,973.9
608.352,974.7
608.883,967.9
609.414,969.5
609.945,966.2
610.476,966.5
611.006,970.7
611.537,965.5
612.067,963.2
612.598,956.4
613.128,957.9
613.659,955.6
614.189,958.8
614.719,954.1
615.249,950.1
615.779,954.7
616.309,945.9
616.839,946.2
617.369,948.8
617.899,951.1
618.428,952.9
618.958,949.4
619.487,945.7
620.017,947.3
620.546,948.1
621.076,952.4
621.605,963.5
622.134,986.1
622.663,973.8
623.193,949.9
623.722,946.9
624.251,943.7
624.78,944.4
625.308,950.3
625.837,952.3
626.366,986.7
626.895,1263.7
627.423,1647.6
627.952,1346.0
628.48,1631.9
629.009,1467.6
629.537,1341.6
630.065,1221.6
630.594,1192.1
631.122,1052.7
631.65,978.6
632.178,954.1
632.706,950.8
633.234,949.4
633.762,941.7
634.29,940.9
634.818,939.3
635.346,946.1
635.873,940.9
636.401,944.6
636.929,944.0
637.456,943.0
637.984,943.5
638.511,942.5
639.039,944.1
639.566,950.4
640.093,945.4
640.62,948.1
641.148,953.2
641.675,951.5
642.202,947.9
642.729,953.7
643.256,951.3
643.783,951.3
644.31,953.5
644.837,952.3
645.364,941.6
645.891,946.6
646.417,943.6
646.944,944.7
647.471,947.5
647.997,941.9
648.524,942.3
649.051,942.1
649.577,939.4
650.104,933.9
650.63,935.2
651.157,933.7
651.683,931.7
652.209,935.5
652.736,928.3
653.262,928.8
653.788,928.6
654.314,930.7
654.84,925.0
655.366,926.0
655.893,925.6
656.419,924.5
656.945,918.0
657.471,918.9
657.997,919.0
658.522,916.9
659.048,915.5
659.574,916.4
660.1,918.5
660.626,912.2
661.152,910.3
661.677,905.6
662.203,903.7
662.729,901.7
663.123,901.4

File: VLFR_02-HDPE_nobio_Raman_4eaac651.csv
cm-1,Intensity
-123.878,1852.05
-105.821,1851.95
-87.8007,1852.45
-69.8161,1852.8
-51.8675,1853.9
-33.9547,1853.95
-16.0776,1875.75
1.76388,3307.1
19.5698,1852.55
37.3403,1853.25
55.0755,1915.4
72.7754,2077.5
90.4402,2077.15
108.07,2090.55
125.665,2070.7
143.225,2052.35
160.75,2047.0
178.241,2058.7
195.697,2063.95
213.119,2054.6
230.506,2056.65
247.859,2062.15
265.178,2051.2
282.463,2055.75
299.713,2053.25
316.93,2050.3
334.113,2059.9
351.263,2056.85
368.379,2063.8
385.461,2061.05
402.51,2071.15
419.526,2071.5
436.508,2067.5
453.458,2066.45
470.374,2070.45
487.257,2064.3
504.107,2079.7
520.925,2080.35
537.71,2069.3
554.462,2078.35
571.182,2081.4
587.87,2078.9
604.525,2083.35
621.148,2084.2
637.739,2081.3
654.297,2087.0
670.824,2090.95
687.319,2096.1
703.782,2080.3
720.213,2091.6
736.613,2101.7
752.981,2104.35
769.317,2114.25
785.623,2105.65
801.897,2112.65
818.139,2109.8
834.351,2112.0
850.532,2111.5
866.681,2133.05
882.8,2121.25
898.888,2115.8
914.945,2127.1
930.972,2118.85
946.968,2119.8
962.934,2132.55
978.869,2136.4
994.774,2132.75
1010.65,2140.65
1026.49,2149.3
1042.31,2153.55
1058.09,2321.85
1073.85,2208.6
1089.57,2199.85
1105.27,2176.9
1120.93,2301.1
1136.57,2327.05
1152.18,2169.1
1167.75,2187.2
1183.3,2164.65
1198.82,2151.7
1214.31,2155.4
1229.77,2169.0
1245.2,2164.0
1260.6,2181.75
1275.97,2193.65
1291.32,2544.95
1306.63,2287.2
1321.92,2226.8
1337.18,2200.45
1352.41,2208.8
1367.61,2237.85
1382.78,2207.0
1397.93,2227.65
1413.05,2409.55
1428.14,2383.5
1443.2,2534.95
1458.23,2452.45
1473.23,2376.35
1488.21,2305.5
1503.16,2304.65
1518.08,2331.65
1532.97,2341.25
1547.84,2367.05
1562.68,2385.85
1577.49,2408.0
1592.27,2445.35
1607.03,2442.7
1621.76,2469.4
1636.46,2483.75
1651.14,2511.1
1665.78,2533.95
1680.41,2531.7
1695.0,2534.75
1709.57,2542.75
1724.11,2572.8
1738.62,2599.5
1753.11,2636.05
1767.57,2653.4
1782.01,2681.35
1796.41,2711.5
1810.8,2722.0
1825.15,2727.15
1839.48,2777.45
1853.79,2817.1
1868.06,2824.7
1882.31,2852.6
1896.54,2909.45
1910.74,2930.95
1924.91,2959.35
1939.06,2966.95
1953.19,2997.65
1967.28,3033.0
1981.35,3053.4
1995.4,3116.2
2009.42,3124.75
2023.42,3196.95
2037.39,3168.6
2051.33,3217.9
2065.25,3235.25
2079.15,3233.35
2093.01,3319.7
2106.86,3352.5
2120.68,3397.15
2134.47,3376.9
2148.24,3354.9
2161.99,3400.0
2175.71,3345.2
2189.41,3362.45
2203.08,3348.5
2216.73,3329.65
2230.35,3277.75
2243.95,3284.1
2257.52,3239.55
2271.07,3206.85
2284.6,3142.1
2298.1,3093.85
2311.58,3109.75
2325.03,3071.75
2338.46,3023.8
2351.87,3005.2
2365.25,2956.3
2378.61,2926.25
2391.94,2913.35
2405.26,2895.75
2418.54,2905.95
2431.81,2881.3
2445.05,2876.85
2458.27,2853.4
2471.46,2841.25
2484.63,2828.65
2497.78,2786.7
2510.9,2801.15
2524.0,2755.65
2537.08,2747.9
2550.14,2728.5
2563.17,2744.2
2576.18,2696.9
2589.17,2696.95
2602.13,2698.25
2615.07,2698.9
2627.99,2669.85
2640.89,2693.65
2653.76,2704.55
2666.61,2686.85
2679.44,2694.2
2692.25,2700.0
2705.03,2734.6
2717.79,2778.05
2730.53,2753.5
2743.25,2658.8
2755.94,2624.05
2768.61,2638.45
2781.27,2609.15
2793.89,2641.45
2806.5,2634.35
2819.09,2687.8
2831.65,3035.9
2844.19,4615.3
2856.71,4467.7
2869.21,3958.9
2881.69,5153.15
2894.14,4047.85
2906.58,3679.6
2918.99,3425.25
2931.38,3371.05
2943.75,2969.45
2956.1,2686.85
2968.42,2638.2
2980.73,2647.35
2993.01,2608.05
3005.28,2627.0
3017.52,2633.1
3029.74,2611.25
3041.94,2626.65
3054.12,2589.05
3066.28,2594.95
3078.42,2625.75
3090.54,2581.9
3102.63,2578.35
3114.71,2585.7
3126.77,2586.15
3138.8,2575.7
3150.82,2595.2
3162.81,2604.75
3174.78,2604.85
3186.74,2578.65
3198.67,2587.9
3210.58,2603.55
3222.47,2623.35
3234.35,2639.5
3246.2,2634.2
3258.03,2648.4
3269.84,2619.2
3281.64,2650.1
3293.41,2640.25
3305.16,2657.6
3316.89,2634.05
3328.61,2637.45
3340.3,2613.1
3351.97,2619.0
3363.63,2659.65
3375.26,2618.7
3386.88,2588.15
3398.47,2622.2
3410.05,2597.25
3421.6,2616.0
3433.14,2586.45
3444.66,2621.25
3456.15,2632.5
3467.63,2579.65
3479.09,2581.6
3490.53,2569.6
3501.96,2556.85
3513.36,2554.65
3524.74,2548.85
3536.11,2527.0
3547.45,2510.7
3558.78,2486.4
3570.09,2497.85
3581.37,2495.6
3592.64,2462.85
3603.9,2463.2
3615.13,2433.6
3626.34,2379.15
3637.54,2397.0
3648.72,2400.9
3659.87,2381.1
3665.45,2374.2

File: VLFR_02-HDPE_nobio_Raman_5b06ff14.csv
nm,Intensity
526.532,833.15
527.079,833.6
527.625,833.8
528.172,832.55
528.718,832.55
529.265,832.05
529.811,833.35
530.357,833.45
530.903,833.6
531.449,832.9
531.994,839.7
532.54,834.45
533.085,833.65
533.63,834.9
534.176,927.4
534.721,919.95
535.266,906.2
535.81,887.65
536.355,879.8
536.9,876.55
537.444,875.1
537.988,874.15
538.533,874.45
539.077,870.4
539.621,867.4
540.165,867.8
540.708,868.7
541.252,868.75
541.795,867.05
542.339,869.9
542.882,869.0
543.425,868.3
543.968,870.2
544.511,871.5
545.054,871.4
545.597,873.35
546.139,872.85
546.682,872.25
547.224,871.6
547.766,872.35
548.308,873.45
548.85,871.4
549.392,873.45
549.934,872.85
550.475,875.1
551.017,873.45
551.558,873.95
552.1,874.2
552.641,875.95
553.182,876.45
553.723,878.05
554.264,877.35
554.804,878.4
555.345,875.85
555.885,879.0
556.426,878.1
556.966,881.1
557.506,883.25
558.046,884.9
558.586,886.0
559.126,883.35
559.665,883.5
560.205,883.3
560.745,881.45
561.284,885.1
561.823,883.75
562.362,885.5
562.901,890.65
563.44,894.5
563.979,1011.7
564.518,914.8
565.056,910.2
565.595,905.15
566.133,1035.3
566.671,902.2
567.21,899.4
567.748,902.2
568.285,898.5
568.823,893.5
569.361,899.65
569.899,899.05
570.436,907.0
570.974,915.0
571.511,1125.9
572.048,936.95
572.585,919.6
573.122,913.0
573.659,919.0
574.196,928.85
574.733,924.2
575.269,939.6
575.806,987.0
576.342,1139.25
576.878,1046.95
577.414,1016.4
577.951,972.8
578.486,981.4
579.022,988.65
579.558,1001.75
580.094,1013.75
580.629,1023.75
581.165,1037.8
581.7,1049.25
582.236,1067.45
582.771,1079.5
583.306,1093.5
583.841,1106.75
584.376,1119.25
584.911,1129.35
585.445,1139.3
585.98,1152.95
586.514,1167.65
587.049,1173.65
587.583,1187.55
588.117,1195.15
588.651,1207.4
589.186,1214.2
589.72,1223.45
590.253,1233.8
590.787,1250.85
591.321,1259.85
591.854,1264.95
592.388,1274.2
592.921,1275.05
593.455,1279.4
593.988,1292.7
594.521,1299.7
595.054,1310.9
595.587,1324.45
596.12,1335.3
596.653,1336.45
597.186,1353.2
597.718,1352.55
598.251,1375.55
598.783,1386.15
599.316,1391.75
599.848,1394.15
600.38,1393.05
600.912,1385.05
601.444,1386.0
601.976,1378.65
602.508,1375.5
603.04,1359.55
603.572,1347.55
604.103,1330.6
604.635,1320.95
605.167,1295.1
605.698,1275.1
606.229,1255.7
606.761,1238.95
607.292,1226.95
607.823,1217.7
608.354,1209.9
608.885,1196.2
609.416,1183.85
609.947,1171.4
610.477,1160.45
611.008,1153.7
611.539,1142.65
612.069,1145.75
612.6,1135.65
613.13,1129.35
613.66,1124.45
614.19,1113.35
614.721,1106.9
615.251,1099.7
615.781,1096.15
616.311,1090.5
616.841,1089.9
617.37,1088.85
617.9,1089.2
618.43,1082.75
618.96,1075.0
619.489,1077.35
620.019,1075.25
620.548,1073.4
621.077,1074.0
621.607,1092.3
622.136,1128.25
622.665,1115.4
623.194,1075.55
623.723,1061.05
624.252,1058.7
624.781,1056.25
625.31,1061.5
625.839,1071.65
626.368,1117.75
626.896,1578.15
627.425,2109.75
627.953,1648.3
628.482,2165.6
629.01,1705.95
629.539,1536.45
630.067,1390.1
630.596,1347.3
631.124,1168.0
631.652,1085.5
632.18,1066.05
632.708,1064.55
633.236,1061.4
633.764,1059.15
634.292,1058.6
634.82,1058.6
635.348,1054.6
635.876,1056.2
636.403,1056.8
636.931,1057.25
637.459,1058.2
637.986,1056.8
638.514,1058.65
639.041,1055.65
639.568,1062.25
640.096,1058.65
640.623,1062.2
641.15,1066.15
641.678,1064.05
642.205,1062.55
642.732,1063.85
643.259,1062.2
643.786,1069.3
644.313,1067.85
644.84,1065.25
645.367,1067.45
645.894,1066.8
646.421,1069.65
646.948,1068.3
647.474,1069.1
648.001,1074.8
648.528,1068.4
649.054,1067.05
649.581,1068.75
650.108,1061.65
650.634,1067.2
651.161,1063.95
651.687,1069.85
652.214,1069.45
652.74,1068.95
653.266,1071.0
653.793,1068.75
654.319,1066.75
654.845,1062.95
655.371,1059.25
655.897,1058.8
656.424,1055.4
656.95,1051.1
657.476,1043.65
658.002,1043.8
658.528,1037.7
659.054,1032.05
659.58,1030.95
660.106,1026.8
660.631,1018.5
661.157,1008.55
661.683,1001.45
662.209,997.35
662.735,991.85
663.129,987.4

File: VLFR_02-HDPE_nobio_Raman_5ba4047e.csv
nm,Intensity
526.486,831.2
527.033,830.9
527.579,829.8
528.126,831.1
528.672,830.6
529.219,828.9
529.765,830.3
530.311,830.2
530.857,829.8
531.403,830.9
531.948,831.8
532.494,832.5
533.039,831.0
533.585,832.0
534.13,919.3
534.675,904.3
535.22,889.8
535.764,876.8
536.309,870.8
536.854,867.0
537.398,867.0
537.942,865.3
538.486,862.4
539.03,859.6
539.574,858.4
540.118,854.5
540.662,851.5
541.205,854.4
541.749,850.9
542.292,853.2
542.835,850.0
543.378,847.8
543.921,850.7
544.464,848.6
545.006,848.2
545.549,848.3
546.091,849.3
546.634,845.8
547.176,846.4
547.718,850.5
548.26,847.7
548.802,845.0
549.343,845.4
549.885,846.2
550.426,847.3
550.968,845.8
551.509,847.2
552.05,846.5
552.591,846.3
553.132,851.1
553.673,853.3
554.214,851.8
554.754,849.8
555.295,855.0
555.835,857.1
556.375,856.4
556.915,859.1
557.455,866.1
557.995,865.9
558.535,867.1
559.075,866.3
559.614,864.4
560.154,863.6
560.693,863.1
561.232,866.3
561.772,868.7
562.311,873.7
562.85,878.1
563.388,882.8
563.927,935.6
564.466,908.6
565.004,900.1
565.543,901.4
566.081,986.6
566.619,906.3
567.157,895.5
567.695,897.3
568.233,897.2
568.771,903.1
569.309,913.0
569.846,914.9
570.384,922.8
570.921,937.8
571.458,1036.4
571.995,980.0
572.532,967.1
573.069,964.7
573.606,976.1
574.143,998.5
574.68,1005.3
575.216,1031.3
575.753,1125.6
576.289,1189.7
576.825,1187.2
577.361,1184.2
577.897,1189.5
578.433,1221.6
578.969,1262.4
579.505,1317.9
580.041,1362.5
580.576,1401.4
581.112,1456.1
581.647,1491.8
582.183,1538.5
582.718,1578.8
583.253,1624.0
583.788,1633.0
584.323,1657.3
584.858,1665.8
585.392,1695.8
585.927,1714.9
586.462,1739.5
586.996,1747.9
587.53,1758.0
588.065,1782.1
588.599,1799.3
589.133,1802.1
589.667,1808.2
590.201,1823.0
590.735,1852.6
591.268,1850.9
591.802,1877.1
592.335,1866.0
592.869,1857.9
593.402,1862.7
593.936,1863.7
594.469,1874.3
595.002,1870.0
595.535,1885.2
596.068,1899.8
596.601,1916.5
597.133,1918.9
597.666,1922.7
598.199,1960.1
598.731,1977.6
599.264,2004.9
599.796,2018.3
600.328,2006.3
600.86,2001.1
601.393,1997.3
601.925,1984.2
602.457,1981.5
602.988,1954.1
603.52,1936.1
604.052,1908.6
604.583,1862.2
605.115,1823.6
605.646,1781.2
606.178,1750.3
606.709,1704.1
607.24,1687.9
607.771,1668.4
608.302,1652.3
608.833,1615.1
609.364,1592.4
609.895,1576.9
610.426,1559.7
610.957,1538.1
611.487,1516.4
612.018,1521.4
612.548,1495.6
613.078,1487.0
613.609,1483.7
614.139,1461.9
614.669,1441.9
615.199,1439.1
615.729,1421.3
616.259,1400.3
616.789,1390.9
617.319,1384.7
617.849,1375.6
618.378,1368.7
618.908,1364.0
619.437,1350.0
619.967,1344.0
620.496,1340.1
621.025,1338.4
621.555,1346.9
622.084,1354.0
622.613,1350.2
623.142,1332.6
623.671,1330.9
624.2,1333.8
624.729,1328.7
625.258,1338.2
625.786,1335.6
626.315,1358.3
626.844,1519.4
627.372,1947.7
627.901,1713.7
628.429,1818.0
628.957,1814.7
629.486,1732.9
630.014,1643.7
630.542,1637.3
631.07,1520.9
631.598,1449.6
632.126,1427.5
632.654,1415.9
633.182,1425.8
633.71,1422.4
634.237,1418.9
634.765,1430.4
635.293,1434.0
635.82,1430.3
636.348,1425.9
636.875,1427.6
637.403,1422.7
637.93,1424.4
638.458,1418.4
638.985,1421.8
639.512,1418.6
640.039,1422.2
640.566,1418.6
641.093,1426.1
641.62,1425.1
642.147,1417.6
642.674,1421.2
643.201,1414.9
643.728,1405.5
644.255,1405.7
644.781,1400.6
645.308,1396.7
645.835,1393.4
646.361,1398.4
646.888,1391.8
647.414,1392.0
647.941,1387.2
648.467,1387.9
648.993,1372.6
649.52,1369.3
650.046,1365.7
650.572,1363.5
651.098,1355.1
651.625,1356.3
652.151,1358.0
652.677,1355.4
653.203,1359.3
653.729,1359.8
654.255,1351.8
654.78,1344.9
655.306,1342.8
655.832,1336.5
656.358,1333.1
656.884,1324.9
657.409,1321.0
657.935,1312.6
658.461,1301.1
658.986,1289.3
659.512,1278.6
660.037,1266.5
660.563,1252.0
661.088,1235.8
661.614,1223.3
662.139,1207.7
662.664,1191.8
663.058,1193.8

File: VLFR_02-HDPE_nobio_Raman_5cfeb588.csv
nm,Intensity
526.486,829.62
527.033,829.46
527.579,829.6
528.126,829.08
528.672,829.24
529.219,828.84
529.765,828.88
530.311,828.6
530.857,829.38
531.403,828.68
531.948,834.46
532.494,830.58
533.039,828.94
533.585,828.98
534.13,883.88
534.675,886.72
535.22,880.26
535.764,875.82
536.309,872.16
536.854,871.7
537.398,871.06
537.942,868.6
538.486,868.12
539.03,870.54
539.574,872.02
540.118,870.3
540.662,874.1
541.205,879.46
541.749,888.24
542.292,886.78
542.835,888.5
543.378,892.54
543.921,883.2
544.464,886.74
545.006,894.16
545.549,895.84
546.091,882.96
546.634,885.28
547.176,886.8
547.718,881.4
548.26,880.48
548.802,881.88
549.343,880.84
549.885,880.88
550.426,882.22
550.968,883.16
551.509,879.26
552.05,880.42
552.591,880.34
553.132,879.36
553.673,880.46
554.214,880.4
554.754,880.06
555.295,878.84
555.835,880.6
556.375,880.96
556.915,880.9
557.455,882.72
557.995,883.94
558.535,889.08
559.075,892.62
559.614,886.88
560.154,885.5
560.693,885.6
561.232,890.82
561.772,894.76
562.311,892.8
562.85,895.36
563.388,904.2
563.927,913.52
564.466,918.16
565.004,970.12
565.543,941.96
566.081,943.88
566.619,911.74
567.157,903.1
567.695,894.46
568.233,892.24
568.771,892.26
569.309,894.58
569.846,898.94
570.384,901.38
570.921,901.92
571.458,905.56
571.995,903.94
572.532,908.9
573.069,918.58
573.606,910.92
574.143,919.5
574.68,916.34
575.216,910.06
575.753,909.46
576.289,902.52
576.825,902.6
577.361,905.48
577.897,896.4
578.433,892.6
578.969,891.08
579.505,891.3
580.041,893.52
580.576,892.34
581.112,892.1
581.647,898.3
582.183,897.04
582.718,893.6
583.253,893.62
583.788,894.24
584.323,892.7
584.858,893.2
585.392,893.14
585.927,892.94
586.462,894.86
586.996,893.56
587.53,894.36
588.065,893.66
588.599,891.76
589.133,892.2
589.667,892.76
590.201,893.26
590.735,893.54
591.268,894.04
591.802,893.9
592.335,894.92
592.869,893.74
593.402,893.26
593.936,894.72
594.469,895.56
595.002,894.58
595.535,895.78
596.068,896.0
596.601,896.78
597.133,898.22
597.666,897.68
598.199,897.58
598.731,897.36
599.264,900.08
599.796,899.52
600.328,898.3
600.86,898.06
601.393,899.04
601.925,897.64
602.457,898.28
602.988,899.36
603.52,899.1
604.052,899.26
604.583,897.96
605.115,897.48
605.646,896.14
606.178,895.52
606.709,896.48
607.24,894.08
607.771,894.52
608.302,895.32
608.833,897.84
609.364,895.56
609.895,895.8
610.426,895.22
610.957,895.06
611.487,893.78
612.018,896.7
612.548,896.98
613.078,897.8
613.609,898.14
614.139,899.76
614.669,897.66
615.199,898.02
615.729,897.08
616.259,897.44
616.789,896.76
617.319,896.18
617.849,896.44
618.378,899.44
618.908,896.34
619.437,897.64
619.967,898.28
620.496,898.16
621.025,897.72
621.555,901.3
622.084,901.88
622.613,903.74
623.142,903.62
623.671,904.08
624.2,903.88
624.729,907.06
625.258,906.06
625.786,910.82
626.315,912.96
626.844,924.12
627.372,942.72
627.901,949.9
628.429,972.52
628.957,992.02
629.486,987.72
630.014,969.88
630.542,956.12
631.07,948.5
631.598,940.54
632.126,935.9
632.654,915.8
633.182,905.54
633.71,900.9
634.237,896.56
634.765,896.26
635.293,895.72
635.82,894.8
636.348,896.44
636.875,894.52
637.403,894.92
637.93,893.48
638.458,894.32
638.985,894.32
639.512,893.68
640.039,894.2
640.566,896.4
641.093,896.9
641.62,896.74
642.147,898.58
642.674,900.26
643.201,899.56
643.728,901.6
644.255,905.92
644.781,908.88
645.308,909.68
645.835,909.1
646.361,908.62
646.888,910.0
647.414,912.76
647.941,914.34
648.467,912.8
648.993,913.7
649.52,911.8
650.046,907.48
650.572,905.52
651.098,904.82
651.625,905.34
652.151,902.26
652.677,899.46
653.203,899.86
653.729,897.6
654.255,895.9
654.78,893.26
655.306,892.64
655.832,890.54
656.358,890.52
656.884,890.08
657.409,888.5
657.935,889.18
658.461,889.48
658.986,886.72
659.512,886.18
660.037,886.04
660.563,885.82
661.088,885.74
661.614,884.28
662.139,883.48
662.664,883.32
663.058,882.2