Folder: MPX_specDB/spectra (part 121)

File: VLFR_07-PET_nobio_Raman_b449973c.csv
nm,Intensity
791.377,10805.2
792.477,9759.68
793.576,9131.52
794.676,8914.94
795.775,8632.1
796.874,8699.46
797.973,8637.84
799.072,8571.36
800.171,8488.06
801.27,8530.6
802.368,8548.78
803.467,8216.32
804.565,8124.06
805.664,7999.0
806.762,7990.74
807.86,7938.12
808.958,7813.24
810.056,7809.88
811.153,7703.82
812.251,7683.66
813.349,7626.34
814.446,7642.04
815.543,7440.06
816.64,7438.46
817.737,7317.46
818.834,7337.02
819.931,7329.46
821.028,7211.14
822.125,7125.72
823.221,7011.52
824.317,7080.0
825.414,7184.6
826.51,6941.24
827.606,6950.94
828.702,6779.94
829.797,6783.04
830.893,6910.3
831.988,6645.44
833.084,6581.32
834.179,6564.26
835.274,6557.62
836.369,6558.86
837.464,6649.14
838.559,6557.86
839.654,6517.84
840.748,6700.26
841.843,6726.92
842.937,6521.68
844.031,6376.36
845.125,6235.92
846.219,6105.16
847.313,6112.3
848.407,6070.18
849.5,6062.0
850.593,6051.14
851.687,6051.12
852.78,6033.48
853.873,6015.04
854.966,5948.0
856.059,5876.66
857.151,5873.24
858.244,5992.82
859.336,6074.2
860.428,6065.5
861.52,5878.62
862.612,5817.92
863.704,5710.52
864.796,5775.3
865.888,5600.96
866.979,5673.86
868.07,5605.42
869.162,5589.16
870.253,5659.9
871.344,5750.48
872.434,6001.6
873.525,5941.52
874.615,5720.84
875.706,5523.2
876.796,5475.34
877.886,5409.38
878.976,5397.22
880.066,5368.02
881.156,5374.72
882.245,5371.66
883.335,5327.04
884.424,5304.5
885.513,5342.38
886.602,5229.74
887.691,5206.22
888.78,5125.92
889.868,5134.34
890.957,5104.64
892.045,5133.7
893.133,5074.06
894.221,5049.42
895.309,4985.6
896.397,5046.0
897.484,5262.48
898.571,5767.66
899.659,5282.08
900.746,4908.5
901.833,4878.06
902.92,4839.7
904.006,4855.08
905.093,4823.8
906.179,4955.86
907.266,5260.28
908.352,5321.7
909.438,5000.12
910.523,4763.6
911.609,4651.74
912.695,4643.98
913.78,4609.66
914.865,4605.08
915.95,4555.3
917.035,4532.26
918.12,4511.56
919.204,4508.14
920.289,4471.96
921.373,4465.32
922.457,4451.54
923.541,4390.02
924.625,4411.7
925.709,4390.42
926.792,4372.7
927.876,4338.38
928.959,4324.34
930.042,4304.58
931.125,4294.36
932.208,4252.34
933.29,4267.5
934.373,4235.4
935.455,4210.62
936.537,4221.0
937.619,4193.68
938.701,4193.36
939.782,4178.08
940.864,4160.04
941.945,4136.68
943.026,4142.32
944.107,4113.1
945.188,4101.42
946.269,4105.66
947.349,4084.1
948.43,4082.52
949.51,4068.52
950.59,4049.6
951.67,4042.84
952.75,4031.9
953.829,4026.3
954.909,4011.14
955.988,4009.18
957.067,4003.1
958.146,3987.48
959.224,3982.5
960.303,3969.52
961.381,3968.34
962.459,3964.74
963.537,3957.66
964.615,3945.16
965.693,3939.38
966.771,3928.44
967.848,3923.74
968.925,3924.92
970.002,3910.44
971.079,3908.86
972.156,3907.66
973.232,3892.92
974.309,3887.38
975.385,3886.7
976.461,3879.64
977.537,3878.66
978.612,3864.18
979.688,3868.02
980.763,3863.62
981.838,3858.26
982.913,3853.0
983.988,3849.98
985.063,3846.08
986.137,3844.2
987.211,3839.28
988.285,3839.92
989.359,3834.94
990.433,3827.2
991.506,3823.22
992.58,3819.84
993.653,3816.5
994.726,3813.0
995.799,3811.58
996.872,3807.36
997.944,3806.98
999.016,3802.3
1000.09,3798.9
1001.16,3794.22
1002.23,3795.26
1003.3,3790.56
1004.38,3788.66
1005.45,3789.46
1006.52,3786.56
1007.59,3783.44
1008.66,3782.08
1009.73,3778.8
1010.8,3776.98
1011.87,3775.46
1012.94,3774.28
1014.01,3774.32
1015.08,3771.86
1016.15,3772.24
1017.22,3768.88
1018.29,3768.3
1019.36,3767.08
1020.42,3767.26
1021.49,3773.34
1022.56,3776.94
1023.63,3776.9
1024.7,3769.78
1025.76,3763.8
1026.83,3760.9
1027.9,3759.52
1028.97,3755.52
1030.03,3752.0
1031.1,3751.2
1032.17,3752.74
1033.23,3753.14
1034.3,3756.46
1035.36,3758.38
1036.43,3756.1
1037.5,3750.26
1038.56,3747.62
1039.63,3746.54
1040.69,3743.36
1041.76,3743.62
1042.82,3743.08
1043.89,3742.06
1044.95,3741.22
1046.01,3740.28
1047.08,3740.38
1048.14,3740.58
1049.2,3739.66
1050.27,3739.82
1051.33,3739.26
1052.39,3738.7
1053.46,3738.52
1054.52,3738.5
1055.58,3739.84
1056.64,3737.08
1057.7,3737.96
1058.77,3737.52
1059.83,3737.44
1060.89,3737.7
1061.95,3736.5
1063.01,3737.12
1064.07,3736.66
1065.13,3736.3
1066.19,3736.5
1067.25,3735.96
1068.05,3735.42

File: VLFR_07-PET_nobio_Raman_bbe4ad35.csv
nm,Intensity
791.75,14587.4
792.846,13467.8
793.942,12612.8
795.037,12679.5
796.133,12518.2
797.228,12359.3
798.324,12401.4
799.419,12242.8
800.514,12159.9
801.61,12318.0
802.705,11914.4
803.8,11654.7
804.894,11587.2
805.989,11456.5
807.084,11332.5
808.178,11332.2
809.273,11174.3
810.367,11026.5
811.461,10954.0
812.556,10886.0
813.65,10742.0
814.744,10786.8
815.837,10517.8
816.931,10644.7
818.025,10435.9
819.118,10423.2
820.212,10311.1
821.305,10090.8
822.398,10095.8
823.491,9992.0
824.585,9837.65
825.677,10326.2
826.77,9743.6
827.863,9570.1
828.956,9524.05
830.048,9603.95
831.14,9341.55
832.233,9196.5
833.325,9225.35
834.417,9083.9
835.509,8978.25
836.601,9176.45
837.692,9074.1
838.784,8992.6
839.876,8908.45
840.967,9336.95
842.058,8941.25
843.149,8783.45
844.24,8649.6
845.331,8300.45
846.422,8384.55
847.513,8245.4
848.604,8163.4
849.694,8121.9
850.784,8221.0
851.875,8084.3
852.965,8132.8
854.055,7995.7
855.145,7911.55
856.235,7850.3
857.324,7914.6
858.414,7979.3
859.503,8057.6
860.593,7850.8
861.682,7692.25
862.771,7607.65
863.86,7653.2
864.949,7612.6
866.038,7432.2
867.126,7383.85
868.215,7417.0
869.303,7389.15
870.391,7393.0
871.479,7679.2
872.567,7855.0
873.655,7696.7
874.743,7289.2
875.831,7170.0
876.918,7062.8
878.006,7041.25
879.093,7032.55
880.18,6926.3
881.267,6940.3
882.354,6930.25
883.441,6805.0
884.527,6774.1
885.614,6755.8
886.7,6625.55
887.786,6610.65
888.872,6525.15
889.958,6509.4
891.044,6551.65
892.13,6399.6
893.216,6274.9
894.301,6261.3
895.386,6223.55
896.472,6286.8
897.557,7053.3
898.642,6998.5
899.726,6277.25
900.811,6036.2
901.896,5899.35
902.98,5855.45
904.064,5883.25
905.148,5875.25
906.232,6202.8
907.316,6568.8
908.4,6223.1
909.484,5788.35
910.567,5672.55
911.65,5576.6
912.734,5464.25
913.817,5482.8
914.9,5419.15
915.982,5323.75
917.065,5284.35
918.147,5301.6
919.23,5275.5
920.312,5214.05
921.394,5136.2
922.476,5148.25
923.558,5097.2
924.639,5072.05
925.721,5056.25
926.802,5001.35
927.884,4981.15
928.965,4898.25
930.046,4868.3
931.126,4824.6
932.207,4807.35
933.288,4770.1
934.368,4755.85
935.448,4723.8
936.528,4661.55
937.608,4647.5
938.688,4608.3
939.767,4610.1
940.847,4587.3
941.926,4539.45
943.005,4525.25
944.084,4496.95
945.163,4488.35
946.242,4427.95
947.321,4434.75
948.399,4421.5
949.477,4391.1
950.556,4352.35
951.634,4346.9
952.711,4321.4
953.789,4295.0
954.867,4287.2
955.944,4273.7
957.021,4250.05
958.098,4242.4
959.175,4221.25
960.252,4204.85
961.328,4177.95
962.405,4182.35
963.481,4160.95
964.557,4125.45
965.633,4127.95
966.709,4110.2
967.785,4088.8
968.86,4081.7
969.936,4079.75
971.011,4052.0
972.086,4057.3
973.161,4046.3
974.235,4023.3
975.31,4014.65
976.384,3998.85
977.459,3992.85
978.533,3980.65
979.607,3971.85
980.68,3960.25
981.754,3951.35
982.827,3938.25
983.901,3941.05
984.974,3931.45
986.047,3926.45
987.119,3911.95
988.192,3913.6
989.264,3895.3
990.337,3886.85
991.409,3882.3
992.481,3877.6
993.553,3873.0
994.624,3865.65
995.696,3858.8
996.767,3852.1
997.838,3843.3
998.909,3836.7
999.98,3833.65
1001.05,3832.35
1002.12,3820.85
1003.19,3822.8
1004.26,3817.3
1005.33,3809.95
1006.4,3805.25
1007.47,3802.0
1008.54,3796.9
1009.61,3789.2
1010.68,3786.4
1011.75,3781.25
1012.82,3783.35
1013.88,3779.05
1014.95,3783.05
1016.02,3774.55
1017.09,3771.35
1018.16,3771.4
1019.22,3767.4
1020.29,3768.8
1021.36,3773.05
1022.43,3776.0
1023.49,3768.95
1024.56,3765.4
1025.63,3758.15
1026.69,3751.15
1027.76,3748.9
1028.83,3742.55
1029.89,3742.15
1030.96,3735.8
1032.02,3736.75
1033.09,3738.85
1034.15,3745.6
1035.22,3743.45
1036.28,3737.1
1037.35,3731.5
1038.41,3727.6
1039.48,3725.65
1040.54,3723.4
1041.6,3721.05
1042.67,3722.95
1043.73,3719.85
1044.79,3718.9
1045.86,3718.15
1046.92,3716.55
1047.98,3716.1
1049.05,3716.2
1050.11,3715.9
1051.17,3714.2
1052.23,3715.15
1053.29,3716.25
1054.36,3713.9
1055.42,3712.85
1056.48,3713.0
1057.54,3712.55
1058.6,3711.05
1059.66,3710.65
1060.72,3711.0
1061.78,3710.45
1062.84,3709.35
1063.9,3710.55
1064.96,3710.55
1066.02,3708.8
1067.08,3708.3
1067.88,3708.55

File: VLFR_07-PET_nobio_Raman_c2a93e09.csv
nm,Intensity
791.588,11280.3
792.685,10501.9
793.781,9770.1
794.878,9457.9
795.975,9365.2
797.071,9365.5
798.168,9301.0
799.264,9392.5
800.36,9176.1
801.456,9366.0
802.552,9247.4
803.648,9126.4
804.744,8999.6
805.84,8959.2
806.936,8826.8
808.031,8713.5
809.127,8648.3
810.222,8559.5
811.317,8511.4
812.412,8436.4
813.507,8340.0
814.602,8306.4
815.697,8289.5
816.792,8207.2
817.887,8167.3
818.981,8084.2
820.076,8025.5
821.17,8006.2
822.265,7888.0
823.359,7916.5
824.453,7758.6
825.547,8025.4
826.641,7757.2
827.735,7712.1
828.828,7558.0
829.922,7574.3
831.016,7667.3
832.109,7448.7
833.202,7510.1
834.295,7405.7
835.388,7301.9
836.481,7335.8
837.574,7354.3
838.667,7391.8
839.76,7275.3
840.852,7553.8
841.945,7519.6
843.037,7290.9
844.129,7122.8
845.221,6932.5
846.314,6809.2
847.405,6847.8
848.497,6754.2
849.589,6680.0
850.681,6679.7
851.772,6705.9
852.863,6660.0
853.955,6609.3
855.046,6560.4
856.137,6507.9
857.228,6529.3
858.318,6587.0
859.409,6637.1
860.5,6623.6
861.59,6410.5
862.681,6321.8
863.771,6359.1
864.861,6415.4
865.951,6278.4
867.041,6223.0
868.131,6142.5
869.22,6195.6
870.31,6248.9
871.399,6409.3
872.488,6582.6
873.578,6559.5
874.667,6315.0
875.756,6153.1
876.845,6070.2
877.933,6033.3
879.022,6002.8
880.11,5943.7
881.199,5906.4
882.287,5999.9
883.375,5913.8
884.463,5898.6
885.551,5893.9
886.639,5812.5
887.726,5753.4
888.814,5711.5
889.901,5702.5
890.988,5707.8
892.075,5720.9
893.162,5649.0
894.249,5581.8
895.336,5540.0
896.423,5571.0
897.509,5926.0
898.595,6332.4
899.682,5847.8
900.768,5417.3
901.854,5374.9
902.94,5344.5
904.025,5315.7
905.111,5291.2
906.196,5462.4
907.282,5796.8
908.367,5813.4
909.452,5426.4
910.537,5191.3
911.622,5056.9
912.706,4996.4
913.791,4973.7
914.875,4956.5
915.959,4942.0
917.044,4922.9
918.128,4893.7
919.211,4829.1
920.295,4788.2
921.379,4783.7
922.462,4743.8
923.546,4739.7
924.629,4691.7
925.712,4672.2
926.795,4652.4
927.877,4614.7
928.96,4613.3
930.043,4553.7
931.125,4551.9
932.207,4522.9
933.289,4507.7
934.371,4485.0
935.453,4434.0
936.535,4433.8
937.616,4419.5
938.697,4386.2
939.779,4376.1
940.86,4353.4
941.941,4342.2
943.022,4318.9
944.102,4292.3
945.183,4288.1
946.263,4274.2
947.343,4244.3
948.423,4244.1
949.503,4224.6
950.583,4213.6
951.663,4202.5
952.742,4185.3
953.822,4165.5
954.901,4167.1
955.98,4144.4
957.059,4124.9
958.137,4136.2
959.216,4109.9
960.294,4093.7
961.373,4088.3
962.451,4083.8
963.529,4063.4
964.607,4053.1
965.684,4053.8
966.762,4040.5
967.839,4033.7
968.917,4018.6
969.994,4014.4
971.071,4003.6
972.147,3981.7
973.224,3986.9
974.3,3984.1
975.377,3973.2
976.453,3970.4
977.529,3962.9
978.605,3954.6
979.68,3936.8
980.756,3938.1
981.831,3933.9
982.907,3926.3
983.982,3924.8
985.057,3919.9
986.131,3915.9
987.206,3910.1
988.28,3900.7
989.355,3899.4
990.429,3888.2
991.503,3886.6
992.576,3878.0
993.65,3874.4
994.723,3867.0
995.797,3866.9
996.87,3865.7
997.943,3858.8
999.016,3851.9
1000.09,3848.1
1001.16,3846.9
1002.23,3843.0
1003.31,3839.9
1004.38,3838.2
1005.45,3836.5
1006.52,3834.1
1007.59,3831.7
1008.66,3823.7
1009.73,3820.6
1010.81,3821.0
1011.88,3816.8
1012.95,3813.3
1014.02,3815.7
1015.09,3812.3
1016.16,3810.7
1017.23,3810.5
1018.3,3800.9
1019.37,3806.2
1020.44,3806.8
1021.51,3808.6
1022.58,3811.1
1023.64,3810.6
1024.71,3805.1
1025.78,3801.7
1026.85,3792.2
1027.92,3788.4
1028.99,3787.9
1030.05,3784.1
1031.12,3781.6
1032.19,3783.0
1033.26,3781.1
1034.32,3787.5
1035.39,3786.5
1036.46,3785.4
1037.52,3782.8
1038.59,3776.7
1039.66,3774.8
1040.72,3771.0
1041.79,3771.0
1042.86,3770.9
1043.92,3771.2
1044.99,3767.7
1046.05,3767.6
1047.12,3767.3
1048.18,3764.2
1049.25,3765.0
1050.31,3765.4
1051.37,3767.1
1052.44,3765.6
1053.5,3765.1
1054.57,3764.6
1055.63,3764.1
1056.69,3765.0
1057.76,3762.9
1058.82,3763.4
1059.88,3760.5
1060.95,3763.9
1062.01,3762.9
1063.07,3763.2
1064.13,3762.6
1065.19,3762.9
1066.26,3761.5
1067.32,3762.3
1068.11,3760.2

File: VLFR_07-PET_nobio_Raman_c2ddc02c.csv
nm,Intensity
782.722,3749.98
783.822,3757.82
784.922,7297.26
786.022,4134.74
787.122,3779.28
788.222,7713.32
789.321,15983.9
790.421,14428.2
791.52,12613.3
792.619,11312.9
793.718,10509.9
794.817,10051.0
795.916,9915.38
797.015,9794.52
798.114,9784.3
799.212,9672.66
800.311,9636.98
801.409,9673.62
802.507,9624.58
803.605,9308.12
804.703,9349.2
805.801,9193.94
806.899,9050.06
807.997,8977.18
809.094,8972.04
810.191,8900.78
811.289,8811.7
812.386,8682.12
813.483,8641.92
814.58,8564.3
815.677,8418.22
816.774,8273.86
817.87,8331.24
818.967,8199.96
820.063,8013.02
821.159,8098.38
822.255,7908.0
823.351,7903.92
824.447,7823.22
825.543,7996.76
826.639,7865.8
827.734,7621.24
828.83,7598.88
829.925,7520.12
831.02,7681.4
832.115,7486.68
833.21,7400.98
834.305,7326.26
835.4,7210.3
836.494,7308.88
837.589,7495.24
838.683,7357.88
839.777,7369.56
840.871,7557.34
841.965,7634.62
843.059,7231.5
844.152,7167.84
845.246,6968.44
846.339,6869.48
847.433,6830.34
848.526,6732.3
849.619,6686.76
850.712,6688.1
851.804,6666.96
852.897,6782.46
853.989,6582.4
855.082,6559.5
856.174,6442.74
857.266,6426.3
858.358,6609.46
859.45,6663.66
860.542,6696.08
861.633,6524.5
862.725,6351.62
863.816,6268.14
864.907,6405.72
865.998,6204.22
867.089,6097.66
868.18,6143.74
869.27,6176.54
870.361,6160.08
871.451,6255.28
872.541,6613.38
873.631,6594.86
874.721,6302.62
875.811,6085.34
876.901,5993.44
877.99,5866.1
879.08,5920.36
880.169,5810.88
881.258,5800.2
882.347,5831.74
883.436,5813.3
884.524,5780.16
885.613,5813.08
886.701,5702.24
887.79,5635.18
888.878,5606.92
889.966,5542.16
891.053,5561.08
892.141,5537.06
893.229,5500.24
894.316,5433.62
895.403,5410.54
896.49,5397.42
897.577,5616.28
898.664,6430.48
899.751,5829.46
900.837,5299.74
901.923,5179.82
903.01,5214.78
904.096,5190.78
905.181,5156.68
906.267,5323.36
907.353,5698.46
908.438,5822.3
909.523,5432.8
910.609,5112.44
911.694,4978.08
912.778,4951.76
913.863,4896.04
914.948,4851.44
916.032,4852.88
917.116,4808.66
918.2,4814.0
919.284,4742.12
920.368,4734.7
921.452,4713.14
922.535,4689.44
923.618,4649.98
924.701,4605.46
925.784,4615.16
926.867,4588.36
927.95,4547.12
929.032,4517.3
930.115,4496.42
931.197,4453.34
932.279,4426.6
933.361,4415.98
934.442,4408.82
935.524,4386.82
936.605,4350.96
937.687,4343.24
938.768,4311.76
939.849,4314.74
940.929,4290.32
942.01,4267.04
943.09,4255.68
944.171,4239.58
945.251,4225.44
946.331,4209.12
947.41,4198.8
948.49,4170.96
949.569,4165.78
950.649,4146.1
951.728,4157.06
952.807,4128.9
953.885,4108.0
954.964,4104.84
956.042,4101.38
957.121,4082.9
958.199,4078.64
959.277,4062.78
960.354,4051.92
961.432,4048.0
962.509,4043.4
963.587,4019.48
964.664,4014.48
965.741,4004.26
966.817,4006.28
967.894,3998.34
968.97,3989.88
970.047,3983.32
971.123,3973.56
972.198,3976.96
973.274,3959.02
974.35,3949.82
975.425,3942.74
976.5,3943.84
977.575,3933.4
978.65,3932.14
979.725,3924.08
980.799,3918.32
981.873,3916.0
982.947,3906.62
984.021,3904.36
985.095,3900.64
986.169,3892.22
987.242,3892.64
988.315,3890.58
989.388,3882.66
990.461,3871.54
991.534,3865.56
992.607,3867.08
993.679,3857.88
994.751,3858.66
995.823,3853.12
996.895,3850.16
997.966,3846.0
999.038,3839.04
1000.11,3835.7
1001.18,3834.7
1002.25,3834.88
1003.32,3832.26
1004.39,3826.98
1005.46,3821.82
1006.53,3817.3
1007.6,3819.6
1008.67,3814.08
1009.74,3811.38
1010.81,3809.44
1011.88,3806.98
1012.95,3804.84
1014.02,3806.12
1015.09,3802.06
1016.16,3801.22
1017.22,3800.4
1018.29,3795.38
1019.36,3794.9
1020.43,3794.92
1021.49,3802.84
1022.56,3803.42
1023.63,3808.34
1024.7,3796.64
1025.76,3794.3
1026.83,3787.38
1027.9,3783.12
1028.96,3778.6
1030.03,3777.2
1031.09,3774.76
1032.16,3774.78
1033.22,3775.28
1034.29,3779.1
1035.35,3781.38
1036.42,3778.92
1037.48,3773.4
1038.55,3768.68
1039.61,3765.44
1040.68,3764.84
1041.74,3761.96
1042.8,3762.2
1043.87,3760.84
1044.93,3760.04
1045.99,3758.26
1047.06,3758.66
1048.12,3757.56
1049.18,3757.4
1050.24,3758.14
1051.31,3758.3
1052.37,3756.7
1053.43,3756.36
1054.49,3755.36
1055.55,3755.96
1056.61,3755.76
1057.67,3755.88
1058.73,3754.06
1059.53,3754.02

File: VLFR_07-PET_nobio_Raman_c5aeb565.csv
nm,Intensity
791.377,11781.6
792.477,10512.3
793.576,9957.08
794.676,9573.5
795.775,9453.68
796.874,9379.14
797.973,9209.02
799.072,9243.54
800.171,9168.74
801.27,9099.8
802.368,9234.24
803.467,8875.1
804.565,8830.44
805.664,8687.88
806.762,8686.58
807.86,8546.56
808.958,8457.14
810.056,8374.88
811.153,8411.92
812.251,8312.52
813.349,8240.14
814.446,8165.5
815.543,8115.18
816.64,8065.78
817.737,7943.76
818.834,7967.46
819.931,7890.52
821.028,7925.6
822.125,7789.14
823.221,7617.64
824.317,7694.18
825.414,7667.58
826.51,7677.08
827.606,7475.18
828.702,7414.56
829.797,7387.86
830.893,7467.06
831.988,7232.34
833.084,7180.48
834.179,7195.4
835.274,7033.92
836.369,7073.1
837.464,7181.0
838.559,7138.2
839.654,7021.06
840.748,7245.28
841.843,7400.6
842.937,6997.68
844.031,6918.28
845.125,6769.58
846.219,6696.38
847.313,6689.12
848.407,6549.62
849.5,6523.52
850.593,6486.78
851.687,6498.86
852.78,6539.72
853.873,6397.9
854.966,6385.16
856.059,6327.88
857.151,6302.56
858.244,6415.46
859.336,6459.14
860.428,6489.74
861.52,6307.5
862.612,6188.08
863.704,6146.42
864.796,6231.0
865.888,6073.46
866.979,6003.42
868.07,5986.12
869.162,6030.1
870.253,6023.42
871.344,6109.7
872.434,6258.22
873.525,6378.68
874.615,6124.18
875.706,5922.52
876.796,5813.54
877.886,5783.16
878.976,5750.54
880.066,5682.98
881.156,5695.96
882.245,5684.28
883.335,5629.18
884.424,5595.88
885.513,5615.66
886.602,5570.94
887.691,5509.34
888.78,5460.22
889.868,5404.04
890.957,5422.54
892.045,5387.04
893.133,5352.88
894.221,5285.46
895.309,5227.16
896.397,5243.58
897.484,5420.86
898.571,6043.64
899.659,5608.2
900.746,5120.66
901.833,5066.18
902.92,5066.86
904.006,5064.34
905.093,5008.04
906.179,5097.84
907.266,5423.0
908.352,5481.02
909.438,5202.04
910.523,4944.84
911.609,4836.98
912.695,4794.22
913.78,4746.82
914.865,4737.5
915.95,4726.46
917.035,4680.76
918.12,4676.36
919.204,4658.48
920.289,4612.34
921.373,4600.88
922.457,4583.32
923.541,4568.16
924.625,4551.44
925.709,4498.46
926.792,4507.82
927.876,4465.82
928.959,4443.96
930.042,4418.46
931.125,4398.04
932.208,4346.82
933.29,4335.92
934.373,4331.6
935.455,4308.6
936.537,4271.88
937.619,4265.78
938.701,4260.58
939.782,4253.14
940.864,4237.66
941.945,4196.7
943.026,4188.36
944.107,4184.14
945.188,4149.14
946.269,4167.0
947.349,4128.28
948.43,4134.14
949.51,4113.84
950.59,4105.1
951.67,4089.36
952.75,4077.44
953.829,4067.42
954.909,4060.96
955.988,4044.46
957.067,4035.98
958.146,4029.54
959.224,4011.04
960.303,4011.42
961.381,3997.1
962.459,3995.22
963.537,3979.58
964.615,3974.64
965.693,3970.5
966.771,3953.12
967.848,3957.76
968.925,3953.6
970.002,3936.96
971.079,3940.2
972.156,3928.14
973.232,3919.26
974.309,3909.46
975.385,3899.54
976.461,3901.44
977.537,3899.46
978.612,3883.82
979.688,3887.38
980.763,3878.42
981.838,3867.56
982.913,3871.02
983.988,3861.6
985.063,3861.48
986.137,3855.6
987.211,3854.46
988.285,3844.52
989.359,3839.04
990.433,3837.76
991.506,3828.24
992.58,3829.96
993.653,3825.22
994.726,3821.02
995.799,3815.08
996.872,3811.78
997.944,3809.36
999.016,3807.7
1000.09,3802.56
1001.16,3802.74
1002.23,3795.12
1003.3,3791.6
1004.38,3790.44
1005.45,3787.94
1006.52,3785.26
1007.59,3783.86
1008.66,3779.44
1009.73,3776.2
1010.8,3775.74
1011.87,3770.66
1012.94,3770.66
1014.01,3768.02
1015.08,3767.98
1016.15,3766.64
1017.22,3765.06
1018.29,3762.94
1019.36,3761.9
1020.42,3762.52
1021.49,3767.34
1022.56,3767.24
1023.63,3767.94
1024.7,3763.06
1025.76,3756.6
1026.83,3753.1
1027.9,3751.12
1028.97,3747.34
1030.03,3744.44
1031.1,3741.64
1032.17,3743.42
1033.23,3741.64
1034.3,3745.92
1035.36,3749.32
1036.43,3745.9
1037.5,3741.4
1038.56,3737.44
1039.63,3736.38
1040.69,3733.8
1041.76,3732.86
1042.82,3731.62
1043.89,3731.88
1044.95,3728.92
1046.01,3728.52
1047.08,3728.86
1048.14,3727.6
1049.2,3727.72
1050.27,3727.9
1051.33,3727.46
1052.39,3726.9
1053.46,3726.8
1054.52,3726.64
1055.58,3727.56
1056.64,3726.46
1057.7,3725.82
1058.77,3724.96
1059.83,3725.12
1060.89,3725.42
1061.95,3724.52
1063.01,3723.88
1064.07,3724.46
1065.13,3723.88
1066.19,3722.84
1067.25,3724.08
1068.05,3721.38

File: VLFR_07-PET_nobio_Raman_c226ce8c.csv
cm-1,Intensity
109.24,8599.05
126.699,8037.8
144.108,7832.15
161.468,7564.65
178.779,7566.8
196.04,7538.95
213.253,7608.45
230.417,7480.9
247.532,7585.1
264.599,7588.15
281.618,7524.25
298.59,7410.55
315.513,7394.05
332.389,7313.4
349.218,7297.7
365.999,7155.05
382.734,7255.1
399.422,7109.25
416.064,7046.75
432.659,7000.05
449.208,6898.9
465.711,6843.4
482.168,6904.85
498.579,6745.9
514.946,6672.4
531.267,6669.25
547.542,6604.3
563.773,6614.95
579.96,6465.05
596.102,6554.7
612.199,6476.7
628.252,6622.4
644.261,6480.55
660.227,6358.3
676.149,6320.05
692.027,6367.2
707.862,6322.95
723.654,6253.25
739.403,6160.15
755.109,6138.05
770.773,6129.0
786.394,6232.05
801.973,6139.25
817.509,6147.5
833.004,6149.8
848.457,6269.8
863.868,6191.6
879.238,6056.85
894.567,5944.1
909.854,5857.3
925.1,5841.2
940.306,5774.6
955.471,5757.0
970.595,5722.6
985.679,5707.8
1000.72,5659.55
1015.73,5690.1
1030.69,5614.1
1045.61,5554.75
1060.5,5581.75
1075.34,5508.2
1090.15,5590.1
1104.92,5617.85
1119.64,5596.5
1134.33,5451.55
1148.98,5422.0
1163.6,5420.35
1178.17,5421.5
1192.7,5310.85
1207.2,5352.9
1221.66,5265.75
1236.08,5362.6
1250.46,5322.45
1264.81,5414.55
1279.12,5492.7
1293.39,5431.4
1307.62,5318.35
1321.82,5193.0
1335.98,5199.65
1350.11,5140.2
1364.19,5138.6
1378.24,5087.55
1392.26,5093.8
1406.24,5090.55
1420.18,5051.25
1434.08,5051.3
1447.96,5035.85
1461.79,5017.35
1475.59,4996.65
1489.35,4977.55
1503.08,4902.4
1516.78,4922.05
1530.44,4910.75
1544.06,4857.75
1557.65,4814.45
1571.2,4815.35
1584.72,4796.45
1598.21,5021.6
1611.66,5164.3
1625.08,4901.5
1638.46,4704.1
1651.81,4682.15
1665.13,4667.8
1678.41,4659.3
1691.66,4651.55
1704.88,4753.7
1718.06,4922.45
1731.21,4856.65
1744.32,4631.7
1757.41,4583.7
1770.46,4500.6
1783.48,4471.1
1796.46,4479.9
1809.42,4444.25
1822.34,4450.05
1835.23,4409.45
1848.08,4413.4
1860.91,4393.8
1873.7,4371.1
1886.46,4349.3
1899.19,4336.5
1911.89,4318.65
1924.56,4313.9
1937.19,4273.3
1949.8,4267.15
1962.37,4241.75
1974.91,4212.15
1987.42,4195.55
1999.9,4171.1
2012.36,4168.95
2024.78,4148.0
2037.16,4129.3
2049.52,4111.0
2061.85,4096.2
2074.15,4083.1
2086.42,4097.1
2098.66,4076.6
2110.87,4074.55
2123.05,4058.7
2135.2,4038.95
2147.32,4027.15
2159.41,4024.8
2171.47,4020.4
2183.51,3995.85
2195.51,3991.85
2207.49,3995.1
2219.43,3979.1
2231.35,3972.95
2243.24,3961.6
2255.1,3950.4
2266.93,3945.1
2278.73,3944.5
2290.51,3940.1
2302.26,3929.2
2313.97,3921.55
2325.67,3917.55
2337.33,3907.6
2348.96,3909.9
2360.57,3896.35
2372.15,3897.95
2383.7,3897.05
2395.23,3890.55
2406.73,3891.85
2418.2,3887.6
2429.64,3880.15
2441.06,3871.8
2452.45,3871.45
2463.81,3862.35
2475.15,3862.05
2486.46,3853.1
2497.74,3848.05
2509.0,3847.9
2520.23,3844.0
2531.43,3845.85
2542.61,3839.3
2553.76,3838.3
2564.88,3832.8
2575.98,3835.7
2587.06,3829.2
2598.1,3828.6
2609.13,3823.9
2620.12,3819.3
2631.09,3820.9
2642.04,3813.0
2652.96,3811.9
2663.85,3810.8
2674.72,3808.55
2685.57,3806.0
2696.39,3800.7
2707.18,3800.4
2717.95,3796.95
2728.69,3794.25
2739.41,3796.1
2750.11,3789.35
2760.78,3791.2
2771.43,3787.35
2782.05,3783.85
2792.65,3782.15
2803.22,3780.85
2813.77,3778.35
2824.3,3778.6
2834.8,3775.5
2845.27,3775.15
2855.73,3770.5
2866.16,3771.3
2876.56,3771.65
2886.95,3768.75
2897.3,3768.8
2907.64,3763.65
2917.95,3764.05
2928.24,3765.6
2938.51,3766.4
2948.75,3767.0
2958.97,3767.95
2969.17,3766.6
2979.34,3761.55
2989.49,3760.35
2999.62,3758.5
3009.72,3756.05
3019.81,3753.85
3029.87,3752.5
3039.9,3750.8
3049.92,3751.85
3059.91,3752.05
3069.88,3752.65
3079.83,3754.0
3089.76,3752.75
3099.66,3749.6
3109.54,3746.95
3119.4,3745.9
3129.24,3745.65
3139.06,3743.6
3148.85,3743.95
3158.62,3744.1
3168.38,3741.35
3178.11,3741.15
3187.81,3741.15
3197.5,3741.65
3207.17,3740.35
3216.81,3741.1
3226.44,3739.2
3236.04,3739.7
3245.62,3738.55
3255.18,3739.9
3264.72,3739.25
3274.24,3738.4
3283.73,3738.8
3293.21,3738.6
3302.67,3737.1
3312.1,3738.2
3321.52,3739.35
3330.91,3737.6
3340.29,3737.45
3349.64,3737.65
3358.97,3737.15
3368.29,3736.6
3375.26,3738.3