Folder: MPX_specDB/spectra (part 152)

File: VLFR_08-PLA_nobio_Raman_20944d8e.csv
nm,Intensity
526.508,831.1
527.055,830.1
527.602,831.0
528.149,830.4
528.695,829.2
529.241,829.2
529.787,830.2
530.334,830.5
530.879,829.6
531.425,830.3
531.971,833.8
532.516,830.9
533.062,830.4
533.607,832.0
534.152,1068.6
534.697,1031.6
535.242,995.0
535.786,971.4
536.331,968.5
536.876,971.1
537.42,958.6
537.964,959.5
538.508,951.8
539.052,950.8
539.596,944.8
540.14,941.2
540.683,959.7
541.227,964.9
541.77,951.5
542.313,947.7
542.856,947.7
543.399,970.5
543.942,983.8
544.485,959.7
545.027,951.9
545.57,948.7
546.112,953.7
546.654,947.9
547.196,952.2
547.738,953.2
548.28,952.3
548.822,958.6
549.363,959.6
549.905,958.3
550.446,961.8
550.988,960.8
551.529,968.6
552.07,969.0
552.611,971.9
553.152,973.3
553.692,970.8
554.233,975.1
554.773,972.2
555.314,966.6
555.854,964.1
556.394,969.5
556.934,969.2
557.474,985.0
558.014,1098.0
558.553,1002.2
559.093,978.0
559.632,979.1
560.172,978.0
560.711,973.6
561.25,974.2
561.789,973.2
562.328,972.9
562.867,988.9
563.406,1021.6
563.944,1000.3
564.483,990.9
565.021,1010.5
565.559,1011.2
566.098,1037.7
566.636,1010.9
567.174,987.3
567.711,992.4
568.249,991.3
568.787,998.0
569.324,999.8
569.862,996.5
570.399,1001.0
570.936,999.5
571.474,1013.0
572.011,1015.5
572.548,1008.7
573.084,1010.1
573.621,1018.7
574.158,1016.8
574.694,1029.0
575.231,1000.8
575.767,1007.4
576.303,1026.7
576.84,1083.2
577.376,1032.8
577.912,1013.8
578.447,1010.5
578.983,1007.1
579.519,1003.8
580.054,1006.9
580.59,1002.7
581.125,1006.1
581.661,1006.9
582.196,1006.2
582.731,1008.6
583.266,1018.2
583.801,1006.2
584.336,1012.8
584.87,1011.6
585.405,1011.7
585.94,1017.1
586.474,1026.5
587.008,1062.1
587.543,1087.0
588.077,1036.7
588.611,1011.0
589.145,1014.5
589.679,1015.0
590.213,1011.9
590.747,1013.1
591.28,1018.8
591.814,1013.6
592.347,1016.6
592.881,1011.7
593.414,1010.8
593.947,1013.0
594.48,1012.3
595.014,1013.3
595.547,1010.0
596.079,1010.2
596.612,1013.8
597.145,1016.4
597.678,1008.8
598.21,1012.7
598.743,1014.9
599.275,1013.6
599.807,1013.2
600.34,1011.5
600.872,1009.8
601.404,1013.5
601.936,1015.1
602.468,1009.9
603.0,1011.0
603.532,1008.7
604.063,1009.6
604.595,1005.7
605.126,1003.7
605.658,1000.8
606.189,996.9
606.721,996.1
607.252,1004.2
607.783,1006.0
608.314,1006.4
608.845,1004.4
609.376,999.0
609.907,1003.5
610.438,1001.8
610.968,1001.8
611.499,1002.8
612.03,1003.6
612.56,1009.6
613.091,1011.9
613.621,1005.0
614.151,1006.6
614.681,1006.7
615.212,1004.3
615.742,1006.7
616.272,1007.1
616.802,1009.5
617.332,1006.6
617.861,1003.5
618.391,1010.6
618.921,1005.3
619.45,1007.5
619.98,1003.7
620.509,1000.0
621.039,1001.6
621.568,1001.4
622.097,1005.8
622.627,1016.1
623.156,1017.4
623.685,1014.7
624.214,1009.7
624.743,1004.3
625.272,1005.1
625.801,1002.4
626.33,1007.0
626.858,1007.5
627.387,1001.9
627.916,1016.0
628.444,1087.2
628.973,1073.0
629.501,1064.6
630.029,1074.2
630.558,1134.4
631.086,1544.5
631.614,1271.2
632.142,1144.0
632.67,1114.5
633.198,1218.7
633.726,1174.8
634.254,1071.1
634.782,1016.6
635.31,1000.3
635.838,996.0
636.365,996.6
636.893,990.7
637.421,986.6
637.948,990.3
638.476,991.9
639.003,984.9
639.531,985.5
640.058,982.9
640.585,987.4
641.113,984.8
641.64,983.2
642.167,983.5
642.694,987.0
643.221,979.1
643.748,974.1
644.275,976.6
644.802,973.8
645.329,969.9
645.856,973.3
646.382,971.2
646.909,970.5
647.436,976.0
647.962,971.3
648.489,966.9
649.016,968.1
649.542,969.5
650.069,966.6
650.595,962.1
651.121,966.1
651.648,961.7
652.174,960.6
652.7,959.3
653.227,961.6
653.753,966.6
654.279,961.6
654.805,956.2
655.331,959.8
655.857,955.2
656.383,956.3
656.909,960.5
657.435,961.2
657.961,956.9
658.487,958.3
659.013,954.8
659.538,953.5
660.064,954.7
660.59,953.4
661.116,953.2
661.641,953.3
662.167,949.8
662.692,949.6
663.087,951.9

File: VLFR_08-PLA_nobio_Raman_32904ceb.csv
nm,Intensity
526.5,829.0
527.047,827.9
527.594,829.5
528.14,829.7
528.687,828.2
529.233,828.6
529.779,829.4
530.325,830.1
530.871,829.9
531.417,827.8
531.962,834.1
532.508,830.4
533.053,829.1
533.599,830.6
534.144,1007.7
534.689,984.5
535.234,963.2
535.778,955.6
536.323,948.2
536.867,954.0
537.412,951.8
537.956,944.2
538.5,943.3
539.044,943.9
539.588,940.1
540.132,941.1
540.675,950.9
541.219,957.9
541.762,954.0
542.305,950.8
542.848,953.4
543.391,965.9
543.934,971.8
544.477,961.4
545.02,956.3
545.562,960.5
546.105,958.0
546.647,960.4
547.189,963.0
547.731,957.0
548.273,964.3
548.815,965.6
549.356,969.3
549.898,969.4
550.439,972.6
550.981,976.3
551.522,979.8
552.063,976.6
552.604,982.8
553.145,980.4
553.686,980.9
554.226,985.3
554.767,977.8
555.307,978.5
555.848,984.2
556.388,981.7
556.928,981.7
557.468,993.5
558.008,1062.7
558.547,1000.0
559.087,995.5
559.626,992.8
560.166,987.6
560.705,995.2
561.244,991.4
561.783,993.1
562.322,993.8
562.861,1001.4
563.4,1022.4
563.939,1014.6
564.477,1002.9
565.015,1021.1
565.554,1020.0
566.092,1036.5
566.63,1019.9
567.168,1004.1
567.706,1004.7
568.244,1008.4
568.781,1013.2
569.319,1018.8
569.857,1016.1
570.394,1015.3
570.931,1019.6
571.468,1026.5
572.005,1030.9
572.542,1025.8
573.079,1030.1
573.616,1037.4
574.153,1028.2
574.689,1037.8
575.226,1028.9
575.762,1031.6
576.298,1039.2
576.834,1073.9
577.371,1050.0
577.907,1030.6
578.442,1030.1
578.978,1030.2
579.514,1037.3
580.049,1029.8
580.585,1030.5
581.12,1033.2
581.656,1029.9
582.191,1026.1
582.726,1037.3
583.261,1034.9
583.796,1037.0
584.331,1035.7
584.865,1036.2
585.4,1038.0
585.935,1040.6
586.469,1049.4
587.004,1067.8
587.538,1084.3
588.072,1051.4
588.606,1040.2
589.14,1038.4
589.674,1031.0
590.208,1043.5
590.742,1035.9
591.275,1039.6
591.809,1038.3
592.342,1032.4
592.876,1037.1
593.409,1039.1
593.942,1040.9
594.476,1034.2
595.009,1034.8
595.542,1039.1
596.075,1040.8
596.607,1044.8
597.14,1037.6
597.673,1038.9
598.205,1042.5
598.738,1039.8
599.27,1045.1
599.803,1036.1
600.335,1041.4
600.867,1035.3
601.399,1037.5
601.931,1037.9
602.463,1036.2
602.995,1039.9
603.527,1032.5
604.058,1038.6
604.59,1032.4
605.122,1035.7
605.653,1033.1
606.184,1030.7
606.716,1020.1
607.247,1033.3
607.778,1036.5
608.309,1030.4
608.84,1031.9
609.371,1030.2
609.902,1028.3
610.433,1031.1
610.964,1030.2
611.494,1028.4
612.025,1027.7
612.556,1032.2
613.086,1037.6
613.616,1033.2
614.147,1034.6
614.677,1032.1
615.207,1030.2
615.737,1037.0
616.267,1028.9
616.797,1027.9
617.327,1028.4
617.857,1029.7
618.387,1029.3
618.917,1032.6
619.446,1024.6
619.976,1029.6
620.505,1025.4
621.035,1022.6
621.564,1025.6
622.093,1027.1
622.623,1029.5
623.152,1035.4
623.681,1028.8
624.21,1033.7
624.739,1029.6
625.268,1031.0
625.797,1025.5
626.326,1031.2
626.855,1020.8
627.383,1026.5
627.912,1029.9
628.441,1066.3
628.969,1054.2
629.498,1055.1
630.026,1059.0
630.554,1089.4
631.083,1301.3
631.611,1155.4
632.139,1089.1
632.667,1074.3
633.195,1132.7
633.724,1106.2
634.252,1051.1
634.779,1024.1
635.307,1012.2
635.835,1012.3
636.363,1012.0
636.891,1006.4
637.418,1011.4
637.946,1007.2
638.474,1007.2
639.001,1014.2
639.529,1005.7
640.056,1004.5
640.583,999.6
641.111,1004.6
641.638,1004.7
642.165,1005.5
642.692,997.8
643.22,992.1
643.747,993.2
644.274,989.8
644.801,991.4
645.328,991.0
645.854,992.2
646.381,986.3
646.908,984.4
647.435,984.8
647.962,983.1
648.488,986.8
649.015,987.4
649.542,985.3
650.068,980.2
650.595,976.2
651.121,981.6
651.648,975.5
652.174,979.3
652.7,976.5
653.227,976.0
653.753,977.2
654.279,975.0
654.805,971.7
655.331,976.3
655.858,976.0
656.384,970.9
656.91,973.7
657.436,969.6
657.962,974.5
658.488,968.9
659.013,972.6
659.539,966.8
660.065,968.4
660.591,970.5
661.117,968.0
661.642,961.5
662.168,964.8
662.694,960.9
663.088,964.0

File: VLFR_08-PLA_nobio_Raman_505761bc.csv
nm,Intensity
526.486,830.7
527.033,829.1
527.579,831.5
528.126,830.0
528.672,829.8
529.219,829.9
529.765,828.9
530.311,830.4
530.857,830.4
531.403,829.5
531.948,832.3
532.494,830.3
533.039,828.8
533.585,832.6
534.13,1022.9
534.675,980.3
535.22,946.5
535.764,919.0
536.309,915.6
536.854,918.9
537.398,907.9
537.942,902.6
538.486,892.9
539.03,886.5
539.574,887.1
540.118,875.8
540.662,896.9
541.205,896.3
541.749,888.3
542.292,883.0
542.835,883.5
543.378,903.8
543.921,916.3
544.464,892.7
545.006,880.4
545.549,877.1
546.091,874.7
546.634,878.0
547.176,880.4
547.718,876.9
548.26,882.1
548.802,882.4
549.343,885.4
549.885,880.0
550.426,885.3
550.968,885.3
551.509,887.7
552.05,890.9
552.591,892.8
553.132,892.8
553.673,888.9
554.214,897.5
554.754,890.1
555.295,884.1
555.835,881.9
556.375,883.0
556.915,882.4
557.455,898.3
557.995,1005.8
558.535,919.5
559.075,899.3
559.614,892.6
560.154,889.3
560.693,887.5
561.232,883.9
561.772,884.9
562.311,887.9
562.85,893.8
563.388,927.7
563.927,909.8
564.466,896.4
565.004,922.2
565.543,910.4
566.081,943.2
566.619,916.4
567.157,890.3
567.695,898.2
568.233,900.9
568.771,898.5
569.309,896.0
569.846,896.5
570.384,892.8
570.921,899.5
571.458,910.8
571.995,916.7
572.532,906.3
573.069,911.7
573.606,916.6
574.143,911.3
574.68,920.6
575.216,901.9
575.753,899.8
576.289,912.4
576.825,976.3
577.361,926.9
577.897,903.6
578.433,901.8
578.969,902.8
579.505,899.5
580.041,900.2
580.576,897.5
581.112,899.4
581.647,901.5
582.183,899.2
582.718,900.4
583.253,898.9
583.788,901.1
584.323,902.0
584.858,903.0
585.392,901.5
585.927,901.8
586.462,914.9
586.996,953.5
587.53,975.5
588.065,924.0
588.599,906.9
589.133,904.3
589.667,901.8
590.201,898.6
590.735,899.0
591.268,902.6
591.802,901.3
592.335,899.8
592.869,901.8
593.402,902.3
593.936,901.0
594.469,901.0
595.002,901.6
595.535,902.9
596.068,904.9
596.601,901.4
597.133,900.9
597.666,901.9
598.199,902.1
598.731,903.4
599.264,904.9
599.796,903.4
600.328,903.9
600.86,901.3
601.393,901.8
601.925,902.5
602.457,902.8
602.988,904.2
603.52,903.2
604.052,903.7
604.583,904.8
605.115,902.6
605.646,900.1
606.178,900.9
606.709,902.5
607.24,901.2
607.771,903.7
608.302,902.5
608.833,904.3
609.364,903.1
609.895,907.0
610.426,904.9
610.957,900.7
611.487,903.3
612.018,901.6
612.548,905.8
613.078,905.0
613.609,905.5
614.139,908.9
614.669,904.9
615.199,907.9
615.729,906.5
616.259,910.9
616.789,908.4
617.319,907.8
617.849,907.3
618.378,909.2
618.908,906.0
619.437,905.9
619.967,904.9
620.496,909.6
621.025,906.0
621.555,905.2
622.084,910.8
622.613,913.6
623.142,919.1
623.671,919.2
624.2,911.2
624.729,908.8
625.258,908.6
625.786,909.7
626.315,907.2
626.844,905.4
627.372,909.9
627.901,917.6
628.429,981.9
628.957,972.5
629.486,974.4
630.014,978.1
630.542,1034.7
631.07,1436.5
631.598,1199.1
632.126,1052.5
632.654,1020.3
633.182,1116.8
633.71,1088.7
634.237,991.7
634.765,928.7
635.293,914.2
635.82,912.0
636.348,907.2
636.875,902.9
637.403,903.0
637.93,902.6
638.458,899.4
638.985,898.4
639.512,899.6
640.039,900.2
640.566,902.7
641.093,900.8
641.62,897.8
642.147,900.3
642.674,900.2
643.201,895.0
643.728,895.7
644.255,896.0
644.781,892.0
645.308,890.9
645.835,892.1
646.361,893.3
646.888,890.5
647.414,894.1
647.941,892.2
648.467,893.3
648.993,887.9
649.52,890.3
650.046,891.9
650.572,888.0
651.098,886.4
651.625,889.2
652.151,887.7
652.677,890.4
653.203,888.8
653.729,890.0
654.255,889.2
654.78,889.3
655.306,893.9
655.832,889.1
656.358,889.0
656.884,888.2
657.409,887.2
657.935,886.7
658.461,886.7
658.986,887.3
659.512,887.8
660.037,883.9
660.563,883.9
661.088,886.0
661.614,883.4
662.139,880.4
662.664,883.5
663.058,882.9

File: VLFR_08-PLA_nobio_Raman_926513f5.csv
nm,Intensity
526.486,830.9
527.033,829.8
527.579,830.6
528.126,830.2
528.672,830.5
529.219,830.6
529.765,831.1
530.311,828.8
530.857,830.0
531.403,831.0
531.948,835.4
532.494,831.9
533.039,831.0
533.585,832.7
534.13,1066.5
534.675,1029.0
535.22,993.2
535.764,977.1
536.309,973.6
536.854,1008.2
537.398,968.5
537.942,964.7
538.486,959.9
539.03,955.9
539.574,952.4
540.118,953.7
540.662,967.8
541.205,970.6
541.749,961.0
542.292,959.2
542.835,961.5
543.378,982.5
543.921,987.3
544.464,976.6
545.006,964.3
545.549,961.3
546.091,961.0
546.634,959.4
547.176,966.6
547.718,969.5
548.26,971.7
548.802,972.0
549.343,972.2
549.885,972.1
550.426,975.4
550.968,979.9
551.509,987.1
552.05,983.5
552.591,987.6
553.132,987.4
553.673,985.4
554.214,993.2
554.754,990.5
555.295,982.9
555.835,987.7
556.375,985.3
556.915,982.7
557.455,1001.3
557.995,1105.7
558.535,1022.7
559.075,1004.0
559.614,998.6
560.154,995.5
560.693,998.2
561.232,992.0
561.772,994.8
562.311,991.8
562.85,1005.6
563.388,1033.8
563.927,1023.4
564.466,1009.4
565.004,1034.9
565.543,1031.0
566.081,1059.0
566.619,1030.1
567.157,1011.3
567.695,1014.5
568.233,1018.1
568.771,1015.3
569.309,1019.5
569.846,1018.5
570.384,1016.5
570.921,1018.6
571.458,1038.5
571.995,1038.3
572.532,1035.7
573.069,1035.2
573.606,1039.6
574.143,1040.5
574.68,1052.7
575.216,1033.2
575.753,1036.6
576.289,1044.3
576.825,1104.1
577.361,1057.8
577.897,1034.0
578.433,1032.6
578.969,1030.4
579.505,1036.3
580.041,1036.5
580.576,1035.4
581.112,1037.7
581.647,1037.0
582.183,1034.0
582.718,1033.1
583.253,1039.3
583.788,1035.6
584.323,1042.1
584.858,1040.2
585.392,1042.3
585.927,1041.6
586.462,1061.8
586.996,1092.6
587.53,1117.0
588.065,1077.5
588.599,1049.8
589.133,1046.4
589.667,1043.9
590.201,1040.0
590.735,1046.4
591.268,1043.2
591.802,1040.7
592.335,1041.6
592.869,1039.2
593.402,1044.3
593.936,1043.0
594.469,1042.2
595.002,1042.0
595.535,1045.1
596.068,1042.2
596.601,1037.2
597.133,1047.9
597.666,1051.3
598.199,1047.4
598.731,1042.9
599.264,1047.2
599.796,1047.7
600.328,1050.4
600.86,1046.7
601.393,1044.9
601.925,1042.8
602.457,1035.7
602.988,1044.6
603.52,1044.1
604.052,1043.4
604.583,1040.7
605.115,1035.2
605.646,1032.5
606.178,1035.2
606.709,1037.1
607.24,1037.7
607.771,1039.1
608.302,1041.6
608.833,1034.3
609.364,1035.6
609.895,1033.7
610.426,1030.0
610.957,1032.2
611.487,1032.2
612.018,1032.3
612.548,1038.4
613.078,1039.7
613.609,1043.2
614.139,1038.9
614.669,1042.4
615.199,1038.3
615.729,1039.3
616.259,1037.0
616.789,1041.0
617.319,1036.0
617.849,1042.3
618.378,1038.7
618.908,1034.1
619.437,1039.3
619.967,1033.1
620.496,1038.7
621.025,1037.4
621.555,1031.8
622.084,1033.6
622.613,1043.7
623.142,1044.6
623.671,1048.0
624.2,1036.2
624.729,1039.9
625.258,1028.7
625.786,1028.2
626.315,1030.2
626.844,1028.5
627.372,1035.1
627.901,1043.4
628.429,1101.2
628.957,1094.6
629.486,1092.0
630.014,1093.6
630.542,1145.0
631.07,1527.1
631.598,1293.0
632.126,1162.7
632.654,1131.2
633.182,1222.0
633.71,1189.4
634.237,1102.2
634.765,1048.3
635.293,1026.5
635.82,1029.4
636.348,1023.3
636.875,1016.3
637.403,1017.2
637.93,1019.8
638.458,1012.6
638.985,1013.7
639.512,1013.7
640.039,1013.7
640.566,1011.3
641.093,1018.2
641.62,1014.7
642.147,1015.2
642.674,1012.0
643.201,1009.0
643.728,1004.3
644.255,1000.7
644.781,1003.0
645.308,998.9
645.835,997.1
646.361,998.9
646.888,997.7
647.414,1001.3
647.941,995.2
648.467,998.2
648.993,991.5
649.52,994.8
650.046,994.4
650.572,991.0
651.098,988.4
651.625,987.7
652.151,991.2
652.677,987.9
653.203,987.9
653.729,984.7
654.255,989.7
654.78,984.5
655.306,980.0
655.832,982.5
656.358,986.1
656.884,986.6
657.409,986.5
657.935,984.2
658.461,982.3
658.986,974.5
659.512,980.4
660.037,981.9
660.563,981.7
661.088,970.8
661.614,977.4
662.139,965.7
662.664,973.9
663.058,969.6

File: VLFR_08-PLA_nobio_Raman_931968ca.csv
nm,Intensity
526.486,829.7
527.033,829.7
527.579,830.2
528.126,830.5
528.672,829.1
529.219,829.9
529.765,829.7
530.311,829.1
530.857,829.2
531.403,829.4
531.948,834.1
532.494,831.5
533.039,829.8
533.585,830.6
534.13,898.6
534.675,901.6
535.22,898.2
535.764,888.2
536.309,889.7
536.854,882.0
537.398,887.8
537.942,893.8
538.486,905.4
539.03,908.7
539.574,904.1
540.118,898.8
540.662,894.5
541.205,888.5
541.749,893.4
542.292,897.4
542.835,899.4
543.378,896.6
543.921,905.1
544.464,932.3
545.006,970.6
545.549,947.6
546.091,905.9
546.634,897.3
547.176,894.1
547.718,891.4
548.26,896.8
548.802,906.5
549.343,930.2
549.885,960.2
550.426,947.5
550.968,910.5
551.509,899.1
552.05,891.4
552.591,889.9
553.132,884.2
553.673,885.0
554.214,880.5
554.754,883.5
555.295,878.0
555.835,876.6
556.375,877.1
556.915,875.8
557.455,877.4
557.995,877.6
558.535,876.4
559.075,879.2
559.614,877.3
560.154,877.7
560.693,879.2
561.232,889.3
561.772,882.3
562.311,879.5
562.85,879.4
563.388,883.9
563.927,883.4
564.466,883.2
565.004,891.7
565.543,887.0
566.081,888.8
566.619,882.3
567.157,880.7
567.695,882.9
568.233,878.2
568.771,882.4
569.309,884.1
569.846,885.6
570.384,884.0
570.921,884.5
571.458,883.5
571.995,886.5
572.532,885.8
573.069,887.9
573.606,891.9
574.143,890.9
574.68,891.5
575.216,892.3
575.753,890.1
576.289,892.2
576.825,890.1
577.361,891.5
577.897,889.0
578.433,890.4
578.969,890.9
579.505,889.1
580.041,886.7
580.576,889.9
581.112,892.4
581.647,891.0
582.183,889.8
582.718,892.8
583.253,891.3
583.788,894.3
584.323,889.6
584.858,888.4
585.392,893.1
585.927,890.7
586.462,892.6
586.996,892.9
587.53,889.7
588.065,893.3
588.599,893.0
589.133,888.6
589.667,889.3
590.201,890.8
590.735,893.6
591.268,894.9
591.802,892.5
592.335,891.7
592.869,890.7
593.402,893.8
593.936,892.5
594.469,891.7
595.002,894.2
595.535,894.5
596.068,891.7
596.601,898.2
597.133,897.8
597.666,896.0
598.199,895.5
598.731,897.1
599.264,894.3
599.796,896.7
600.328,895.8
600.86,893.4
601.393,895.6
601.925,894.3
602.457,897.8
602.988,896.2
603.52,896.5
604.052,897.5
604.583,899.7
605.115,895.6
605.646,896.5
606.178,897.1
606.709,893.3
607.24,899.2
607.771,898.7
608.302,896.9
608.833,897.8
609.364,896.4
609.895,896.3
610.426,895.8
610.957,893.1
611.487,897.4
612.018,897.3
612.548,900.4
613.078,898.1
613.609,901.3
614.139,902.6
614.669,902.4
615.199,900.7
615.729,898.7
616.259,898.6
616.789,902.8
617.319,901.7
617.849,901.4
618.378,901.5
618.908,903.5
619.437,904.3
619.967,901.7
620.496,905.5
621.025,901.8
621.555,904.9
622.084,902.9
622.613,902.6
623.142,905.1
623.671,907.6
624.2,908.6
624.729,904.2
625.258,908.6
625.786,910.7
626.315,913.5
626.844,908.1
627.372,913.8
627.901,914.2
628.429,921.5
628.957,927.8
629.486,927.2
630.014,921.9
630.542,921.9
631.07,922.6
631.598,922.0
632.126,919.6
632.654,919.8
633.182,912.5
633.71,910.1
634.237,906.4
634.765,912.3
635.293,908.2
635.82,908.9
636.348,909.4
636.875,905.1
637.403,906.4
637.93,905.0
638.458,903.9
638.985,907.8
639.512,903.3
640.039,903.7
640.566,904.6
641.093,910.9
641.62,905.8
642.147,905.1
642.674,903.1
643.201,908.1
643.728,904.7
644.255,904.8
644.781,907.4
645.308,906.5
645.835,904.7
646.361,906.4
646.888,904.4
647.414,909.0
647.941,911.5
648.467,911.2
648.993,903.7
649.52,907.5
650.046,903.7
650.572,905.9
651.098,901.3
651.625,906.0
652.151,904.7
652.677,904.2
653.203,903.1
653.729,901.1
654.255,905.5
654.78,900.5
655.306,900.2
655.832,903.8
656.358,897.3
656.884,897.9
657.409,900.0
657.935,899.9
658.461,899.8
658.986,900.8
659.512,902.6
660.037,898.5
660.563,897.7
661.088,895.4
661.614,899.1
662.139,895.7
662.664,896.6
663.058,899.6

File: VLFR_08-PLA_nobio_Raman_34860665.csv
cm-1,Intensity
-123.878,1853.15
-105.821,1855.2
-87.8007,1853.55
-69.8161,1853.95
-51.8675,1853.2
-33.9547,1857.3
-16.0776,1886.35
1.76388,3284.7
19.5698,1855.8
37.3403,1855.3
55.0755,2009.7
72.7754,2407.75
90.4402,2361.1
108.07,2340.7
125.665,2298.35
143.225,2305.45
160.75,2333.2
178.241,2304.25
195.697,2324.9
213.119,2318.8
230.506,2308.95
247.859,2313.4
265.178,2308.4
282.463,2337.15
299.713,2353.7
316.93,2369.4
334.113,2345.3
351.263,2345.05
368.379,2371.6
385.461,2419.8
402.51,2457.0
419.526,2405.65
436.508,2395.7
453.458,2386.25
470.374,2396.05
487.257,2415.3
504.107,2437.8
520.925,2431.4
537.71,2431.3
554.462,2454.05
571.182,2473.1
587.87,2472.85
604.525,2483.0
621.148,2471.0
637.739,2530.4
654.297,2511.75
670.824,2550.7
687.319,2557.75
703.782,2533.6
720.213,2525.75
736.613,2581.65
752.981,2550.85
769.317,2551.1
785.623,2551.85
801.897,2536.65
818.139,2554.75
834.351,2572.15
850.532,2590.6
866.681,2864.1
882.8,2781.1
898.888,2642.5
914.945,2630.35
930.972,2617.0
946.968,2625.45
962.934,2630.15
978.869,2603.7
994.774,2628.15
1010.65,2623.85
1026.49,2696.65
1042.31,2761.85
1058.09,2693.95
1073.85,2651.75
1089.57,2752.85
1105.27,2757.4
1120.93,2816.6
1136.57,2796.3
1152.18,2712.75
1167.75,2694.25
1183.3,2730.8
1198.82,2737.05
1214.31,2738.7
1229.77,2715.5
1245.2,2724.15
1260.6,2747.6
1275.97,2732.65
1291.32,2825.45
1306.63,2855.4
1321.92,2794.8
1337.18,2803.45
1352.41,2813.75
1367.61,2794.5
1382.78,2818.75
1397.93,2795.3
1413.05,2788.2
1428.14,2820.45
1443.2,2922.7
1458.23,2980.45
1473.23,2842.45
1488.21,2795.35
1503.16,2780.3
1518.08,2764.45
1532.97,2789.3
1547.84,2768.5
1562.68,2795.6
1577.49,2771.0
1592.27,2777.2
1607.03,2780.4
1621.76,2791.6
1636.46,2771.95
1651.14,2756.35
1665.78,2790.8
1680.41,2773.75
1695.0,2766.85
1709.57,2727.45
1724.11,2751.55
1738.62,2797.75
1753.11,2914.85
1767.57,2949.45
1782.01,2876.65
1796.41,2769.15
1810.8,2771.6
1825.15,2715.75
1839.48,2762.25
1853.79,2728.8
1868.06,2749.1
1882.31,2757.6
1896.54,2749.85
1910.74,2751.25
1924.91,2727.0
1939.06,2722.3
1953.19,2708.95
1967.28,2738.65
1981.35,2722.1
1995.4,2748.85
2009.42,2738.35
2023.42,2753.5
2037.39,2724.15
2051.33,2720.4
2065.25,2750.7
2079.15,2720.65
2093.01,2717.35
2106.86,2737.05
2120.68,2731.55
2134.47,2719.15
2148.24,2716.2
2161.99,2732.1
2175.71,2742.65
2189.41,2708.95
2203.08,2712.85
2216.73,2728.35
2230.35,2714.45
2243.95,2737.45
2257.52,2721.05
2271.07,2704.35
2284.6,2718.55
2298.1,2701.05
2311.58,2712.5
2325.03,2671.2
2338.46,2708.35
2351.87,2711.9
2365.25,2700.35
2378.61,2683.55
2391.94,2706.9
2405.26,2704.7
2418.54,2709.7
2431.81,2725.9
2445.05,2675.7
2458.27,2711.0
2471.46,2697.75
2484.63,2703.65
2497.78,2667.4
2510.9,2683.05
2524.0,2686.1
2537.08,2682.4
2550.14,2663.7
2563.17,2663.95
2576.18,2659.75
2589.17,2656.3
2602.13,2656.9
2615.07,2666.8
2627.99,2663.55
2640.89,2675.8
2653.76,2636.1
2666.61,2631.65
2679.44,2651.45
2692.25,2650.35
2705.03,2666.1
2717.79,2625.85
2730.53,2705.15
2743.25,2687.2
2755.94,2655.55
2768.61,2644.6
2781.27,2628.8
2793.89,2609.8
2806.5,2619.95
2819.09,2610.55
2831.65,2639.1
2844.19,2603.15
2856.71,2655.55
2869.21,2708.1
2881.69,2908.4
2894.14,2888.25
2906.58,2871.9
2918.99,2904.65
2931.38,3192.55
2943.75,4641.7
2956.1,3920.85
2968.42,3177.75
2980.73,2991.5
2993.01,3241.85
3005.28,3398.1
3017.52,3043.5
3029.74,2751.3
3041.94,2599.05
3054.12,2539.8
3066.28,2499.3
3078.42,2521.45
3090.54,2500.0
3102.63,2473.65
3114.71,2492.35
3126.77,2467.25
3138.8,2455.75
3150.82,2458.9
3162.81,2459.35
3174.78,2464.6
3186.74,2429.35
3198.67,2452.7
3210.58,2438.0
3222.47,2442.25
3234.35,2418.35
3246.2,2412.15
3258.03,2422.45
3269.84,2375.9
3281.64,2381.2
3293.41,2383.2
3305.16,2368.65
3316.89,2369.05
3328.61,2367.8
3340.3,2356.7
3351.97,2353.2
3363.63,2348.55
3375.26,2329.05
3386.88,2335.85
3398.47,2326.85
3410.05,2322.9
3421.6,2312.0
3433.14,2315.75
3444.66,2305.85
3456.15,2306.05
3467.63,2283.2
3479.09,2280.0
3490.53,2258.75
3501.96,2270.15
3513.36,2267.9
3524.74,2270.3
3536.11,2249.7
3547.45,2249.45
3558.78,2246.5
3570.09,2231.6
3581.37,2242.55
3592.64,2220.05
3603.9,2209.15
3615.13,2195.35
3626.34,2184.05
3637.54,2191.65
3648.72,2205.7
3659.87,2188.95
3665.45,2183.95