Folder: MPX_specDB/spectra (part 97)

File: VLFR_07-PET_bio_Raman_9e351a32.csv
nm,Intensity
791.377,17524.2
792.477,16059.5
793.576,15256.8
794.676,14933.8
795.775,14623.3
796.874,14642.9
797.973,14348.8
799.072,14698.6
800.171,14489.9
801.27,14436.0
802.368,14333.7
803.467,14047.8
804.565,14069.4
805.664,13825.5
806.762,13633.7
807.86,13531.7
808.958,13510.7
810.056,13295.6
811.153,13098.8
812.251,13087.0
813.349,13112.1
814.446,12698.0
815.543,12751.1
816.64,12541.8
817.737,12619.9
818.834,12170.0
819.931,12242.6
821.028,12013.0
822.125,12023.9
823.221,11848.2
824.317,11772.8
825.414,11838.0
826.51,11865.0
827.606,11295.1
828.702,11325.5
829.797,11122.4
830.893,11290.3
831.988,11055.7
833.084,10990.9
834.179,10799.4
835.274,10741.2
836.369,10784.9
837.464,10772.5
838.559,10634.4
839.654,10649.7
840.748,10857.4
841.843,10822.2
842.937,10446.9
844.031,10365.7
845.125,10099.1
846.219,9754.34
847.313,9916.2
848.407,9659.7
849.5,9701.16
850.593,9522.16
851.687,9510.48
852.78,9391.3
853.873,9469.54
854.966,9354.52
856.059,9115.22
857.151,9221.14
858.244,9289.46
859.336,9161.4
860.428,9343.3
861.52,9097.4
862.612,8808.2
863.704,8649.06
864.796,8772.76
865.888,8813.48
866.979,8451.16
868.07,8497.9
869.162,8466.4
870.253,8510.44
871.344,8509.96
872.434,8853.88
873.525,8831.96
874.615,8418.5
875.706,8304.24
876.796,8102.02
877.886,7998.66
878.976,7921.64
880.066,7796.64
881.156,7925.8
882.245,7865.96
883.335,7705.9
884.424,7713.56
885.513,7728.8
886.602,7584.02
887.691,7557.4
888.78,7358.36
889.868,7320.94
890.957,7301.7
892.045,7263.86
893.133,7208.2
894.221,7131.18
895.309,6996.74
896.397,7048.74
897.484,7290.96
898.571,7972.0
899.659,7393.16
900.746,6781.6
901.833,6779.32
902.92,6658.34
904.006,6613.42
905.093,6522.46
906.179,6656.66
907.266,7084.08
908.352,7166.2
909.438,6677.64
910.523,6326.52
911.609,6228.94
912.695,6154.0
913.78,6044.16
914.865,6021.02
915.95,5924.94
917.035,5899.38
918.12,5865.52
919.204,5737.34
920.289,5751.4
921.373,5697.7
922.457,5659.88
923.541,5571.94
924.625,5537.42
925.709,5486.96
926.792,5410.58
927.876,5446.52
928.959,5327.88
930.042,5273.3
931.125,5269.32
932.208,5189.76
933.29,5153.22
934.373,5148.78
935.455,5108.88
936.537,5040.9
937.619,4978.54
938.701,4961.54
939.782,4935.88
940.864,4921.84
941.945,4856.0
943.026,4834.24
944.107,4785.56
945.188,4785.36
946.269,4713.88
947.349,4725.4
948.43,4676.76
949.51,4645.9
950.59,4621.7
951.67,4588.68
952.75,4584.42
953.829,4529.36
954.909,4524.52
955.988,4503.38
957.067,4447.62
958.146,4460.44
959.224,4435.36
960.303,4414.62
961.381,4370.98
962.459,4380.18
963.537,4351.8
964.615,4323.58
965.693,4314.06
966.771,4289.58
967.848,4290.82
968.925,4254.1
970.002,4244.42
971.079,4223.92
972.156,4228.34
973.232,4198.08
974.309,4187.62
975.385,4174.06
976.461,4162.34
977.537,4157.66
978.612,4139.04
979.688,4122.44
980.763,4112.06
981.838,4103.06
982.913,4102.36
983.988,4073.14
985.063,4071.86
986.137,4062.92
987.211,4057.62
988.285,4050.48
989.359,4030.0
990.433,4023.7
991.506,4013.18
992.58,4003.58
993.653,3996.6
994.726,3984.1
995.799,3977.26
996.872,3967.02
997.944,3966.0
999.016,3960.68
1000.09,3946.42
1001.16,3948.06
1002.23,3943.32
1003.3,3924.66
1004.38,3918.14
1005.45,3924.06
1006.52,3913.44
1007.59,3904.28
1008.66,3901.82
1009.73,3895.5
1010.8,3889.48
1011.87,3884.4
1012.94,3881.94
1014.01,3881.92
1015.08,3875.98
1016.15,3874.2
1017.22,3867.86
1018.29,3863.54
1019.36,3861.44
1020.42,3862.9
1021.49,3863.44
1022.56,3869.24
1023.63,3862.36
1024.7,3855.3
1025.76,3845.16
1026.83,3840.76
1027.9,3838.74
1028.97,3829.76
1030.03,3826.7
1031.1,3820.7
1032.17,3822.98
1033.23,3822.42
1034.3,3826.74
1035.36,3827.72
1036.43,3825.62
1037.5,3815.64
1038.56,3809.74
1039.63,3806.94
1040.69,3805.52
1041.76,3802.52
1042.82,3801.98
1043.89,3800.1
1044.95,3799.84
1046.01,3797.92
1047.08,3796.58
1048.14,3795.72
1049.2,3794.82
1050.27,3793.88
1051.33,3793.86
1052.39,3792.44
1053.46,3791.84
1054.52,3790.7
1055.58,3791.78
1056.64,3790.6
1057.7,3789.74
1058.77,3788.74
1059.83,3788.8
1060.89,3789.2
1061.95,3789.14
1063.01,3787.64
1064.07,3788.72
1065.13,3787.16
1066.19,3786.76
1067.25,3785.9
1068.05,3784.94

File: VLFR_07-PET_bio_Raman_20da9aee.csv
nm,Intensity
791.75,8358.7
792.846,8087.9
793.942,7938.0
795.037,7816.15
796.133,7765.25
797.228,7780.65
798.324,7676.65
799.419,7629.3
800.514,7699.7
801.61,7626.75
802.705,7602.85
803.8,7537.95
804.894,7520.5
805.989,7434.0
807.084,7354.95
808.178,7372.75
809.273,7243.25
810.367,7237.5
811.461,7234.9
812.556,7150.5
813.65,7051.7
814.744,7028.65
815.837,6937.85
816.931,6841.35
818.025,6833.65
819.118,6764.55
820.212,6794.55
821.305,6703.3
822.398,6586.85
823.491,6630.85
824.585,6575.55
825.677,6640.65
826.77,6524.9
827.863,6469.3
828.956,6333.6
830.048,6356.1
831.14,6400.6
832.233,6327.35
833.325,6218.1
834.417,6277.2
835.509,6141.5
836.601,6193.95
837.692,6190.95
838.784,6194.8
839.876,6139.1
840.967,6203.25
842.058,6216.2
843.149,6052.3
844.24,6024.65
845.331,5968.7
846.422,5834.15
847.513,5871.6
848.604,5849.2
849.694,5818.75
850.784,5777.7
851.875,5815.65
852.965,5765.8
854.055,5742.7
855.145,5716.15
856.235,5704.7
857.324,5687.8
858.414,5708.85
859.503,5712.5
860.593,5703.6
861.682,5610.9
862.771,5593.7
863.86,5567.4
864.949,5563.2
866.038,5511.4
867.126,5468.75
868.215,5486.15
869.303,5510.9
870.391,5470.4
871.479,5504.7
872.567,5623.15
873.655,5568.95
874.743,5444.9
875.831,5411.0
876.918,5391.75
878.006,5354.4
879.093,5327.55
880.18,5283.2
881.267,5292.4
882.354,5286.7
883.441,5215.6
884.527,5227.0
885.614,5221.5
886.7,5221.65
887.786,5190.4
888.872,5134.5
889.958,5158.0
891.044,5059.4
892.13,5091.05
893.216,5063.05
894.301,5030.5
895.386,5012.2
896.472,4996.7
897.557,5094.85
898.642,5245.15
899.726,5078.55
900.811,4890.55
901.896,4842.55
902.98,4832.4
904.064,4824.95
905.148,4806.9
906.232,4905.7
907.316,4985.25
908.4,4981.45
909.484,4785.15
910.567,4713.55
911.65,4697.05
912.734,4604.7
913.817,4621.65
914.9,4598.35
915.982,4570.3
917.065,4546.1
918.147,4536.45
919.23,4535.0
920.312,4487.95
921.394,4469.7
922.476,4459.1
923.558,4434.35
924.639,4420.7
925.721,4389.15
926.802,4370.25
927.884,4343.45
928.965,4331.6
930.046,4295.65
931.126,4304.35
932.207,4276.8
933.288,4266.2
934.368,4246.45
935.448,4215.3
936.528,4206.3
937.608,4195.25
938.688,4183.55
939.767,4162.75
940.847,4155.6
941.926,4147.8
943.005,4124.05
944.084,4116.6
945.163,4102.65
946.242,4095.7
947.321,4084.95
948.399,4074.3
949.477,4066.55
950.556,4048.3
951.634,4040.75
952.711,4039.55
953.789,4022.25
954.867,4012.6
955.944,4007.85
957.021,4001.5
958.098,3985.55
959.175,3978.1
960.252,3968.85
961.328,3970.05
962.405,3961.7
963.481,3949.65
964.557,3947.55
965.633,3933.15
966.709,3929.9
967.785,3920.35
968.86,3920.45
969.936,3910.4
971.011,3905.9
972.086,3907.95
973.161,3896.9
974.235,3894.35
975.31,3891.9
976.384,3877.7
977.459,3878.35
978.533,3871.55
979.607,3868.7
980.68,3868.55
981.754,3859.65
982.827,3860.5
983.901,3850.3
984.974,3850.95
986.047,3847.2
987.119,3846.5
988.192,3839.3
989.264,3841.75
990.337,3829.95
991.409,3832.85
992.481,3826.5
993.553,3823.7
994.624,3817.45
995.696,3811.25
996.767,3815.55
997.838,3813.4
998.909,3807.85
999.98,3807.55
1001.05,3803.75
1002.12,3803.75
1003.19,3799.25
1004.26,3796.6
1005.33,3793.55
1006.4,3792.75
1007.47,3789.9
1008.54,3787.4
1009.61,3784.5
1010.68,3782.5
1011.75,3783.2
1012.82,3780.3
1013.88,3780.25
1014.95,3778.35
1016.02,3776.65
1017.09,3773.05
1018.16,3771.45
1019.22,3773.35
1020.29,3772.75
1021.36,3774.55
1022.43,3773.2
1023.49,3771.7
1024.56,3770.2
1025.63,3766.75
1026.69,3762.5
1027.76,3761.65
1028.83,3759.75
1029.89,3757.05
1030.96,3757.5
1032.02,3757.65
1033.09,3756.95
1034.15,3760.05
1035.22,3757.45
1036.28,3755.5
1037.35,3753.7
1038.41,3753.5
1039.48,3751.8
1040.54,3749.7
1041.6,3749.35
1042.67,3748.75
1043.73,3748.9
1044.79,3745.65
1045.86,3746.2
1046.92,3746.3
1047.98,3746.1
1049.05,3745.95
1050.11,3745.15
1051.17,3744.8
1052.23,3744.6
1053.29,3746.75
1054.36,3745.9
1055.42,3744.05
1056.48,3743.65
1057.54,3743.7
1058.6,3743.35
1059.66,3744.4
1060.72,3743.65
1061.78,3742.9
1062.84,3742.35
1063.9,3742.35
1064.96,3742.55
1066.02,3742.25
1067.08,3741.95
1067.88,3741.45

File: VLFR_07-PET_bio_Raman_25d41577.csv
nm,Intensity
791.377,15091.6
792.477,13578.3
793.576,12865.6
794.676,12335.8
795.775,12206.9
796.874,12109.4
797.973,11972.1
799.072,12088.5
800.171,11796.8
801.27,11941.3
802.368,11728.8
803.467,11504.1
804.565,11201.6
805.664,11151.3
806.762,11035.8
807.86,10893.8
808.958,10829.4
810.056,10706.1
811.153,10524.0
812.251,10510.0
813.349,10497.1
814.446,10239.9
815.543,10334.0
816.64,10117.2
817.737,10006.7
818.834,9778.78
819.931,9764.0
821.028,9518.86
822.125,9588.24
823.221,9560.9
824.317,9375.5
825.414,9519.26
826.51,9287.16
827.606,9151.52
828.702,8982.16
829.797,9017.72
830.893,9043.0
831.988,8837.06
833.084,8727.58
834.179,8650.18
835.274,8386.74
836.369,8611.72
837.464,8581.42
838.559,8506.52
839.654,8535.1
840.748,8538.32
841.843,8739.3
842.937,8451.72
844.031,8213.22
845.125,8023.16
846.219,7919.96
847.313,7840.32
848.407,7768.02
849.5,7742.02
850.593,7687.3
851.687,7648.5
852.78,7609.12
853.873,7581.12
854.966,7528.36
856.059,7422.08
857.151,7455.3
858.244,7573.32
859.336,7658.24
860.428,7630.82
861.52,7387.4
862.612,7291.74
863.704,7215.14
864.796,7236.94
865.888,7121.48
866.979,7035.02
868.07,7018.24
869.162,7009.36
870.253,7131.06
871.344,7164.08
872.434,7497.66
873.525,7475.2
874.615,7151.6
875.706,6970.06
876.796,6809.56
877.886,6702.1
878.976,6694.58
880.066,6704.0
881.156,6607.58
882.245,6557.0
883.335,6586.46
884.424,6493.3
885.513,6532.08
886.602,6401.64
887.691,6408.66
888.78,6300.0
889.868,6272.72
890.957,6260.2
892.045,6266.66
893.133,6173.6
894.221,6056.16
895.309,6093.68
896.397,6026.74
897.484,6288.92
898.571,7007.18
899.659,6457.96
900.746,5892.46
901.833,5774.44
902.92,5766.12
904.006,5692.82
905.093,5728.16
906.179,5790.48
907.266,6213.5
908.352,6321.02
909.438,5865.52
910.523,5566.84
911.609,5452.52
912.695,5420.42
913.78,5324.44
914.865,5278.26
915.95,5325.02
917.035,5221.62
918.12,5191.96
919.204,5167.98
920.289,5104.68
921.373,5068.5
922.457,5065.18
923.541,5029.26
924.625,4980.96
925.709,4970.52
926.792,4893.1
927.876,4859.94
928.959,4817.84
930.042,4823.68
931.125,4768.64
932.208,4782.96
933.29,4717.2
934.373,4693.04
935.455,4705.18
936.537,4632.9
937.619,4616.16
938.701,4610.96
939.782,4566.08
940.864,4541.08
941.945,4542.54
943.026,4500.54
944.107,4491.2
945.188,4452.06
946.269,4431.74
947.349,4431.2
948.43,4415.76
949.51,4385.36
950.59,4355.4
951.67,4351.5
952.75,4324.64
953.829,4312.96
954.909,4286.84
955.988,4268.28
957.067,4272.32
958.146,4241.08
959.224,4239.44
960.303,4226.88
961.381,4198.46
962.459,4196.9
963.537,4168.44
964.615,4165.82
965.693,4151.16
966.771,4135.54
967.848,4129.56
968.925,4117.94
970.002,4095.36
971.079,4108.12
972.156,4083.02
973.232,4068.56
974.309,4059.46
975.385,4054.88
976.461,4042.44
977.537,4034.7
978.612,4029.7
979.688,4018.18
980.763,4009.96
981.838,4006.18
982.913,3988.52
983.988,3990.48
985.063,3979.14
986.137,3979.2
987.211,3967.5
988.285,3962.52
989.359,3956.5
990.433,3950.5
991.506,3931.88
992.58,3926.44
993.653,3926.2
994.726,3922.7
995.799,3916.96
996.872,3908.8
997.944,3906.24
999.016,3899.66
1000.09,3895.82
1001.16,3888.22
1002.23,3888.46
1003.3,3881.72
1004.38,3876.86
1005.45,3876.02
1006.52,3869.4
1007.59,3866.76
1008.66,3862.28
1009.73,3860.0
1010.8,3854.16
1011.87,3850.78
1012.94,3851.92
1014.01,3848.2
1015.08,3845.04
1016.15,3844.56
1017.22,3841.7
1018.29,3837.24
1019.36,3837.56
1020.42,3836.12
1021.49,3839.28
1022.56,3840.58
1023.63,3839.98
1024.7,3833.8
1025.76,3829.52
1026.83,3822.96
1027.9,3821.0
1028.97,3814.6
1030.03,3811.5
1031.1,3809.64
1032.17,3807.2
1033.23,3809.98
1034.3,3813.56
1035.36,3813.5
1036.43,3813.0
1037.5,3805.88
1038.56,3800.62
1039.63,3797.78
1040.69,3797.5
1041.76,3794.1
1042.82,3793.9
1043.89,3793.0
1044.95,3792.08
1046.01,3790.42
1047.08,3791.4
1048.14,3788.84
1049.2,3788.9
1050.27,3787.32
1051.33,3787.04
1052.39,3788.3
1053.46,3785.84
1054.52,3786.26
1055.58,3787.28
1056.64,3786.34
1057.7,3785.76
1058.77,3785.18
1059.83,3785.04
1060.89,3785.04
1061.95,3785.4
1063.01,3783.22
1064.07,3784.48
1065.13,3783.22
1066.19,3783.64
1067.25,3782.26
1068.05,3782.5

File: VLFR_07-PET_bio_Raman_49b593b6.csv
nm,Intensity
791.75,12488.7
792.846,11643.2
793.942,11125.4
795.037,10950.3
796.133,10819.5
797.228,10665.3
798.324,10817.3
799.419,10796.8
800.514,10697.0
801.61,10663.8
802.705,10559.7
803.8,10323.8
804.894,10234.3
805.989,10124.7
807.084,10009.5
808.178,10004.0
809.273,9944.35
810.367,9769.8
811.461,9697.4
812.556,9517.0
813.65,9422.45
814.744,9344.4
815.837,9291.45
816.931,9280.4
818.025,9101.7
819.118,9036.35
820.212,8948.65
821.305,8902.5
822.398,8834.3
823.491,8687.55
824.585,8682.05
825.677,8956.7
826.77,8419.8
827.863,8423.3
828.956,8318.15
830.048,8332.1
831.14,8234.55
832.233,8170.5
833.325,8038.35
834.417,7943.05
835.509,7932.1
836.601,8004.0
837.692,8015.95
838.784,7941.6
839.876,7843.35
840.967,8222.6
842.058,7851.05
843.149,7774.5
844.24,7497.2
845.331,7489.9
846.422,7282.5
847.513,7221.7
848.604,7306.95
849.694,7165.1
850.784,7117.25
851.875,7130.45
852.965,7168.4
854.055,7012.45
855.145,7031.2
856.235,6965.45
857.324,6928.25
858.414,7049.3
859.503,7029.95
860.593,6902.75
861.682,6745.5
862.771,6712.75
863.86,6682.75
864.949,6751.3
866.038,6568.0
867.126,6495.75
868.215,6541.4
869.303,6539.0
870.391,6579.4
871.479,6789.1
872.567,7004.45
873.655,6750.4
874.743,6511.45
875.831,6440.1
876.918,6277.65
878.006,6275.05
879.093,6185.0
880.18,6190.55
881.267,6133.85
882.354,6167.0
883.441,6073.55
884.527,6104.9
885.614,6078.95
886.7,5946.1
887.786,5904.75
888.872,5817.3
889.958,5805.45
891.044,5890.55
892.13,5810.35
893.216,5717.6
894.301,5685.1
895.386,5626.95
896.472,5702.1
897.557,6316.55
898.642,6279.95
899.726,5679.95
900.811,5481.2
901.896,5390.85
902.98,5436.2
904.064,5352.4
905.148,5364.75
906.232,5651.0
907.316,5864.1
908.4,5690.7
909.484,5349.35
910.567,5215.45
911.65,5111.5
912.734,5082.15
913.817,5041.75
914.9,4994.2
915.982,4978.8
917.065,4919.95
918.147,4908.1
919.23,4895.35
920.312,4876.0
921.394,4799.35
922.476,4783.95
923.558,4770.05
924.639,4739.6
925.721,4693.65
926.802,4696.15
927.884,4618.6
928.965,4622.9
930.046,4571.05
931.126,4555.75
932.207,4509.95
933.288,4498.0
934.368,4501.6
935.448,4454.05
936.528,4405.1
937.608,4427.15
938.688,4374.15
939.767,4367.65
940.847,4346.95
941.926,4330.25
943.005,4310.55
944.084,4300.0
945.163,4256.2
946.242,4251.65
947.321,4234.4
948.399,4204.95
949.477,4208.45
950.556,4177.1
951.634,4176.75
952.711,4172.5
953.789,4134.7
954.867,4139.75
955.944,4122.8
957.021,4087.2
958.098,4092.95
959.175,4077.8
960.252,4064.35
961.328,4042.55
962.405,4041.4
963.481,4035.05
964.557,4016.15
965.633,4008.15
966.709,4002.75
967.785,3984.2
968.86,3985.1
969.936,3970.5
971.011,3954.8
972.086,3958.75
973.161,3950.5
974.235,3937.4
975.31,3928.25
976.384,3913.4
977.459,3916.1
978.533,3913.9
979.607,3897.95
980.68,3894.95
981.754,3893.3
982.827,3878.75
983.901,3878.45
984.974,3876.05
986.047,3867.95
987.119,3856.95
988.192,3857.75
989.264,3848.9
990.337,3845.95
991.409,3837.75
992.481,3830.3
993.553,3830.8
994.624,3824.4
995.696,3820.4
996.767,3810.9
997.838,3807.3
998.909,3809.45
999.98,3802.3
1001.05,3797.7
1002.12,3792.75
1003.19,3790.7
1004.26,3786.05
1005.33,3784.4
1006.4,3778.95
1007.47,3778.45
1008.54,3773.4
1009.61,3770.2
1010.68,3770.45
1011.75,3763.45
1012.82,3765.35
1013.88,3763.5
1014.95,3762.6
1016.02,3756.4
1017.09,3755.6
1018.16,3751.9
1019.22,3752.6
1020.29,3753.8
1021.36,3756.85
1022.43,3759.1
1023.49,3754.55
1024.56,3748.45
1025.63,3745.3
1026.69,3738.35
1027.76,3737.95
1028.83,3734.2
1029.89,3730.55
1030.96,3731.35
1032.02,3730.15
1033.09,3730.55
1034.15,3734.4
1035.22,3734.3
1036.28,3730.6
1037.35,3723.45
1038.41,3720.75
1039.48,3720.15
1040.54,3718.2
1041.6,3717.85
1042.67,3715.5
1043.73,3715.25
1044.79,3713.65
1045.86,3712.55
1046.92,3712.85
1047.98,3712.3
1049.05,3712.4
1050.11,3712.15
1051.17,3711.8
1052.23,3711.9
1053.29,3710.5
1054.36,3710.3
1055.42,3710.5
1056.48,3709.4
1057.54,3707.1
1058.6,3708.8
1059.66,3709.55
1060.72,3710.0
1061.78,3707.75
1062.84,3707.75
1063.9,3708.15
1064.96,3706.6
1066.02,3705.55
1067.08,3706.8
1067.88,3706.5

File: VLFR_07-PET_bio_Raman_63b2abb0.csv
nm,Intensity
791.377,13468.4
792.477,12108.4
793.576,11379.7
794.676,11025.1
795.775,10777.4
796.874,10573.4
797.973,10713.1
799.072,10621.0
800.171,10580.3
801.27,10615.2
802.368,10529.9
803.467,10382.3
804.565,10208.4
805.664,10096.7
806.762,9912.68
807.86,9973.26
808.958,9803.84
810.056,9703.92
811.153,9624.94
812.251,9561.52
813.349,9416.64
814.446,9355.96
815.543,9328.84
816.64,9232.68
817.737,9075.88
818.834,9018.78
819.931,8916.68
821.028,8802.1
822.125,8799.98
823.221,8680.3
824.317,8642.4
825.414,8707.6
826.51,8714.48
827.606,8349.18
828.702,8383.32
829.797,8372.52
830.893,8389.28
831.988,8043.36
833.084,8128.8
834.179,7983.3
835.274,7928.68
836.369,7856.06
837.464,8039.4
838.559,8011.66
839.654,7903.48
840.748,8018.22
841.843,8168.9
842.937,7807.82
844.031,7719.22
845.125,7546.6
846.219,7429.14
847.313,7343.82
848.407,7233.84
849.5,7170.5
850.593,7226.72
851.687,7196.94
852.78,7085.16
853.873,7102.12
854.966,7075.7
856.059,6967.68
857.151,6910.86
858.244,7042.6
859.336,7100.86
860.428,7120.44
861.52,6915.82
862.612,6742.32
863.704,6749.52
864.796,6713.46
865.888,6682.64
866.979,6585.88
868.07,6510.94
869.162,6536.44
870.253,6586.84
871.344,6694.68
872.434,6815.6
873.525,6971.82
874.615,6708.6
875.706,6486.5
876.796,6388.5
877.886,6309.74
878.976,6222.86
880.066,6219.58
881.156,6220.76
882.245,6196.8
883.335,6157.56
884.424,6157.66
885.513,6087.92
886.602,6068.22
887.691,5996.06
888.78,5940.7
889.868,5893.54
890.957,5910.22
892.045,5862.74
893.133,5800.78
894.221,5739.66
895.309,5730.36
896.397,5697.34
897.484,5890.1
898.571,6546.36
899.659,6173.28
900.746,5658.48
901.833,5478.26
902.92,5469.36
904.006,5472.32
905.093,5413.56
906.179,5564.04
907.266,5875.96
908.352,5997.82
909.438,5632.7
910.523,5341.28
911.609,5203.56
912.695,5188.64
913.78,5136.26
914.865,5059.02
915.95,5081.18
917.035,5018.24
918.12,4972.16
919.204,4973.12
920.289,4930.98
921.373,4898.2
922.457,4859.66
923.541,4825.78
924.625,4826.88
925.709,4777.5
926.792,4756.6
927.876,4724.8
928.959,4662.12
930.042,4684.5
931.125,4614.6
932.208,4617.78
933.29,4595.36
934.373,4573.46
935.455,4520.68
936.537,4522.94
937.619,4496.4
938.701,4470.36
939.782,4451.44
940.864,4421.46
941.945,4412.84
943.026,4382.8
944.107,4368.62
945.188,4347.62
946.269,4325.46
947.349,4315.66
948.43,4298.84
949.51,4281.98
950.59,4281.28
951.67,4249.6
952.75,4233.64
953.829,4216.5
954.909,4204.96
955.988,4194.68
957.067,4176.04
958.146,4166.66
959.224,4160.28
960.303,4138.28
961.381,4128.66
962.459,4120.04
963.537,4101.18
964.615,4096.86
965.693,4091.64
966.771,4076.96
967.848,4066.56
968.925,4073.2
970.002,4045.9
971.079,4032.68
972.156,4023.48
973.232,4030.88
974.309,4019.84
975.385,4004.14
976.461,3995.7
977.537,3988.36
978.612,3980.2
979.688,3977.06
980.763,3979.14
981.838,3967.38
982.913,3960.96
983.988,3946.88
985.063,3947.78
986.137,3939.28
987.211,3945.44
988.285,3930.96
989.359,3928.66
990.433,3920.16
991.506,3910.64
992.58,3902.84
993.653,3902.02
994.726,3902.22
995.799,3891.34
996.872,3891.14
997.944,3884.36
999.016,3877.26
1000.09,3878.42
1001.16,3872.46
1002.23,3873.08
1003.3,3865.2
1004.38,3862.64
1005.45,3860.42
1006.52,3854.0
1007.59,3851.28
1008.66,3850.08
1009.73,3848.94
1010.8,3841.9
1011.87,3843.06
1012.94,3840.66
1014.01,3838.78
1015.08,3835.76
1016.15,3836.98
1017.22,3830.52
1018.29,3830.4
1019.36,3828.2
1020.42,3827.68
1021.49,3831.72
1022.56,3836.76
1023.63,3833.6
1024.7,3829.06
1025.76,3823.16
1026.83,3816.86
1027.9,3816.02
1028.97,3812.3
1030.03,3807.84
1031.1,3807.38
1032.17,3805.42
1033.23,3806.72
1034.3,3809.74
1035.36,3810.58
1036.43,3808.64
1037.5,3805.58
1038.56,3799.94
1039.63,3797.58
1040.69,3794.88
1041.76,3793.9
1042.82,3792.5
1043.89,3791.94
1044.95,3791.6
1046.01,3789.52
1047.08,3790.6
1048.14,3789.74
1049.2,3789.2
1050.27,3789.16
1051.33,3789.36
1052.39,3787.38
1053.46,3787.74
1054.52,3787.12
1055.58,3786.9
1056.64,3786.6
1057.7,3786.82
1058.77,3786.04
1059.83,3786.06
1060.89,3784.58
1061.95,3784.7
1063.01,3786.48
1064.07,3785.96
1065.13,3785.34
1066.19,3784.22
1067.25,3784.04
1068.05,3783.36

File: VLFR_07-PET_bio_Raman_068b0bcb.csv
nm,Intensity
791.377,14858.7
792.477,13399.2
793.576,12633.3
794.676,12129.4
795.775,11934.5
796.874,11731.3
797.973,11690.3
799.072,11762.6
800.171,11678.9
801.27,11692.5
802.368,11661.1
803.467,11375.1
804.565,11147.4
805.664,11115.3
806.762,11033.2
807.86,10949.3
808.958,10746.3
810.056,10664.9
811.153,10817.3
812.251,10581.6
813.349,10579.2
814.446,10320.7
815.543,10362.8
816.64,10130.2
817.737,10032.5
818.834,9994.2
819.931,10007.9
821.028,9743.06
822.125,9749.32
823.221,9544.28
824.317,9506.04
825.414,9610.68
826.51,9575.04
827.606,9260.96
828.702,9120.02
829.797,9100.8
830.893,9237.2
831.988,8998.68
833.084,8933.74
834.179,8796.44
835.274,8702.94
836.369,8871.02
837.464,8828.16
838.559,8823.28
839.654,8840.08
840.748,8842.72
841.843,8980.12
842.937,8497.16
844.031,8496.28
845.125,8154.5
846.219,8055.2
847.313,8156.7
848.407,7934.96
849.5,7930.18
850.593,7841.36
851.687,7877.0
852.78,7814.5
853.873,7681.98
854.966,7705.68
856.059,7546.64
857.151,7614.1
858.244,7696.9
859.336,7850.76
860.428,7795.5
861.52,7530.0
862.612,7361.0
863.704,7430.54
864.796,7420.22
865.888,7239.3
866.979,7077.14
868.07,7219.14
869.162,7139.56
870.253,7075.22
871.344,7368.88
872.434,7558.02
873.525,7497.38
874.615,7215.82
875.706,6961.94
876.796,6993.46
877.886,6835.14
878.976,6796.52
880.066,6735.26
881.156,6727.36
882.245,6704.24
883.335,6622.26
884.424,6634.88
885.513,6570.6
886.602,6501.96
887.691,6502.44
888.78,6369.38
889.868,6366.16
890.957,6323.12
892.045,6349.7
893.133,6278.64
894.221,6189.48
895.309,6041.46
896.397,6158.66
897.484,6383.76
898.571,7081.52
899.659,6497.92
900.746,5970.42
901.833,5909.14
902.92,5781.56
904.006,5836.62
905.093,5809.98
906.179,5915.92
907.266,6336.3
908.352,6426.08
909.438,5898.24
910.523,5673.4
911.609,5531.98
912.695,5440.68
913.78,5397.54
914.865,5390.92
915.95,5316.82
917.035,5293.8
918.12,5258.88
919.204,5236.32
920.289,5195.46
921.373,5142.44
922.457,5107.98
923.541,5091.88
924.625,5003.82
925.709,5027.86
926.792,4965.18
927.876,4981.04
928.959,4899.7
930.042,4818.16
931.125,4810.08
932.208,4800.96
933.29,4757.42
934.373,4724.56
935.455,4738.2
936.537,4699.68
937.619,4627.1
938.701,4597.42
939.782,4588.24
940.864,4572.58
941.945,4577.2
943.026,4515.82
944.107,4481.76
945.188,4476.38
946.269,4466.72
947.349,4426.12
948.43,4431.84
949.51,4380.36
950.59,4390.32
951.67,4341.84
952.75,4337.88
953.829,4356.48
954.909,4294.06
955.988,4279.5
957.067,4274.32
958.146,4266.42
959.224,4236.48
960.303,4227.04
961.381,4196.88
962.459,4198.08
963.537,4176.1
964.615,4170.08
965.693,4156.34
966.771,4144.64
967.848,4133.26
968.925,4129.56
970.002,4111.04
971.079,4100.96
972.156,4103.14
973.232,4075.36
974.309,4082.54
975.385,4053.64
976.461,4053.66
977.537,4051.08
978.612,4039.66
979.688,4023.18
980.763,4018.96
981.838,4000.3
982.913,4013.06
983.988,3993.2
985.063,3986.46
986.137,3986.46
987.211,3974.8
988.285,3971.9
989.359,3961.42
990.433,3955.82
991.506,3944.32
992.58,3941.34
993.653,3936.24
994.726,3928.4
995.799,3922.26
996.872,3919.04
997.944,3908.58
999.016,3912.7
1000.09,3907.98
1001.16,3892.4
1002.23,3894.1
1003.3,3888.12
1004.38,3884.42
1005.45,3883.62
1006.52,3874.4
1007.59,3868.1
1008.66,3865.28
1009.73,3864.38
1010.8,3859.0
1011.87,3853.6
1012.94,3853.66
1014.01,3851.74
1015.08,3850.36
1016.15,3847.52
1017.22,3842.8
1018.29,3840.36
1019.36,3841.68
1020.42,3836.9
1021.49,3841.78
1022.56,3846.58
1023.63,3846.22
1024.7,3840.94
1025.76,3830.44
1026.83,3824.58
1027.9,3819.7
1028.97,3817.04
1030.03,3813.0
1031.1,3809.86
1032.17,3809.48
1033.23,3809.14
1034.3,3815.6
1035.36,3816.16
1036.43,3813.08
1037.5,3807.04
1038.56,3802.38
1039.63,3799.26
1040.69,3796.62
1041.76,3796.58
1042.82,3794.58
1043.89,3793.94
1044.95,3793.06
1046.01,3790.94
1047.08,3791.3
1048.14,3789.62
1049.2,3789.22
1050.27,3788.28
1051.33,3789.08
1052.39,3787.56
1053.46,3786.82
1054.52,3787.16
1055.58,3786.18
1056.64,3784.88
1057.7,3786.0
1058.77,3785.08
1059.83,3784.64
1060.89,3785.22
1061.95,3784.52
1063.01,3782.86
1064.07,3784.12
1065.13,3782.7
1066.19,3784.76
1067.25,3782.98
1068.05,3782.3