Folder: MPX_specDB/spectra (part 94)

File: VLFR_07-PET_bio_Raman_04a5bad1.csv
nm,Intensity
791.588,7974.8
792.685,7623.5
793.781,7458.2
794.878,7400.7
795.975,7250.8
797.071,7245.6
798.168,7299.4
799.264,7254.1
800.36,7205.9
801.456,7181.7
802.552,7145.5
803.648,7100.1
804.744,6996.3
805.84,7029.5
806.936,7007.0
808.031,7011.2
809.127,6981.0
810.222,6894.5
811.317,6927.9
812.412,6816.0
813.507,6767.0
814.602,6744.0
815.697,6695.1
816.792,6615.3
817.887,6586.2
818.981,6538.8
820.076,6508.3
821.17,6464.1
822.265,6418.5
823.359,6283.1
824.453,6353.7
825.547,6293.6
826.641,6269.1
827.735,6149.6
828.828,6153.5
829.922,6149.7
831.016,6135.2
832.109,6031.3
833.202,6025.6
834.295,5991.2
835.388,5965.6
836.481,5954.6
837.574,5967.9
838.667,5927.7
839.76,5871.9
840.852,5932.5
841.945,5949.3
843.037,5871.9
844.129,5823.8
845.221,5752.8
846.314,5740.8
847.405,5680.6
848.497,5645.1
849.589,5649.6
850.68,5625.9
851.772,5610.6
852.863,5585.1
853.955,5543.9
855.046,5537.4
856.137,5526.3
857.228,5467.3
858.318,5517.1
859.409,5510.7
860.5,5498.1
861.59,5460.6
862.681,5379.5
863.771,5372.0
864.861,5358.5
865.951,5293.3
867.041,5248.7
868.131,5263.3
869.22,5256.9
870.31,5285.7
871.399,5301.7
872.488,5320.5
873.578,5284.9
874.667,5223.8
875.756,5166.1
876.845,5142.9
877.933,5135.2
879.022,5071.6
880.11,5054.0
881.199,5046.8
882.287,5030.6
883.375,5008.1
884.463,4978.9
885.551,4991.5
886.639,4971.0
887.726,4909.6
888.814,4900.1
889.901,4872.6
890.988,4870.5
892.075,4831.1
893.162,4810.8
894.249,4788.8
895.336,4772.4
896.423,4749.3
897.509,4806.4
898.595,4897.0
899.682,4792.4
900.768,4631.8
901.854,4626.2
902.94,4607.2
904.025,4611.6
905.111,4579.0
906.196,4609.7
907.282,4705.0
908.367,4678.9
909.452,4585.3
910.537,4499.6
911.622,4476.5
912.706,4436.9
913.791,4436.6
914.875,4405.4
915.959,4393.7
917.044,4373.0
918.128,4357.9
919.211,4359.3
920.295,4341.9
921.379,4348.1
922.462,4301.8
923.546,4300.0
924.629,4271.3
925.712,4264.3
926.795,4252.2
927.877,4229.2
928.96,4195.4
930.043,4182.1
931.125,4175.0
932.207,4143.3
933.289,4132.9
934.371,4130.4
935.453,4117.7
936.535,4098.3
937.616,4102.1
938.697,4078.5
939.779,4065.5
940.86,4069.8
941.941,4054.3
943.022,4040.6
944.102,4036.0
945.183,4018.1
946.263,4010.8
947.343,4010.6
948.423,3997.2
949.503,3981.1
950.583,3979.6
951.663,3977.2
952.742,3964.0
953.822,3958.8
954.901,3953.1
955.98,3939.9
957.059,3935.4
958.137,3935.3
959.216,3922.6
960.294,3924.1
961.373,3913.8
962.451,3909.4
963.529,3908.6
964.607,3905.4
965.684,3897.0
966.762,3895.6
967.839,3887.4
968.917,3889.6
969.994,3885.3
971.071,3880.6
972.147,3872.1
973.224,3871.0
974.3,3863.2
975.377,3857.9
976.453,3856.9
977.529,3851.2
978.605,3855.2
979.68,3852.5
980.756,3845.4
981.831,3842.9
982.907,3840.7
983.982,3840.5
985.057,3832.6
986.131,3838.4
987.206,3830.6
988.28,3826.9
989.355,3821.0
990.429,3826.1
991.503,3820.2
992.576,3816.7
993.65,3816.5
994.723,3813.0
995.797,3810.5
996.87,3809.4
997.943,3806.9
999.016,3805.6
1000.09,3802.7
1001.16,3798.8
1002.23,3800.8
1003.31,3798.0
1004.38,3794.1
1005.45,3795.6
1006.52,3791.3
1007.59,3788.7
1008.66,3789.1
1009.73,3787.9
1010.81,3786.6
1011.88,3788.5
1012.95,3784.3
1014.02,3781.9
1015.09,3781.6
1016.16,3782.2
1017.23,3778.5
1018.3,3777.4
1019.37,3778.1
1020.44,3776.0
1021.51,3777.9
1022.58,3776.4
1023.64,3775.3
1024.71,3772.9
1025.78,3772.7
1026.85,3771.3
1027.92,3771.2
1028.99,3768.4
1030.05,3767.3
1031.12,3767.5
1032.19,3764.3
1033.26,3766.4
1034.32,3765.8
1035.39,3765.7
1036.46,3766.1
1037.52,3764.5
1038.59,3762.3
1039.66,3760.1
1040.72,3763.6
1041.79,3761.3
1042.86,3760.4
1043.92,3760.2
1044.99,3760.5
1046.05,3759.7
1047.12,3760.7
1048.18,3760.2
1049.25,3759.3
1050.31,3759.5
1051.37,3759.3
1052.44,3757.2
1053.5,3758.9
1054.57,3757.1
1055.63,3758.7
1056.69,3758.1
1057.76,3759.0
1058.82,3756.6
1059.88,3757.2
1060.95,3755.5
1062.01,3757.1
1063.07,3758.4
1064.13,3758.2
1065.19,3755.7
1066.26,3756.2
1067.32,3753.3
1068.11,3753.3

File: VLFR_07-PET_bio_Raman_4bf1557c.csv
nm,Intensity
791.75,9652.25
792.846,9411.3
793.942,9215.05
795.037,9056.05
796.133,9144.9
797.228,9029.9
798.324,9025.1
799.419,9017.85
800.514,8909.85
801.61,9064.8
802.705,8887.6
803.8,8897.4
804.894,8742.8
805.989,8675.85
807.084,8622.0
808.178,8564.95
809.273,8479.95
810.367,8366.8
811.461,8362.1
812.556,8246.8
813.65,8177.5
814.744,8133.05
815.837,8105.25
816.931,8137.55
818.025,7961.7
819.118,7958.15
820.212,7886.55
821.305,7836.45
822.398,7769.1
823.491,7729.25
824.585,7637.9
825.677,7684.8
826.77,7528.5
827.863,7502.8
828.956,7434.65
830.048,7403.6
831.14,7352.95
832.233,7272.8
833.325,7225.3
834.417,7060.0
835.509,7086.1
836.601,7069.45
837.692,7042.25
838.784,6969.6
839.876,6959.0
840.967,6927.25
842.058,7015.05
843.149,6843.65
844.24,6725.75
845.331,6644.75
846.422,6547.1
847.513,6622.95
848.604,6486.3
849.694,6477.5
850.784,6435.05
851.875,6464.6
852.965,6455.15
854.055,6381.5
855.145,6315.4
856.235,6334.25
857.324,6232.55
858.414,6356.25
859.503,6342.3
860.593,6286.9
861.682,6266.65
862.771,6132.65
863.86,6197.2
864.949,6157.65
866.038,6028.75
867.126,6052.35
868.215,6035.05
869.303,6039.85
870.391,6026.95
871.479,6065.35
872.567,6198.55
873.655,6112.75
874.743,5985.75
875.831,5922.8
876.918,5909.0
878.006,5880.6
879.093,5773.0
880.18,5828.4
881.267,5785.3
882.354,5704.9
883.441,5758.9
884.527,5705.1
885.614,5717.9
886.7,5655.35
887.786,5561.05
888.872,5550.6
889.958,5549.5
891.044,5489.35
892.13,5517.45
893.216,5453.65
894.301,5366.7
895.386,5394.55
896.472,5382.0
897.557,5449.0
898.642,5599.4
899.726,5410.85
900.811,5229.7
901.896,5142.05
902.98,5143.05
904.064,5095.05
905.148,5154.0
906.232,5184.7
907.316,5243.75
908.4,5238.7
909.484,5072.6
910.567,4964.4
911.65,4924.9
912.734,4870.9
913.817,4819.7
914.9,4812.35
915.982,4826.15
917.065,4772.4
918.147,4769.0
919.23,4692.05
920.312,4698.6
921.394,4640.65
922.476,4647.95
923.558,4603.25
924.639,4586.75
925.721,4565.9
926.802,4523.8
927.884,4502.1
928.965,4495.6
930.046,4451.05
931.126,4444.25
932.207,4427.85
933.288,4377.05
934.368,4352.5
935.448,4381.55
936.528,4318.65
937.608,4316.95
938.688,4301.35
939.767,4278.0
940.847,4279.1
941.926,4239.45
943.005,4242.75
944.084,4202.3
945.163,4188.3
946.242,4183.95
947.321,4173.5
948.399,4162.35
949.477,4153.0
950.556,4125.45
951.634,4122.0
952.711,4114.0
953.789,4088.2
954.867,4086.65
955.944,4077.45
957.021,4063.55
958.098,4060.7
959.175,4042.8
960.252,4043.2
961.328,4026.7
962.405,4010.65
963.481,4003.95
964.557,3988.25
965.633,3980.95
966.709,3982.9
967.785,3976.5
968.86,3976.35
969.936,3952.85
971.011,3951.05
972.086,3949.4
973.161,3934.2
974.235,3928.8
975.31,3919.2
976.384,3923.2
977.459,3916.7
978.533,3906.7
979.607,3899.65
980.68,3889.3
981.754,3891.45
982.827,3889.55
983.901,3883.5
984.974,3867.75
986.047,3875.6
987.119,3866.25
988.192,3865.65
989.264,3856.9
990.337,3853.85
991.409,3843.5
992.481,3846.55
993.553,3837.55
994.624,3835.4
995.696,3830.9
996.767,3827.3
997.838,3822.65
998.909,3822.1
999.98,3818.2
1001.05,3813.7
1002.12,3812.9
1003.19,3806.45
1004.26,3805.55
1005.33,3803.1
1006.4,3801.8
1007.47,3796.7
1008.54,3795.7
1009.61,3790.9
1010.68,3788.75
1011.75,3786.75
1012.82,3785.1
1013.88,3785.75
1014.95,3783.0
1016.02,3780.95
1017.09,3779.25
1018.16,3775.2
1019.22,3775.15
1020.29,3777.8
1021.36,3776.15
1022.43,3774.9
1023.49,3774.1
1024.56,3771.1
1025.63,3767.45
1026.69,3764.35
1027.76,3762.55
1028.83,3759.95
1029.89,3759.05
1030.96,3758.55
1032.02,3757.9
1033.09,3758.65
1034.15,3759.35
1035.22,3755.4
1036.28,3754.55
1037.35,3754.75
1038.41,3750.35
1039.48,3750.75
1040.54,3751.05
1041.6,3750.2
1042.67,3748.8
1043.73,3746.6
1044.79,3746.15
1045.86,3745.1
1046.92,3746.95
1047.98,3746.0
1049.05,3745.65
1050.11,3744.5
1051.17,3745.75
1052.23,3744.8
1053.29,3744.2
1054.36,3743.25
1055.42,3743.2
1056.48,3741.4
1057.54,3742.65
1058.6,3743.4
1059.66,3742.6
1060.72,3742.25
1061.78,3741.0
1062.84,3741.85
1063.9,3741.05
1064.96,3741.05
1066.02,3740.35
1067.08,3739.3
1067.88,3739.75

File: VLFR_07-PET_bio_Raman_4d203758.csv
nm,Intensity
791.75,7482.45
792.846,7255.1
793.942,7112.45
795.037,7070.35
796.133,7062.25
797.228,7061.5
798.324,7080.25
799.419,7011.25
800.514,6985.35
801.61,6944.9
802.705,6887.7
803.8,6826.9
804.894,6812.2
805.989,6740.85
807.084,6687.15
808.178,6566.65
809.273,6587.4
810.367,6541.3
811.461,6476.1
812.556,6433.5
813.65,6318.9
814.744,6271.9
815.837,6246.1
816.931,6227.2
818.025,6161.05
819.118,6118.65
820.212,6051.2
821.305,6019.65
822.398,5932.45
823.491,5923.1
824.585,5959.25
825.677,5968.4
826.77,5819.4
827.863,5801.0
828.956,5729.5
830.048,5733.25
831.14,5688.8
832.233,5651.8
833.325,5570.7
834.417,5573.05
835.509,5552.1
836.601,5566.2
837.692,5547.5
838.784,5474.1
839.876,5468.55
840.967,5560.1
842.058,5457.1
843.149,5415.6
844.24,5304.6
845.331,5289.2
846.422,5249.45
847.513,5210.4
848.604,5180.95
849.694,5203.25
850.784,5134.9
851.875,5143.95
852.965,5121.2
854.055,5065.8
855.145,5093.8
856.235,5068.45
857.324,5071.85
858.414,5095.5
859.503,5066.75
860.593,5071.3
861.682,4976.3
862.771,4949.3
863.86,4989.6
864.949,4918.5
866.038,4879.7
867.126,4869.8
868.215,4863.3
869.303,4889.35
870.391,4912.4
871.479,4921.55
872.567,4956.3
873.655,4912.0
874.743,4847.75
875.831,4829.25
876.918,4784.75
878.006,4802.95
879.093,4724.75
880.18,4760.6
881.267,4731.8
882.354,4717.9
883.441,4726.65
884.527,4687.75
885.614,4691.6
886.7,4649.8
887.786,4615.3
888.872,4610.75
889.958,4587.85
891.044,4578.15
892.13,4562.7
893.216,4534.35
894.301,4524.0
895.386,4502.15
896.472,4519.85
897.557,4625.9
898.642,4631.85
899.726,4467.9
900.811,4411.15
901.896,4411.8
902.98,4402.5
904.064,4400.45
905.148,4376.25
906.232,4431.8
907.316,4479.55
908.4,4425.2
909.484,4347.65
910.567,4300.75
911.65,4274.85
912.734,4250.15
913.817,4232.6
914.9,4217.05
915.982,4216.7
917.065,4187.85
918.147,4177.6
919.23,4172.7
920.312,4170.2
921.394,4137.9
922.476,4118.7
923.558,4118.05
924.639,4098.3
925.721,4100.8
926.802,4076.85
927.884,4060.05
928.965,4042.6
930.046,4021.0
931.126,4017.9
932.207,4009.1
933.288,3998.0
934.368,3984.4
935.448,3982.2
936.528,3963.4
937.608,3956.45
938.688,3956.7
939.767,3945.6
940.847,3941.6
941.926,3923.9
943.005,3929.0
944.084,3910.95
945.163,3905.3
946.242,3902.65
947.321,3894.75
948.399,3883.85
949.477,3885.85
950.556,3878.35
951.634,3872.15
952.711,3865.9
953.789,3860.1
954.867,3855.6
955.944,3854.25
957.021,3848.85
958.098,3839.9
959.175,3837.25
960.252,3832.5
961.328,3832.1
962.405,3825.45
963.481,3822.85
964.557,3814.0
965.633,3813.05
966.709,3812.65
967.785,3812.7
968.86,3808.25
969.936,3808.95
971.011,3798.15
972.086,3797.7
973.161,3795.25
974.235,3789.5
975.31,3788.75
976.384,3787.85
977.459,3782.05
978.533,3782.65
979.607,3779.45
980.68,3780.1
981.754,3775.15
982.827,3769.2
983.901,3767.55
984.974,3769.05
986.047,3767.2
987.119,3764.65
988.192,3764.0
989.264,3763.05
990.337,3755.85
991.409,3755.0
992.481,3755.45
993.553,3752.8
994.624,3749.75
995.696,3749.1
996.767,3747.6
997.838,3747.0
998.909,3743.45
999.98,3742.5
1001.05,3743.25
1002.12,3740.85
1003.19,3738.3
1004.26,3738.75
1005.33,3734.05
1006.4,3734.05
1007.47,3730.05
1008.54,3731.0
1009.61,3730.7
1010.68,3730.95
1011.75,3729.25
1012.82,3728.75
1013.88,3728.2
1014.95,3725.8
1016.02,3725.15
1017.09,3725.25
1018.16,3722.8
1019.22,3722.4
1020.29,3723.4
1021.36,3724.3
1022.43,3722.2
1023.49,3721.35
1024.56,3721.4
1025.63,3717.4
1026.69,3717.6
1027.76,3714.5
1028.83,3713.0
1029.89,3712.75
1030.96,3712.85
1032.02,3713.3
1033.09,3714.7
1034.15,3714.6
1035.22,3714.5
1036.28,3711.75
1037.35,3711.05
1038.41,3709.65
1039.48,3710.3
1040.54,3709.2
1041.6,3708.65
1042.67,3709.05
1043.73,3706.95
1044.79,3707.25
1045.86,3707.35
1046.92,3707.05
1047.98,3706.9
1049.05,3707.7
1050.11,3705.45
1051.17,3705.6
1052.23,3706.9
1053.29,3706.55
1054.36,3705.45
1055.42,3706.25
1056.48,3704.8
1057.54,3705.2
1058.6,3705.5
1059.66,3705.1
1060.72,3704.65
1061.78,3704.85
1062.84,3705.5
1063.9,3703.95
1064.96,3704.45
1066.02,3704.85
1067.08,3704.0
1067.88,3703.4

File: VLFR_07-PET_bio_Raman_4e30e4c9.csv
nm,Intensity
791.75,8059.4
792.846,7848.55
793.942,7759.55
795.037,7718.85
796.133,7677.45
797.228,7701.05
798.324,7632.85
799.419,7684.55
800.514,7619.1
801.61,7615.1
802.705,7497.1
803.8,7516.6
804.894,7460.65
805.989,7366.4
807.084,7362.7
808.178,7240.65
809.273,7305.1
810.367,7143.3
811.461,7172.65
812.556,7192.3
813.65,7112.95
814.744,7054.25
815.837,6951.4
816.931,6924.75
818.025,6865.25
819.118,6909.95
820.212,6865.15
821.305,6792.1
822.398,6732.45
823.491,6662.2
824.585,6726.6
825.677,6725.1
826.77,6636.65
827.863,6569.65
828.956,6465.75
830.048,6448.7
831.14,6405.45
832.233,6370.45
833.325,6362.85
834.417,6318.55
835.509,6273.65
836.601,6278.35
837.692,6312.0
838.784,6222.05
839.876,6170.3
840.967,6256.2
842.058,6234.4
843.149,6112.65
844.24,6062.25
845.331,6066.05
846.422,5955.7
847.513,5969.0
848.604,5934.15
849.694,5881.0
850.784,5880.95
851.875,5854.1
852.965,5886.15
854.055,5818.8
855.145,5802.6
856.235,5786.1
857.324,5806.95
858.414,5818.05
859.503,5817.8
860.593,5859.0
861.682,5718.45
862.771,5723.1
863.86,5687.4
864.949,5696.4
866.038,5593.3
867.126,5597.35
868.215,5613.75
869.303,5640.55
870.391,5590.55
871.479,5674.1
872.567,5712.3
873.655,5659.5
874.743,5619.45
875.831,5532.85
876.918,5434.9
878.006,5456.0
879.093,5432.15
880.18,5393.9
881.267,5417.55
882.354,5400.75
883.441,5359.55
884.527,5347.0
885.614,5318.8
886.7,5289.65
887.786,5206.2
888.872,5208.9
889.958,5188.65
891.044,5191.7
892.13,5172.1
893.216,5125.45
894.301,5049.6
895.386,5038.45
896.472,5032.6
897.557,5160.95
898.642,5234.1
899.726,5071.6
900.811,4923.75
901.896,4859.95
902.98,4912.15
904.064,4868.1
905.148,4851.25
906.232,4910.6
907.316,4998.1
908.4,5009.6
909.484,4822.25
910.567,4751.65
911.65,4695.95
912.734,4648.15
913.817,4660.65
914.9,4612.5
915.982,4594.8
917.065,4581.95
918.147,4561.75
919.23,4561.65
920.312,4529.15
921.394,4538.15
922.476,4492.15
923.558,4452.95
924.639,4441.7
925.721,4438.1
926.802,4395.4
927.884,4400.8
928.965,4362.55
930.046,4332.6
931.126,4326.6
932.207,4298.9
933.288,4291.55
934.368,4255.95
935.448,4261.3
936.528,4245.35
937.608,4226.0
938.688,4214.65
939.767,4209.0
940.847,4203.7
941.926,4168.75
943.005,4169.0
944.084,4146.45
945.163,4142.25
946.242,4125.9
947.321,4110.25
948.399,4104.6
949.477,4094.9
950.556,4091.2
951.634,4069.15
952.711,4057.7
953.789,4048.4
954.867,4051.05
955.944,4042.35
957.021,4031.55
958.098,4016.85
959.175,4013.6
960.252,4006.35
961.328,4001.65
962.405,3997.5
963.481,3977.95
964.557,3971.0
965.633,3977.45
966.709,3968.15
967.785,3959.0
968.86,3957.6
969.936,3944.7
971.011,3945.85
972.086,3928.15
973.161,3929.95
974.235,3917.8
975.31,3912.25
976.384,3909.7
977.459,3903.65
978.533,3905.0
979.607,3895.2
980.68,3895.6
981.754,3890.9
982.827,3884.1
983.901,3874.85
984.974,3876.9
986.047,3870.3
987.119,3870.35
988.192,3866.55
989.264,3860.15
990.337,3859.6
991.409,3849.7
992.481,3846.8
993.553,3840.2
994.624,3840.45
995.696,3836.7
996.767,3834.25
997.838,3827.75
998.909,3823.15
999.98,3826.6
1001.05,3817.05
1002.12,3817.1
1003.19,3813.8
1004.26,3809.3
1005.33,3812.3
1006.4,3806.4
1007.47,3803.65
1008.54,3795.7
1009.61,3794.8
1010.68,3793.4
1011.75,3794.75
1012.82,3792.45
1013.88,3790.3
1014.95,3789.0
1016.02,3785.75
1017.09,3785.6
1018.16,3781.8
1019.22,3778.9
1020.29,3781.6
1021.36,3783.55
1022.43,3780.45
1023.49,3778.9
1024.56,3776.7
1025.63,3775.35
1026.69,3771.35
1027.76,3768.7
1028.83,3765.95
1029.89,3764.25
1030.96,3764.7
1032.02,3764.8
1033.09,3764.45
1034.15,3764.65
1035.22,3763.35
1036.28,3764.6
1037.35,3761.1
1038.41,3756.7
1039.48,3756.55
1040.54,3755.95
1041.6,3752.9
1042.67,3753.55
1043.73,3750.15
1044.79,3751.3
1045.86,3751.45
1046.92,3751.95
1047.98,3749.35
1049.05,3749.8
1050.11,3749.75
1051.17,3749.5
1052.23,3749.65
1053.29,3748.5
1054.36,3749.1
1055.42,3748.45
1056.48,3747.95
1057.54,3748.6
1058.6,3746.75
1059.66,3746.55
1060.72,3746.8
1061.78,3747.55
1062.84,3746.3
1063.9,3746.1
1064.96,3744.8
1066.02,3745.6
1067.08,3744.55
1067.88,3744.55

File: VLFR_07-PET_bio_Raman_5aa8c27e.csv
nm,Intensity
791.75,15280.8
792.846,14215.8
793.942,13738.8
795.037,13586.1
796.133,13428.5
797.228,13265.2
798.324,13231.8
799.419,13024.3
800.514,12819.3
801.61,12963.5
802.705,12806.2
803.8,12494.0
804.894,12326.0
805.989,12210.8
807.084,12123.3
808.178,12071.6
809.273,11896.7
810.367,11851.3
811.461,11834.0
812.556,11597.0
813.65,11619.0
814.744,11502.7
815.837,11250.5
816.931,11215.0
818.025,11022.8
819.118,10868.3
820.212,11025.7
821.305,10729.9
822.398,10586.6
823.491,10404.7
824.585,10535.3
825.677,10893.1
826.77,10179.0
827.863,10049.1
828.956,10011.8
830.048,10055.5
831.14,10052.5
832.233,9623.4
833.325,9557.05
834.417,9439.3
835.509,9429.25
836.601,9654.55
837.692,9543.2
838.784,9506.35
839.876,9274.35
840.967,9797.65
842.058,9293.25
843.149,9065.35
844.24,8968.8
845.331,8736.85
846.422,8609.55
847.513,8589.6
848.604,8544.2
849.694,8401.5
850.784,8441.8
851.875,8499.6
852.965,8350.45
854.055,8274.35
855.145,8311.05
856.235,8122.15
857.324,8104.2
858.414,8214.95
859.503,8347.85
860.593,8201.9
861.682,7842.95
862.771,7798.6
863.86,7846.0
864.949,7816.8
866.038,7753.35
867.126,7585.5
868.215,7516.85
869.303,7604.8
870.391,7630.75
871.479,7901.05
872.567,8123.1
873.655,7724.45
874.743,7629.45
875.831,7311.3
876.918,7258.75
878.006,7260.0
879.093,7078.95
880.18,7100.9
881.267,6965.55
882.354,7085.4
883.441,7003.5
884.527,6865.5
885.614,6986.2
886.7,6822.6
887.786,6701.25
888.872,6602.7
889.958,6636.2
891.044,6555.95
892.13,6535.55
893.216,6353.75
894.301,6326.85
895.386,6334.45
896.472,6350.95
897.557,7039.25
898.642,7056.5
899.726,6252.8
900.811,6071.95
901.896,5963.2
902.98,5975.8
904.064,5983.55
905.148,5886.35
906.232,6253.1
907.316,6570.0
908.4,6290.3
909.484,5808.75
910.567,5679.1
911.65,5578.0
912.734,5535.25
913.817,5472.35
914.9,5363.9
915.982,5405.95
917.065,5360.45
918.147,5281.45
919.23,5252.35
920.312,5237.8
921.394,5139.9
922.476,5138.75
923.558,5088.65
924.639,5078.35
925.721,4995.5
926.802,5019.8
927.884,4891.95
928.965,4919.1
930.046,4844.65
931.126,4788.1
932.207,4789.35
933.288,4738.45
934.368,4709.3
935.448,4717.5
936.528,4629.8
937.608,4632.45
938.688,4595.85
939.767,4571.9
940.847,4548.15
941.926,4536.9
943.005,4488.7
944.084,4458.05
945.163,4448.8
946.242,4427.6
947.321,4410.25
948.399,4396.85
949.477,4378.3
950.556,4359.45
951.634,4323.35
952.711,4293.5
953.789,4284.6
954.867,4270.4
955.944,4237.1
957.021,4235.5
958.098,4212.35
959.175,4199.9
960.252,4181.15
961.328,4180.8
962.405,4155.25
963.481,4149.15
964.557,4122.55
965.633,4097.1
966.709,4119.15
967.785,4083.3
968.86,4081.05
969.936,4068.2
971.011,4062.35
972.086,4033.4
973.161,4026.8
974.235,4022.05
975.31,4010.45
976.384,3998.75
977.459,3998.35
978.533,3972.85
979.607,3969.25
980.68,3963.1
981.754,3945.55
982.827,3940.65
983.901,3936.4
984.974,3927.35
986.047,3930.95
987.119,3912.8
988.192,3904.8
989.264,3897.7
990.337,3897.6
991.409,3887.6
992.481,3879.55
993.553,3866.8
994.624,3868.5
995.696,3862.85
996.767,3852.95
997.838,3847.3
998.909,3843.6
999.98,3836.35
1001.05,3834.9
1002.12,3827.95
1003.19,3821.2
1004.26,3814.6
1005.33,3809.1
1006.4,3808.3
1007.47,3802.1
1008.54,3797.05
1009.61,3791.7
1010.68,3787.15
1011.75,3786.75
1012.82,3781.65
1013.88,3786.1
1014.95,3781.4
1016.02,3776.6
1017.09,3772.25
1018.16,3769.8
1019.22,3768.55
1020.29,3770.0
1021.36,3775.0
1022.43,3778.95
1023.49,3772.15
1024.56,3762.5
1025.63,3757.5
1026.69,3753.4
1027.76,3744.55
1028.83,3743.5
1029.89,3738.9
1030.96,3737.05
1032.02,3737.45
1033.09,3740.95
1034.15,3743.45
1035.22,3742.35
1036.28,3737.9
1037.35,3732.5
1038.41,3728.1
1039.48,3726.3
1040.54,3724.35
1041.6,3724.1
1042.67,3719.75
1043.73,3719.5
1044.79,3718.7
1045.86,3718.2
1046.92,3717.95
1047.98,3716.85
1049.05,3717.95
1050.11,3715.7
1051.17,3714.2
1052.23,3714.95
1053.29,3715.05
1054.36,3713.9
1055.42,3713.05
1056.48,3712.4
1057.54,3710.95
1058.6,3711.65
1059.66,3712.2
1060.72,3711.25
1061.78,3711.45
1062.84,3710.75
1063.9,3710.4
1064.96,3709.05
1066.02,3709.4
1067.08,3710.6
1067.88,3710.3

File: VLFR_07-PET_bio_Raman_5b23760a.csv
nm,Intensity
791.75,10355.2
792.846,9951.75
793.942,9620.65
795.037,9449.3
796.133,9311.0
797.228,9333.9
798.324,9380.85
799.419,9340.4
800.514,9300.25
801.61,9355.85
802.705,9280.0
803.8,9117.1
804.894,9119.75
805.989,9057.8
807.084,8981.7
808.178,8947.0
809.273,8889.25
810.367,8858.95
811.461,8697.55
812.556,8728.8
813.65,8668.8
814.744,8473.95
815.837,8409.6
816.931,8423.75
818.025,8205.65
819.118,8193.8
820.212,8156.9
821.305,8026.65
822.398,7928.8
823.491,7896.4
824.585,7897.65
825.677,7913.05
826.77,7676.4
827.863,7605.25
828.956,7606.1
830.048,7559.55
831.14,7565.45
832.233,7441.3
833.325,7403.35
834.417,7416.85
835.509,7296.8
836.601,7289.4
837.692,7327.5
838.784,7263.4
839.876,7214.95
840.967,7362.6
842.058,7233.95
843.149,7124.4
844.24,7085.0
845.331,6903.85
846.422,6872.05
847.513,6779.0
848.604,6758.85
849.694,6711.75
850.784,6719.95
851.875,6618.1
852.965,6636.8
854.055,6603.3
855.145,6558.2
856.235,6487.4
857.324,6527.05
858.414,6552.0
859.503,6492.35
860.593,6497.5
861.682,6406.5
862.771,6337.25
863.86,6301.95
864.949,6291.55
866.038,6271.55
867.126,6157.65
868.215,6155.0
869.303,6105.5
870.391,6183.05
871.479,6256.0
872.567,6266.85
873.655,6275.8
874.743,6163.35
875.831,6024.95
876.918,5970.75
878.006,5914.8
879.093,5919.05
880.18,5876.85
881.267,5855.15
882.354,5856.9
883.441,5907.35
884.527,5792.05
885.614,5717.4
886.7,5725.65
887.786,5671.9
888.872,5684.25
889.958,5615.85
891.044,5587.15
892.13,5599.5
893.216,5531.9
894.301,5498.3
895.386,5453.5
896.472,5460.95
897.557,5580.75
898.642,5768.4
899.726,5534.55
900.811,5300.65
901.896,5281.35
902.98,5260.15
904.064,5228.05
905.148,5240.3
906.232,5261.7
907.316,5438.75
908.4,5427.75
909.484,5203.95
910.567,5065.55
911.65,5007.85
912.734,4989.35
913.817,4944.1
914.9,4918.4
915.982,4894.6
917.065,4839.05
918.147,4820.5
919.23,4818.75
920.312,4766.3
921.394,4751.2
922.476,4699.3
923.558,4680.4
924.639,4647.9
925.721,4608.95
926.802,4599.6
927.884,4574.4
928.965,4546.9
930.046,4515.85
931.126,4514.5
932.207,4444.25
933.288,4433.6
934.368,4406.6
935.448,4403.0
936.528,4372.3
937.608,4350.55
938.688,4350.75
939.767,4316.6
940.847,4290.6
941.926,4284.15
943.005,4260.05
944.084,4249.5
945.163,4234.3
946.242,4209.65
947.321,4189.6
948.399,4194.1
949.477,4174.65
950.556,4157.15
951.634,4138.8
952.711,4124.75
953.789,4105.3
954.867,4105.7
955.944,4093.85
957.021,4075.4
958.098,4071.45
959.175,4063.9
960.252,4051.15
961.328,4033.35
962.405,4027.05
963.481,4017.95
964.557,4007.65
965.633,3999.2
966.709,3995.5
967.785,3983.4
968.86,3984.65
969.936,3970.8
971.011,3966.95
972.086,3952.45
973.161,3944.9
974.235,3939.1
975.31,3931.0
976.384,3929.05
977.459,3917.65
978.533,3916.8
979.607,3912.4
980.68,3902.3
981.754,3895.8
982.827,3894.45
983.901,3886.0
984.974,3881.55
986.047,3876.2
987.119,3876.35
988.192,3870.25
989.264,3870.7
990.337,3861.2
991.409,3851.6
992.481,3848.65
993.553,3853.1
994.624,3838.2
995.696,3838.45
996.767,3837.95
997.838,3833.4
998.909,3826.95
999.98,3826.55
1001.05,3819.1
1002.12,3817.35
1003.19,3814.85
1004.26,3814.6
1005.33,3807.5
1006.4,3803.05
1007.47,3806.0
1008.54,3799.4
1009.61,3799.4
1010.68,3795.25
1011.75,3793.55
1012.82,3793.8
1013.88,3790.45
1014.95,3789.85
1016.02,3787.4
1017.09,3789.05
1018.16,3780.25
1019.22,3782.5
1020.29,3780.45
1021.36,3785.3
1022.43,3781.75
1023.49,3782.15
1024.56,3775.65
1025.63,3775.45
1026.69,3768.95
1027.76,3767.05
1028.83,3765.65
1029.89,3763.6
1030.96,3762.35
1032.02,3761.6
1033.09,3761.9
1034.15,3765.8
1035.22,3763.8
1036.28,3760.85
1037.35,3758.0
1038.41,3756.2
1039.48,3754.05
1040.54,3754.9
1041.6,3753.9
1042.67,3751.75
1043.73,3751.8
1044.79,3751.2
1045.86,3749.45
1046.92,3751.2
1047.98,3749.3
1049.05,3748.05
1050.11,3748.4
1051.17,3747.15
1052.23,3747.7
1053.29,3748.2
1054.36,3747.25
1055.42,3746.6
1056.48,3745.3
1057.54,3746.05
1058.6,3745.45
1059.66,3744.45
1060.72,3745.45
1061.78,3745.3
1062.84,3744.6
1063.9,3745.0
1064.96,3745.2
1066.02,3743.7
1067.08,3742.9
1067.88,3745.35