Folder: MPX_specDB/spectra (part 113)

File: VLFR_07-PET_nobio_Raman_18a5fd0c.csv
nm,Intensity
791.377,11313.5
792.477,10533.3
793.576,9899.56
794.676,9575.74
795.775,9496.7
796.874,9473.26
797.973,9432.68
799.072,9436.96
800.171,9258.96
801.27,9222.54
802.368,9403.8
803.467,9016.9
804.565,8960.38
805.664,8886.86
806.762,8799.8
807.86,8734.8
808.958,8710.54
810.056,8643.2
811.153,8565.68
812.251,8524.06
813.349,8534.76
814.446,8331.4
815.543,8433.98
816.64,8313.16
817.737,8232.98
818.834,8238.66
819.931,8134.4
821.028,8107.18
822.125,8040.12
823.221,7966.3
824.317,7975.88
825.414,7871.24
826.51,7937.24
827.606,7726.5
828.702,7733.62
829.797,7660.3
830.893,7616.94
831.988,7558.52
833.084,7462.12
834.179,7463.66
835.274,7331.52
836.369,7285.18
837.464,7491.02
838.559,7389.44
839.654,7260.48
840.748,7489.74
841.843,7574.48
842.937,7289.46
844.031,7165.86
845.125,7019.46
846.219,6904.1
847.313,6873.9
848.407,6807.26
849.5,6717.1
850.593,6837.24
851.687,6727.68
852.78,6780.88
853.873,6719.92
854.966,6696.04
856.059,6565.44
857.151,6602.58
858.244,6606.6
859.336,6746.38
860.428,6701.26
861.52,6572.94
862.612,6454.44
863.704,6367.9
864.796,6453.26
865.888,6354.64
866.979,6301.68
868.07,6217.24
869.162,6228.36
870.253,6256.56
871.344,6363.4
872.434,6493.86
873.525,6559.36
874.615,6333.84
875.706,6169.12
876.796,6057.92
877.886,6042.2
878.976,5947.06
880.066,5960.52
881.156,5924.26
882.245,5924.3
883.335,5820.36
884.424,5854.56
885.513,5864.46
886.602,5788.98
887.691,5703.14
888.78,5676.14
889.868,5593.82
890.957,5612.82
892.045,5601.94
893.133,5505.46
894.221,5499.26
895.309,5454.54
896.397,5372.58
897.484,5548.0
898.571,6087.94
899.659,5812.08
900.746,5324.86
901.833,5237.96
902.92,5243.72
904.006,5183.82
905.093,5198.44
906.179,5246.88
907.266,5530.88
908.352,5581.18
909.438,5309.62
910.523,5100.7
911.609,4973.94
912.695,4942.22
913.78,4885.72
914.865,4917.82
915.95,4845.68
917.035,4821.44
918.12,4807.22
919.204,4801.44
920.289,4753.8
921.373,4733.38
922.457,4713.14
923.541,4650.58
924.625,4666.66
925.709,4625.32
926.792,4622.98
927.876,4577.78
928.959,4540.8
930.042,4493.48
931.125,4499.16
932.208,4459.74
933.29,4441.82
934.373,4429.98
935.455,4388.54
936.537,4372.9
937.619,4353.16
938.701,4345.94
939.782,4340.0
940.864,4296.46
941.945,4278.1
943.026,4270.18
944.107,4259.66
945.188,4230.56
946.269,4220.46
947.349,4214.34
948.43,4198.5
949.51,4176.84
950.59,4178.74
951.67,4144.22
952.75,4132.74
953.829,4142.06
954.909,4106.0
955.988,4108.04
957.067,4074.54
958.146,4080.42
959.224,4068.26
960.303,4043.34
961.381,4049.76
962.459,4031.78
963.537,4025.0
964.615,4012.84
965.693,4003.04
966.771,3998.66
967.848,4001.24
968.925,3983.8
970.002,3974.5
971.079,3972.9
972.156,3956.5
973.232,3946.3
974.309,3937.84
975.385,3939.52
976.461,3923.78
977.537,3920.88
978.612,3919.42
979.688,3903.92
980.763,3895.78
981.838,3894.14
982.913,3888.44
983.988,3887.9
985.063,3883.1
986.137,3877.92
987.211,3870.1
988.285,3862.72
989.359,3860.66
990.433,3856.72
991.506,3854.08
992.58,3840.54
993.653,3842.86
994.726,3834.72
995.799,3829.9
996.872,3827.56
997.944,3821.04
999.016,3820.2
1000.09,3816.54
1001.16,3810.94
1002.23,3808.16
1003.3,3803.8
1004.38,3799.66
1005.45,3794.56
1006.52,3794.74
1007.59,3788.86
1008.66,3788.1
1009.73,3781.3
1010.8,3781.02
1011.87,3777.84
1012.94,3778.38
1014.01,3774.86
1015.08,3771.3
1016.15,3771.88
1017.22,3769.58
1018.29,3767.54
1019.36,3763.2
1020.42,3763.78
1021.49,3766.54
1022.56,3771.12
1023.63,3767.98
1024.7,3764.76
1025.76,3759.46
1026.83,3753.52
1027.9,3753.78
1028.97,3747.28
1030.03,3744.32
1031.1,3743.28
1032.17,3742.22
1033.23,3744.92
1034.3,3745.3
1035.36,3747.3
1036.43,3747.04
1037.5,3741.32
1038.56,3736.5
1039.63,3734.18
1040.69,3733.42
1041.76,3732.32
1042.82,3730.52
1043.89,3731.36
1044.95,3728.82
1046.01,3728.06
1047.08,3728.52
1048.14,3727.88
1049.2,3726.7
1050.27,3725.84
1051.33,3725.4
1052.39,3725.96
1053.46,3724.52
1054.52,3724.66
1055.58,3725.14
1056.64,3723.74
1057.7,3722.98
1058.77,3722.96
1059.83,3721.72
1060.89,3723.6
1061.95,3722.9
1063.01,3722.82
1064.07,3722.2
1065.13,3720.92
1066.19,3721.48
1067.25,3721.16
1068.05,3721.78

File: VLFR_07-PET_nobio_Raman_20aa0ac4.csv
nm,Intensity
791.588,14509.6
792.685,13306.5
793.781,12558.5
794.878,12149.2
795.975,11940.0
797.071,12034.1
798.168,11962.1
799.264,11866.5
800.36,11837.5
801.456,11861.5
802.552,11822.6
803.648,11431.0
804.744,11217.3
805.84,11215.8
806.936,11132.9
808.031,11043.4
809.127,10989.8
810.222,10724.8
811.317,10603.1
812.412,10634.4
813.507,10485.8
814.602,10264.8
815.697,10216.1
816.792,10090.1
817.887,10035.3
818.981,9938.5
820.076,9844.8
821.17,9750.1
822.265,9681.7
823.359,9636.5
824.453,9551.5
825.547,9697.7
826.641,9552.2
827.735,9338.0
828.828,9261.9
829.922,9123.5
831.016,9263.2
832.109,8955.3
833.202,8915.0
834.295,8838.3
835.388,8719.0
836.481,8744.9
837.574,8786.3
838.667,8765.0
839.76,8625.3
840.852,8871.2
841.945,8948.0
843.037,8588.3
844.129,8408.3
845.221,8098.0
846.314,8064.3
847.405,8026.0
848.497,7868.7
849.589,7825.4
850.681,7727.2
851.772,7700.2
852.863,7802.4
853.955,7713.0
855.046,7559.0
856.137,7481.1
857.228,7479.3
858.318,7596.1
859.409,7599.0
860.5,7623.5
861.59,7432.0
862.681,7291.3
863.771,7206.6
864.861,7325.5
865.951,7174.9
867.041,7099.9
868.131,7013.2
869.22,7042.9
870.31,7138.2
871.399,7265.0
872.488,7449.8
873.578,7385.9
874.667,7102.9
875.756,7008.8
876.845,6866.2
877.933,6722.4
879.022,6734.5
880.11,6691.7
881.199,6589.9
882.287,6651.6
883.375,6610.4
884.463,6543.5
885.551,6601.3
886.639,6488.1
887.726,6392.7
888.814,6262.7
889.901,6339.0
890.988,6291.7
892.075,6233.6
893.162,6113.3
894.249,6068.3
895.336,6015.6
896.423,6061.5
897.509,6412.5
898.595,6861.8
899.682,6355.9
900.768,5973.2
901.854,5768.0
902.94,5720.8
904.025,5735.7
905.111,5625.4
906.196,5889.5
907.282,6222.0
908.367,6168.2
909.452,5815.7
910.537,5498.9
911.622,5360.5
912.706,5353.1
913.791,5336.8
914.875,5227.9
915.959,5206.9
917.044,5150.3
918.128,5141.0
919.211,5076.2
920.295,5066.2
921.379,4993.8
922.462,4994.7
923.546,4940.2
924.629,4914.4
925.712,4873.2
926.795,4849.5
927.877,4793.7
928.96,4786.0
930.043,4745.3
931.125,4712.0
932.207,4699.9
933.289,4645.5
934.371,4625.4
935.453,4587.2
936.535,4569.5
937.616,4529.9
938.697,4511.0
939.779,4512.6
940.86,4490.7
941.941,4437.7
943.022,4417.5
944.102,4419.3
945.183,4388.6
946.263,4364.8
947.343,4330.1
948.423,4343.1
949.503,4328.0
950.583,4285.5
951.663,4280.4
952.742,4270.8
953.822,4250.6
954.901,4232.4
955.98,4223.4
957.059,4200.1
958.137,4182.9
959.216,4178.3
960.294,4159.0
961.373,4148.3
962.451,4134.1
963.529,4127.9
964.607,4118.7
965.684,4088.8
966.762,4103.3
967.839,4070.8
968.917,4064.2
969.994,4053.0
971.071,4053.4
972.147,4039.6
973.224,4031.5
974.3,4022.8
975.377,4013.5
976.453,3997.4
977.529,3992.6
978.605,3994.3
979.68,3967.0
980.756,3972.8
981.831,3964.8
982.907,3950.1
983.982,3950.2
985.057,3952.2
986.131,3937.9
987.206,3934.0
988.28,3933.8
989.355,3923.8
990.429,3919.2
991.503,3908.8
992.576,3898.8
993.65,3897.7
994.723,3889.2
995.797,3890.6
996.87,3880.4
997.943,3881.0
999.016,3871.3
1000.09,3873.6
1001.16,3866.0
1002.23,3858.8
1003.31,3859.9
1004.38,3849.3
1005.45,3851.1
1006.52,3841.3
1007.59,3840.2
1008.66,3832.2
1009.73,3831.7
1010.81,3832.7
1011.88,3829.2
1012.95,3822.6
1014.02,3823.1
1015.09,3821.8
1016.16,3815.7
1017.23,3815.2
1018.3,3816.1
1019.37,3810.9
1020.44,3814.7
1021.51,3819.0
1022.58,3825.3
1023.64,3818.7
1024.71,3808.8
1025.78,3806.2
1026.85,3798.8
1027.92,3796.2
1028.99,3794.6
1030.05,3792.3
1031.12,3789.4
1032.19,3785.7
1033.26,3788.0
1034.32,3791.9
1035.39,3794.5
1036.46,3790.0
1037.52,3786.0
1038.59,3779.4
1039.66,3778.5
1040.72,3778.5
1041.79,3774.5
1042.86,3776.0
1043.92,3771.6
1044.99,3771.4
1046.05,3769.9
1047.12,3770.8
1048.18,3769.1
1049.25,3768.4
1050.31,3768.7
1051.37,3768.1
1052.44,3768.6
1053.5,3768.0
1054.57,3769.5
1055.63,3767.9
1056.69,3767.1
1057.76,3766.0
1058.82,3766.7
1059.88,3767.8
1060.95,3766.0
1062.01,3766.2
1063.07,3767.0
1064.13,3765.7
1065.19,3764.4
1066.26,3763.2
1067.32,3764.7
1068.11,3763.2

File: VLFR_07-PET_nobio_Raman_20af0bfa.csv
nm,Intensity
791.377,12169.6
792.477,10875.9
793.576,10545.9
794.676,9897.94
795.775,9770.68
796.874,9651.68
797.973,9764.3
799.072,9640.56
800.171,9617.74
801.27,9683.16
802.368,9689.26
803.467,9471.38
804.565,9408.64
805.664,9272.8
806.762,9211.74
807.86,9127.14
808.958,9099.56
810.056,9029.62
811.153,8935.08
812.251,8753.76
813.349,8742.82
814.446,8687.68
815.543,8587.96
816.64,8541.22
817.737,8391.86
818.834,8297.48
819.931,8316.14
821.028,8257.08
822.125,8136.54
823.221,7971.68
824.317,8042.7
825.414,7941.06
826.51,8070.4
827.606,7919.84
828.702,7794.68
829.797,7754.12
830.893,7848.94
831.988,7663.98
833.084,7571.6
834.179,7602.82
835.274,7440.04
836.369,7492.26
837.464,7493.84
838.559,7498.88
839.654,7467.6
840.748,7565.96
841.843,7749.46
842.937,7370.48
844.031,7284.22
845.125,7125.18
846.219,7005.52
847.313,6951.56
848.407,6915.42
849.5,6826.74
850.593,6851.28
851.687,6808.4
852.78,6790.76
853.873,6799.38
854.966,6743.22
856.059,6569.68
857.151,6586.1
858.244,6718.0
859.336,6720.18
860.428,6815.74
861.52,6563.26
862.612,6456.94
863.704,6416.52
864.796,6518.62
865.888,6322.48
866.979,6268.46
868.07,6266.74
869.162,6269.46
870.253,6268.14
871.344,6363.72
872.434,6519.92
873.525,6517.18
874.615,6417.14
875.706,6172.72
876.796,6089.76
877.886,6072.48
878.976,6007.48
880.066,5952.5
881.156,5917.42
882.245,5975.32
883.335,5863.18
884.424,5833.82
885.513,5920.44
886.602,5845.56
887.691,5720.9
888.78,5660.3
889.868,5677.56
890.957,5662.38
892.045,5658.16
893.133,5593.7
894.221,5573.98
895.309,5500.1
896.397,5484.58
897.484,5636.56
898.571,6186.94
899.659,5934.98
900.746,5403.56
901.833,5320.78
902.92,5300.38
904.006,5258.72
905.093,5257.9
906.179,5324.44
907.266,5574.36
908.352,5718.16
909.438,5478.74
910.523,5174.3
911.609,5046.0
912.695,4990.9
913.78,4978.4
914.865,4943.72
915.95,4922.56
917.035,4861.78
918.12,4850.48
919.204,4805.98
920.289,4811.76
921.373,4749.96
922.457,4730.94
923.541,4681.22
924.625,4674.32
925.709,4630.42
926.792,4612.38
927.876,4591.02
928.959,4544.54
930.042,4525.24
931.125,4505.62
932.208,4441.72
933.29,4465.46
934.373,4425.08
935.455,4388.36
936.537,4367.06
937.619,4351.68
938.701,4350.64
939.782,4312.34
940.864,4314.84
941.945,4282.8
943.026,4268.74
944.107,4250.88
945.188,4240.46
946.269,4214.14
947.349,4200.24
948.43,4202.86
949.51,4160.5
950.59,4159.1
951.67,4147.06
952.75,4125.8
953.829,4122.16
954.909,4111.0
955.988,4098.04
957.067,4085.52
958.146,4062.7
959.224,4054.64
960.303,4048.96
961.381,4030.54
962.459,4029.18
963.537,4018.98
964.615,4014.16
965.693,3999.52
966.771,3985.2
967.848,3986.02
968.925,3977.44
970.002,3967.44
971.079,3959.68
972.156,3950.22
973.232,3947.0
974.309,3942.04
975.385,3931.66
976.461,3922.64
977.537,3914.58
978.612,3902.26
979.688,3907.62
980.763,3895.68
981.838,3896.68
982.913,3889.06
983.988,3881.84
985.063,3879.1
986.137,3871.3
987.211,3864.64
988.285,3863.52
989.359,3857.88
990.433,3850.84
991.506,3842.04
992.58,3841.9
993.653,3839.94
994.726,3829.88
995.799,3828.48
996.872,3822.92
997.944,3818.48
999.016,3817.24
1000.09,3815.9
1001.16,3810.08
1002.23,3804.06
1003.3,3804.38
1004.38,3800.48
1005.45,3797.2
1006.52,3792.92
1007.59,3789.0
1008.66,3785.3
1009.73,3783.02
1010.8,3779.98
1011.87,3778.38
1012.94,3774.92
1014.01,3773.76
1015.08,3774.18
1016.15,3772.4
1017.22,3767.5
1018.29,3766.36
1019.36,3763.9
1020.42,3765.32
1021.49,3770.12
1022.56,3770.14
1023.63,3770.02
1024.7,3764.42
1025.76,3757.88
1026.83,3753.9
1027.9,3752.82
1028.97,3747.92
1030.03,3745.94
1031.1,3742.34
1032.17,3741.64
1033.23,3742.14
1034.3,3745.32
1035.36,3747.78
1036.43,3746.42
1037.5,3740.46
1038.56,3737.48
1039.63,3733.62
1040.69,3732.98
1041.76,3731.54
1042.82,3730.66
1043.89,3731.3
1044.95,3729.2
1046.01,3726.3
1047.08,3727.24
1048.14,3727.82
1049.2,3725.7
1050.27,3725.22
1051.33,3724.86
1052.39,3724.48
1053.46,3724.24
1054.52,3724.24
1055.58,3723.8
1056.64,3723.7
1057.7,3722.98
1058.77,3722.38
1059.83,3723.12
1060.89,3723.2
1061.95,3723.26
1063.01,3722.42
1064.07,3721.74
1065.13,3722.4
1066.19,3721.04
1067.25,3720.76
1068.05,3720.0

File: VLFR_07-PET_nobio_Raman_32c359bc.csv
nm,Intensity
791.377,11633.2
792.477,10603.0
793.576,9940.82
794.676,9536.52
795.775,9391.64
796.874,9332.3
797.973,9366.64
799.072,9344.38
800.171,9301.84
801.27,9311.24
802.368,9295.5
803.467,8968.22
804.565,8890.04
805.664,8845.4
806.762,8816.86
807.86,8615.62
808.958,8678.46
810.056,8511.28
811.153,8447.44
812.251,8386.1
813.349,8284.96
814.446,8244.52
815.543,8199.2
816.64,8079.04
817.737,8015.72
818.834,7961.32
819.931,7961.32
821.028,7854.0
822.125,7796.74
823.221,7749.28
824.317,7605.84
825.414,7848.68
826.51,7752.82
827.606,7446.22
828.702,7436.82
829.797,7309.58
830.893,7469.7
831.988,7239.64
833.084,7197.06
834.179,7181.16
835.274,7111.0
836.369,7159.48
837.464,7202.7
838.559,7172.8
839.654,7154.56
840.748,7320.7
841.843,7313.54
842.937,7017.94
844.031,6954.46
845.125,6756.7
846.219,6626.84
847.313,6599.46
848.407,6593.4
849.5,6538.52
850.593,6505.24
851.687,6497.0
852.78,6477.42
853.873,6405.94
854.966,6330.76
856.059,6300.12
857.151,6249.06
858.244,6397.56
859.336,6468.86
860.428,6467.92
861.52,6206.24
862.612,6139.7
863.704,6145.16
864.796,6129.1
865.888,6054.6
866.979,5925.78
868.07,5921.24
869.162,5993.16
870.253,5986.6
871.344,6102.06
872.434,6264.94
873.525,6247.64
874.615,6064.08
875.706,5869.06
876.796,5792.72
877.886,5766.42
878.976,5707.38
880.066,5702.84
881.156,5687.04
882.245,5646.26
883.335,5632.48
884.424,5569.68
885.513,5595.86
886.602,5547.9
887.691,5470.34
888.78,5420.62
889.868,5422.92
890.957,5371.06
892.045,5400.52
893.133,5315.7
894.221,5278.86
895.309,5240.58
896.397,5261.96
897.484,5486.78
898.571,5948.46
899.659,5561.18
900.746,5161.84
901.833,5065.38
902.92,5050.66
904.006,5037.12
905.093,5002.16
906.179,5171.92
907.266,5416.12
908.352,5463.92
909.438,5197.68
910.523,4940.46
911.609,4837.24
912.695,4794.46
913.78,4767.82
914.865,4751.04
915.95,4705.92
917.035,4695.5
918.12,4664.18
919.204,4657.62
920.289,4596.68
921.373,4620.78
922.457,4561.32
923.541,4550.88
924.625,4528.5
925.709,4515.56
926.792,4492.4
927.876,4453.98
928.959,4420.34
930.042,4408.04
931.125,4366.32
932.208,4349.08
933.29,4320.46
934.373,4332.16
935.455,4298.48
936.537,4278.66
937.619,4252.4
938.701,4255.36
939.782,4226.6
940.864,4224.3
941.945,4210.18
943.026,4183.46
944.107,4173.44
945.188,4160.64
946.269,4150.96
947.349,4130.36
948.43,4119.28
949.51,4120.88
950.59,4087.78
951.67,4086.7
952.75,4081.48
953.829,4062.5
954.909,4049.0
955.988,4040.86
957.067,4043.76
958.146,4025.6
959.224,4009.0
960.303,4007.98
961.381,3989.54
962.459,3998.66
963.537,3978.0
964.615,3978.22
965.693,3966.84
966.771,3960.92
967.848,3954.16
968.925,3950.24
970.002,3940.22
971.079,3935.48
972.156,3925.78
973.232,3924.6
974.309,3909.04
975.385,3909.44
976.461,3901.8
977.537,3896.26
978.612,3885.5
979.688,3888.72
980.763,3879.0
981.838,3878.44
982.913,3876.48
983.988,3867.54
985.063,3866.08
986.137,3862.88
987.211,3853.34
988.285,3851.2
989.359,3851.48
990.433,3841.44
991.506,3838.22
992.58,3834.84
993.653,3830.5
994.726,3828.76
995.799,3823.22
996.872,3821.2
997.944,3816.62
999.016,3819.32
1000.09,3807.48
1001.16,3805.98
1002.23,3801.08
1003.3,3799.62
1004.38,3800.48
1005.45,3794.4
1006.52,3790.68
1007.59,3791.36
1008.66,3789.66
1009.73,3786.22
1010.8,3780.56
1011.87,3783.2
1012.94,3778.44
1014.01,3780.02
1015.08,3779.04
1016.15,3777.42
1017.22,3775.58
1018.29,3770.06
1019.36,3770.32
1020.42,3770.2
1021.49,3778.64
1022.56,3778.04
1023.63,3776.5
1024.7,3771.56
1025.76,3767.16
1026.83,3762.28
1027.9,3758.34
1028.97,3757.04
1030.03,3753.42
1031.1,3752.3
1032.17,3752.54
1033.23,3752.72
1034.3,3756.16
1035.36,3759.44
1036.43,3756.76
1037.5,3750.58
1038.56,3746.88
1039.63,3745.28
1040.69,3744.66
1041.76,3742.74
1042.82,3742.18
1043.89,3741.96
1044.95,3740.6
1046.01,3739.3
1047.08,3739.58
1048.14,3738.06
1049.2,3737.74
1050.27,3737.78
1051.33,3737.08
1052.39,3737.54
1053.46,3737.1
1054.52,3737.36
1055.58,3736.88
1056.64,3735.84
1057.7,3737.06
1058.77,3734.42
1059.83,3735.28
1060.89,3735.18
1061.95,3735.06
1063.01,3735.46
1064.07,3735.34
1065.13,3734.42
1066.19,3733.88
1067.25,3733.56
1068.05,3733.32

File: VLFR_07-PET_nobio_Raman_41c1bd57.csv
nm,Intensity
791.75,13319.3
792.846,12330.3
793.942,11888.7
795.037,11678.3
796.133,11568.8
797.228,11513.0
798.324,11700.3
799.419,11513.3
800.514,11379.2
801.61,11373.2
802.705,11261.8
803.8,10932.8
804.894,10866.8
805.989,10751.4
807.084,10667.2
808.178,10491.8
809.273,10498.6
810.367,10277.8
811.461,10445.5
812.556,10156.3
813.65,10291.4
814.744,10073.8
815.837,10005.9
816.931,10059.1
818.025,9931.15
819.118,9738.75
820.212,9703.8
821.305,9644.0
822.398,9525.8
823.491,9490.55
824.585,9383.65
825.677,9595.35
826.77,9214.15
827.863,9096.85
828.956,9019.45
830.048,8972.95
831.14,8853.0
832.233,8714.0
833.325,8652.5
834.417,8537.3
835.509,8409.05
836.601,8634.3
837.692,8481.15
838.784,8444.9
839.876,8463.8
840.967,8663.65
842.058,8334.1
843.149,8199.55
844.24,7971.7
845.331,7788.35
846.422,7743.55
847.513,7718.6
848.604,7649.4
849.694,7633.5
850.784,7505.35
851.875,7601.65
852.965,7534.7
854.055,7388.0
855.145,7444.7
856.235,7342.6
857.324,7454.9
858.414,7398.75
859.503,7660.85
860.593,7361.0
861.682,7257.55
862.771,7103.1
863.86,7189.4
864.949,7126.45
866.038,6993.95
867.126,6960.65
868.215,6920.05
869.303,6981.5
870.391,7053.0
871.479,7155.0
872.567,7421.15
873.655,7137.05
874.743,6781.2
875.831,6852.8
876.918,6659.45
878.006,6573.35
879.093,6603.4
880.18,6466.9
881.267,6511.7
882.354,6509.75
883.441,6420.55
884.527,6515.75
885.614,6337.5
886.7,6313.35
887.786,6193.9
888.872,6115.25
889.958,6052.05
891.044,6143.15
892.13,6043.85
893.216,5989.25
894.301,5961.65
895.386,5910.8
896.472,5978.15
897.557,6526.15
898.642,6619.8
899.726,5927.9
900.811,5709.95
901.896,5631.75
902.98,5596.2
904.064,5553.65
905.148,5571.3
906.232,5925.8
907.316,6173.9
908.4,5797.5
909.484,5536.95
910.567,5401.15
911.65,5301.65
912.734,5247.6
913.817,5223.25
914.9,5200.45
915.982,5104.35
917.065,5124.0
918.147,5049.65
919.23,5034.1
920.312,5003.3
921.394,4950.9
922.476,4918.5
923.558,4913.25
924.639,4856.9
925.721,4814.05
926.802,4806.45
927.884,4750.0
928.965,4737.6
930.046,4721.0
931.126,4675.15
932.207,4653.4
933.288,4625.45
934.368,4576.65
935.448,4576.75
936.528,4520.2
937.608,4513.95
938.688,4507.2
939.767,4461.55
940.847,4447.55
941.926,4421.85
943.005,4410.8
944.084,4382.65
945.163,4331.75
946.242,4347.55
947.321,4303.55
948.399,4284.8
949.477,4286.5
950.556,4273.05
951.634,4246.4
952.711,4228.35
953.789,4208.15
954.867,4181.9
955.944,4173.85
957.021,4166.85
958.098,4154.0
959.175,4123.75
960.252,4116.5
961.328,4109.25
962.405,4099.4
963.481,4080.25
964.557,4067.25
965.633,4041.75
966.709,4045.25
967.785,4039.75
968.86,4021.25
969.936,3998.35
971.011,4002.5
972.086,3986.0
973.161,3973.3
974.235,3957.05
975.31,3962.5
976.384,3944.05
977.459,3932.15
978.533,3921.75
979.607,3923.75
980.68,3912.95
981.754,3907.2
982.827,3889.4
983.901,3889.4
984.974,3887.15
986.047,3874.65
987.119,3861.45
988.192,3860.7
989.264,3856.35
990.337,3844.9
991.409,3850.75
992.481,3831.65
993.553,3828.2
994.624,3825.2
995.696,3818.95
996.767,3817.45
997.838,3809.55
998.909,3804.85
999.98,3792.0
1001.05,3799.3
1002.12,3791.95
1003.19,3784.65
1004.26,3785.35
1005.33,3779.65
1006.4,3772.65
1007.47,3774.0
1008.54,3767.15
1009.61,3765.65
1010.68,3758.05
1011.75,3761.5
1012.82,3756.9
1013.88,3755.6
1014.95,3755.05
1016.02,3747.95
1017.09,3745.4
1018.16,3745.35
1019.22,3742.15
1020.29,3746.8
1021.36,3751.8
1022.43,3752.3
1023.49,3744.15
1024.56,3740.1
1025.63,3734.05
1026.69,3729.15
1027.76,3727.7
1028.83,3722.8
1029.89,3720.3
1030.96,3719.2
1032.02,3718.85
1033.09,3721.8
1034.15,3723.8
1035.22,3722.7
1036.28,3717.3
1037.35,3714.35
1038.41,3708.8
1039.48,3709.65
1040.54,3708.8
1041.6,3705.95
1042.67,3704.8
1043.73,3704.1
1044.79,3704.2
1045.86,3701.9
1046.92,3701.15
1047.98,3700.45
1049.05,3699.75
1050.11,3700.25
1051.17,3701.1
1052.23,3699.8
1053.29,3699.55
1054.36,3697.8
1055.42,3698.0
1056.48,3698.9
1057.54,3699.2
1058.6,3697.7
1059.66,3696.6
1060.72,3695.0
1061.78,3695.8
1062.84,3696.55
1063.9,3696.25
1064.96,3695.65
1066.02,3695.3
1067.08,3694.05
1067.88,3695.05

File: VLFR_07-PET_nobio_Raman_42af488a.csv
nm,Intensity
791.377,11799.7
792.477,10668.3
793.576,9994.32
794.676,9563.26
795.775,9605.14
796.874,9334.0
797.973,9346.3
799.072,9266.74
800.171,9105.2
801.27,9187.38
802.368,9265.88
803.467,8852.18
804.565,8865.64
805.664,8766.1
806.762,8647.24
807.86,8626.04
808.958,8491.08
810.056,8448.08
811.153,8484.28
812.251,8275.92
813.349,8209.04
814.446,8182.0
815.543,8190.18
816.64,8075.34
817.737,7955.36
818.834,8024.42
819.931,7896.98
821.028,7900.12
822.125,7808.72
823.221,7681.1
824.317,7590.26
825.414,7708.92
826.51,7652.4
827.606,7422.62
828.702,7369.62
829.797,7265.3
830.893,7397.72
831.988,7158.42
833.084,7231.44
834.179,7025.44
835.274,6960.2
836.369,6976.68
837.464,7044.88
838.559,7107.08
839.654,6980.68
840.748,7115.64
841.843,7227.08
842.937,6877.36
844.031,6909.1
845.125,6724.94
846.219,6590.04
847.313,6585.56
848.407,6492.7
849.5,6428.8
850.593,6457.32
851.687,6434.4
852.78,6412.26
853.873,6399.16
854.966,6373.98
856.059,6284.0
857.151,6270.6
858.244,6319.88
859.336,6442.66
860.428,6420.24
861.52,6273.82
862.612,6114.92
863.704,6103.9
864.796,6184.06
865.888,6050.98
866.979,5988.78
868.07,6007.8
869.162,5974.36
870.253,5964.5
871.344,6062.92
872.434,6332.16
873.525,6330.66
874.615,6072.7
875.706,5854.08
876.796,5842.54
877.886,5767.66
878.976,5696.9
880.066,5648.36
881.156,5694.7
882.245,5644.44
883.335,5644.4
884.424,5577.54
885.513,5545.6
886.602,5569.06
887.691,5449.46
888.78,5424.32
889.868,5368.92
890.957,5349.88
892.045,5387.44
893.133,5300.64
894.221,5248.54
895.309,5244.68
896.397,5244.52
897.484,5378.0
898.571,5944.82
899.659,5569.1
900.746,5145.0
901.833,5042.52
902.92,5028.58
904.006,5024.4
905.093,4972.56
906.179,5090.32
907.266,5407.8
908.352,5433.28
909.438,5123.06
910.523,4939.72
911.609,4837.1
912.695,4755.42
913.78,4731.52
914.865,4696.48
915.95,4701.8
917.035,4695.46
918.12,4634.48
919.204,4649.34
920.289,4595.02
921.373,4584.36
922.457,4559.36
923.541,4523.34
924.625,4507.16
925.709,4501.38
926.792,4475.82
927.876,4441.84
928.959,4416.48
930.042,4395.24
931.125,4377.42
932.208,4353.08
933.29,4324.64
934.373,4306.44
935.455,4296.42
936.537,4271.3
937.619,4264.76
938.701,4245.02
939.782,4234.3
940.864,4209.52
941.945,4203.12
943.026,4194.36
944.107,4170.92
945.188,4151.5
946.269,4145.78
947.349,4135.28
948.43,4116.56
949.51,4120.28
950.59,4100.88
951.67,4079.84
952.75,4061.98
953.829,4072.3
954.909,4053.5
955.988,4035.0
957.067,4039.22
958.146,4023.2
959.224,4013.54
960.303,4002.5
961.381,3981.82
962.459,3992.24
963.537,3985.48
964.615,3960.92
965.693,3956.8
966.771,3956.92
967.848,3954.4
968.925,3938.36
970.002,3937.42
971.079,3926.44
972.156,3924.04
973.232,3908.88
974.309,3911.66
975.385,3899.0
976.461,3889.32
977.537,3888.5
978.612,3881.02
979.688,3878.98
980.763,3874.32
981.838,3866.52
982.913,3858.82
983.988,3864.78
985.063,3853.4
986.137,3849.8
987.211,3847.82
988.285,3841.6
989.359,3839.6
990.433,3831.16
991.506,3829.78
992.58,3823.74
993.653,3823.1
994.726,3814.98
995.799,3813.64
996.872,3805.54
997.944,3806.98
999.016,3803.6
1000.09,3798.94
1001.16,3796.22
1002.23,3793.48
1003.3,3791.72
1004.38,3786.48
1005.45,3787.44
1006.52,3781.8
1007.59,3781.5
1008.66,3778.02
1009.73,3775.1
1010.8,3771.3
1011.87,3771.18
1012.94,3768.6
1014.01,3766.34
1015.08,3766.72
1016.15,3765.16
1017.22,3764.42
1018.29,3762.96
1019.36,3760.86
1020.42,3758.88
1021.49,3766.28
1022.56,3766.54
1023.63,3769.24
1024.7,3759.98
1025.76,3757.12
1026.83,3752.36
1027.9,3748.96
1028.97,3747.94
1030.03,3745.16
1031.1,3742.16
1032.17,3741.72
1033.23,3743.64
1034.3,3745.64
1035.36,3747.42
1036.43,3745.68
1037.5,3742.1
1038.56,3736.84
1039.63,3735.32
1040.69,3734.12
1041.76,3732.88
1042.82,3731.96
1043.89,3731.56
1044.95,3731.44
1046.01,3729.16
1047.08,3729.0
1048.14,3729.5
1049.2,3728.7
1050.27,3728.64
1051.33,3728.44
1052.39,3728.34
1053.46,3727.28
1054.52,3727.28
1055.58,3728.02
1056.64,3726.04
1057.7,3726.16
1058.77,3726.1
1059.83,3725.54
1060.89,3725.3
1061.95,3725.0
1063.01,3724.68
1064.07,3725.0
1065.13,3725.5
1066.19,3723.24
1067.25,3723.62
1068.05,3722.92