Folder: MPX_specDB/spectra (part 15)

File: VLFR_01-LDPE_bio_Raman_e1d382c4.csv
nm,Intensity
528.65,1836.95
529.155,1837.7
529.66,1836.95
530.165,1837.0
530.67,1838.55
531.175,1837.2
531.68,1854.95
532.185,2371.65
532.69,1837.3
533.194,1837.7
533.699,1928.9
534.204,2075.05
534.708,2059.05
535.213,2019.9
535.717,1990.25
536.222,1960.9
536.726,1953.8
537.231,1954.65
537.735,1958.0
538.239,1948.4
538.743,1938.4
539.247,1932.2
539.751,1933.35
540.255,1926.2
540.759,1928.55
541.263,1919.25
541.767,1922.05
542.271,1921.8
542.775,1924.2
543.279,1921.6
543.782,1928.8
544.286,1927.45
544.789,1916.25
545.293,1915.1
545.796,1921.6
546.3,1916.0
546.803,1921.5
547.306,1925.05
547.81,1915.8
548.313,1921.55
548.816,1918.15
549.319,1916.75
549.822,1917.1
550.325,1910.7
550.828,1916.65
551.331,1912.05
551.834,1917.5
552.337,1916.65
552.839,1920.4
553.342,1935.05
553.844,1932.35
554.347,1931.7
554.849,1944.5
555.352,1943.45
555.854,1946.75
556.357,1957.2
556.859,1965.7
557.361,1976.2
557.863,1986.75
558.365,1997.95
558.867,1986.2
559.369,1972.8
559.871,1973.0
560.373,1964.85
560.875,1972.45
561.377,1970.15
561.878,1973.55
562.38,1992.0
562.881,2008.95
563.383,2035.6
563.884,2321.45
564.386,2126.8
564.887,2089.65
565.388,2057.4
565.89,2279.45
566.391,2217.6
566.892,2045.65
567.393,2059.65
567.894,2025.2
568.395,2026.45
568.896,2030.45
569.396,2043.35
569.897,2044.7
570.398,2076.9
570.898,2122.55
571.399,2607.95
571.9,2279.3
572.4,2169.15
572.9,2131.6
573.401,2146.85
573.901,2209.55
574.401,2182.75
574.901,2197.85
575.401,2446.35
575.901,2550.5
576.401,2813.9
576.901,2689.7
577.401,2501.4
577.901,2468.3
578.4,2483.35
578.9,2563.5
579.399,2632.8
579.899,2701.85
580.398,2732.7
580.898,2827.9
581.397,2898.35
581.896,2950.1
582.395,3027.25
582.895,3096.1
583.394,3153.6
583.893,3186.75
584.391,3254.1
584.89,3362.45
585.389,3365.65
585.888,3424.65
586.386,3516.9
586.885,3554.05
587.384,3623.0
587.882,3665.35
588.38,3768.4
588.879,3776.95
589.377,3821.1
589.875,3852.6
590.373,3852.9
590.871,3942.75
591.369,4018.45
591.867,4052.65
592.365,4000.55
592.863,4085.2
593.361,4072.85
593.858,4061.2
594.356,4105.65
594.853,4149.45
595.351,4106.35
595.848,4238.1
596.345,4201.8
596.843,4277.05
597.34,4273.75
597.837,4417.55
598.334,4375.2
598.831,4414.2
599.328,4520.7
599.824,4504.75
600.321,4561.15
600.818,4561.6
601.314,4587.7
601.811,4499.6
602.307,4520.65
602.804,4455.05
603.3,4441.75
603.796,4364.6
604.293,4233.2
604.789,4227.15
605.285,4091.8
605.781,4022.5
606.277,3918.3
606.772,3873.7
607.268,3801.2
607.764,3725.35
608.259,3698.5
608.755,3621.95
609.25,3654.3
609.746,3572.9
610.241,3502.3
610.736,3499.8
611.231,3446.5
611.727,3391.85
612.222,3340.45
612.716,3285.85
613.211,3281.5
613.706,3245.4
614.201,3243.75
614.695,3196.0
615.19,3161.9
615.684,3095.4
616.179,3094.1
616.673,3047.35
617.168,3070.3
617.662,3073.55
618.156,3023.2
618.65,2979.9
619.144,2988.15
619.638,2952.55
620.131,2923.45
620.625,2952.0
621.119,2925.75
621.612,2969.35
622.106,3010.2
622.599,2999.65
623.093,2893.95
623.586,2852.05
624.079,2862.65
624.572,2814.25
625.065,2835.65
625.558,2862.4
626.051,2898.55
626.544,3255.8
627.037,5128.65
627.529,4885.4
628.022,4523.25
628.514,5633.0
629.007,4696.45
629.499,4329.6
629.991,3926.45
630.483,3830.5
630.976,3342.5
631.468,3052.55
631.959,2965.1
632.451,2896.9
632.943,2883.25
633.435,2903.65
633.926,2862.4
634.418,2858.15
634.909,2855.65
635.401,2873.85
635.892,2856.2
636.383,2842.75
636.874,2863.25
637.365,2881.35
637.856,2895.7
638.347,2888.7
638.838,2865.05
639.329,2906.35
639.819,2903.65
640.31,2916.05
640.8,2893.3
641.291,2905.35
641.781,2920.5
642.271,2955.55
642.761,2914.9
643.251,2930.45
643.741,2926.4
644.231,2940.8
644.721,2898.05
645.211,2949.85
645.7,2922.4
646.19,2923.9
646.679,2928.6
647.169,2935.1
647.658,2876.8
648.147,2919.4
648.636,2831.25
649.125,2896.95
649.614,2843.35
650.103,2867.75
650.592,2861.7
651.08,2850.45
651.569,2796.95
652.058,2789.1
652.546,2809.15
653.034,2787.2
653.523,2775.3
654.011,2816.75
654.499,2768.6
654.987,2798.5
655.475,2769.95
655.963,2766.45
656.45,2722.35
656.938,2724.15
657.425,2689.35
657.913,2663.35
658.4,2621.75
658.888,2619.75
659.375,2581.9
659.862,2598.0
660.349,2536.6
660.836,2499.5
661.079,2490.05

File: VLFR_01-LDPE_bio_Raman_e008a9b8.csv
nm,Intensity
526.495,830.5
527.042,828.1
527.589,830.2
528.136,829.9
528.682,829.9
529.229,830.3
529.775,829.7
530.321,828.7
530.867,829.9
531.413,828.7
531.959,830.7
532.505,829.3
533.051,830.2
533.596,838.1
534.141,2088.2
534.687,2172.5
535.232,2144.8
535.777,2216.3
536.321,2208.3
536.866,2217.4
537.41,2236.9
537.955,2240.8
538.499,2253.1
539.043,2257.2
539.587,2295.2
540.131,2300.8
540.675,2294.1
541.219,2318.8
541.762,2327.3
542.305,2333.6
542.849,2358.2
543.392,2370.2
543.935,2395.1
544.478,2408.8
545.02,2421.6
545.563,2447.8
546.106,2459.1
546.648,2476.1
547.19,2473.5
547.732,2485.4
548.274,2498.5
548.816,2507.3
549.358,2541.4
549.9,2563.7
550.441,2552.6
550.983,2567.2
551.524,2589.7
552.065,2608.2
552.606,2628.5
553.147,2624.3
553.688,2641.7
554.229,2656.0
554.769,2667.4
555.31,2643.4
555.85,2668.2
556.391,2680.2
556.931,2688.9
557.471,2694.9
558.011,2721.1
558.551,2704.7
559.09,2720.0
559.63,2737.1
560.169,2768.4
560.709,2792.3
561.248,2802.2
561.787,2780.9
562.326,2826.9
562.865,2827.7
563.404,2870.4
563.943,2884.1
564.481,2906.0
565.02,2936.4
565.558,2942.4
566.096,2949.5
566.634,2962.0
567.172,2967.7
567.71,2988.7
568.248,3000.6
568.786,3067.4
569.324,3081.9
569.861,3114.3
570.399,3134.3
570.936,3136.3
571.473,3138.0
572.01,3168.2
572.547,3211.3
573.084,3239.8
573.621,3246.8
574.158,3264.6
574.694,3255.0
575.231,3229.8
575.767,3243.4
576.303,3266.7
576.84,3262.7
577.376,3270.0
577.912,3254.7
578.448,3282.7
578.984,3319.0
579.519,3329.7
580.055,3338.9
580.59,3343.2
581.126,3350.4
581.661,3330.4
582.196,3301.0
582.731,3265.5
583.267,3257.1
583.801,3236.0
584.336,3226.5
584.871,3204.1
585.406,3207.8
585.94,3210.0
586.475,3233.2
587.009,3227.6
587.543,3243.3
588.078,3235.9
588.612,3210.1
589.146,3197.9
589.68,3201.9
590.214,3201.7
590.747,3219.1
591.281,3196.4
591.815,3209.9
592.348,3208.6
592.881,3194.2
593.415,3174.7
593.948,3194.6
594.481,3198.9
595.014,3189.1
595.547,3211.8
596.08,3210.8
596.613,3214.7
597.146,3217.0
597.678,3203.6
598.211,3238.2
598.743,3237.4
599.276,3249.0
599.808,3235.4
600.34,3213.6
600.872,3197.9
601.404,3202.1
601.936,3201.2
602.468,3191.7
603.0,3208.5
603.532,3177.6
604.064,3151.8
604.595,3164.6
605.127,3133.7
605.658,3106.2
606.189,3082.7
606.721,3084.6
607.252,3073.5
607.783,3100.3
608.314,3117.9
608.845,3116.4
609.376,3122.5
609.907,3091.0
610.438,3074.8
610.968,3072.7
611.499,3078.4
612.029,3085.3
612.56,3108.6
613.09,3141.4
613.621,3139.2
614.151,3124.5
614.681,3127.8
615.211,3114.5
615.741,3091.3
616.271,3098.0
616.801,3076.8
617.331,3089.3
617.861,3098.5
618.39,3084.0
618.92,3062.3
619.45,3071.4
619.979,3052.5
620.509,3042.8
621.038,3032.1
621.567,3017.8
622.096,3027.5
622.626,3017.8
623.155,3032.9
623.684,3048.6
624.213,3056.5
624.742,3041.2
625.271,3020.3
625.799,2997.0
626.328,2985.2
626.857,2999.6
627.386,2966.5
627.914,2974.0
628.443,2956.3
628.971,2949.7
629.5,2942.7
630.028,2956.3
630.556,2950.6
631.084,2931.6
631.613,2923.3
632.141,2896.8
632.669,2883.5
633.197,2879.1
633.725,2873.2
634.253,2849.6
634.781,2837.2
635.308,2837.3
635.836,2836.0
636.364,2836.4
636.891,2820.3
637.419,2809.1
637.947,2792.1
638.474,2780.3
639.002,2773.6
639.529,2762.6
640.056,2760.5
640.584,2769.1
641.111,2754.8
641.638,2747.7
642.165,2731.6
642.692,2702.0
643.219,2684.3
643.746,2665.9
644.273,2634.8
644.8,2630.5
645.327,2627.3
645.854,2613.5
646.381,2611.6
646.908,2620.5
647.434,2600.7
647.961,2592.4
648.488,2568.4
649.014,2557.5
649.541,2566.8
650.067,2549.0
650.594,2533.4
651.12,2536.6
651.646,2531.3
652.173,2518.3
652.699,2510.9
653.225,2512.7
653.752,2493.9
654.278,2500.1
654.804,2498.6
655.33,2466.8
655.856,2473.3
656.382,2469.5
656.908,2480.8
657.434,2454.3
657.96,2451.2
658.486,2464.4
659.012,2455.1
659.538,2435.1
660.064,2442.6
660.589,2425.7
661.115,2413.9
661.641,2382.7
662.166,2367.2
662.692,2387.4
663.086,2376.7

File: VLFR_01-LDPE_bio_Raman_e228e169.csv
nm,Intensity
526.547,832.4
527.095,832.25
527.642,831.0
528.189,830.65
528.736,832.9
529.283,832.35
529.829,831.05
530.376,831.65
530.922,831.4
531.468,832.4
532.014,838.55
532.56,832.3
533.106,831.15
533.651,832.4
534.196,838.9
534.742,839.25
535.287,838.2
535.832,838.75
536.376,838.8
536.921,836.5
537.465,838.95
538.01,838.15
538.554,835.25
539.098,836.2
539.642,837.6
540.186,836.25
540.729,835.75
541.273,835.75
541.816,836.6
542.36,837.2
542.903,835.95
543.446,836.1
543.988,836.85
544.531,836.5
545.074,835.8
545.616,836.05
546.158,835.6
546.701,835.7
547.243,836.5
547.785,835.25
548.326,835.05
548.868,835.55
549.41,836.3
549.951,836.15
550.492,835.9
551.034,835.85
551.575,836.0
552.116,836.4
552.656,834.85
553.197,835.3
553.738,836.35
554.278,835.3
554.819,835.95
555.359,836.7
555.899,836.95
556.439,835.8
556.979,836.15
557.519,837.05
558.058,836.35
558.598,835.7
559.137,835.95
559.677,836.55
560.216,835.4
560.755,835.55
561.294,836.85
561.833,836.85
562.371,836.75
562.91,837.35
563.449,836.9
563.987,837.2
564.525,835.6
565.064,836.95
565.602,836.6
566.14,837.9
566.678,835.85
567.216,837.15
567.753,836.65
568.291,836.7
568.828,836.35
569.366,836.45
569.903,837.15
570.44,838.05
570.977,837.8
571.514,837.5
572.051,837.35
572.588,838.1
573.125,836.4
573.661,837.7
574.198,836.85
574.734,837.25
575.271,837.3
575.807,838.2
576.343,838.6
576.879,838.0
577.415,837.3
577.951,836.5
578.486,839.35
579.022,837.85
579.557,836.55
580.093,838.65
580.628,839.0
581.164,836.95
581.699,837.65
582.234,837.55
582.769,838.05
583.304,837.95
583.838,838.85
584.373,839.1
584.908,837.65
585.442,838.4
585.977,839.35
586.511,837.8
587.045,838.05
587.58,838.2
588.114,839.4
588.648,839.45
589.182,838.25
589.715,837.65
590.249,838.2
590.783,839.85
591.316,837.8
591.85,838.8
592.383,839.55
592.917,840.25
593.45,840.8
593.983,840.05
594.516,839.7
595.049,839.9
595.582,840.2
596.115,841.05
596.648,839.05
597.18,840.65
597.713,840.2
598.245,839.55
598.778,840.95
599.31,841.6
599.842,841.85
600.375,842.15
600.907,841.25
601.439,842.6
601.971,842.05
602.503,842.1
603.034,842.35
603.566,842.35
604.098,841.75
604.629,841.3
605.161,840.7
605.692,841.8
606.224,841.35
606.755,841.05
607.286,840.55
607.817,840.0
608.348,839.95
608.879,840.4
609.41,841.1
609.941,840.05
610.472,841.3
611.002,840.6
611.533,838.75
612.063,840.0
612.594,839.85
613.124,839.75
613.655,839.5
614.185,839.8
614.715,839.7
615.245,841.25
615.775,840.3
616.305,839.8
616.835,839.9
617.365,839.95
617.895,840.95
618.425,840.55
618.954,839.9
619.484,840.05
620.013,840.1
620.543,839.6
621.072,838.95
621.602,839.45
622.131,839.8
622.66,838.85
623.189,839.55
623.718,838.4
624.247,840.15
624.776,840.25
625.305,839.7
625.834,838.95
626.363,840.05
626.891,840.4
627.42,842.15
627.949,840.7
628.477,841.5
629.006,841.9
629.534,841.2
630.062,842.25
630.591,840.65
631.119,840.1
631.647,839.95
632.175,841.3
632.703,840.6
633.231,839.9
633.759,839.9
634.287,839.15
634.815,839.05
635.343,839.6
635.871,840.95
636.398,840.55
636.926,839.45
637.454,840.45
637.981,839.9
638.509,840.75
639.036,840.05
639.564,841.1
640.091,839.75
640.618,840.95
641.146,840.8
641.673,841.0
642.2,841.0
642.727,842.2
643.254,842.2
643.781,840.5
644.308,841.5
644.835,841.75
645.362,841.45
645.889,842.1
646.416,842.65
646.942,843.05
647.469,844.45
647.996,843.55
648.522,844.05
649.049,844.1
649.576,843.55
650.102,843.85
650.629,843.7
651.155,843.5
651.682,844.8
652.208,843.3
652.734,843.9
653.261,843.2
653.787,844.85
654.313,842.6
654.839,843.0
655.365,841.2
655.892,841.95
656.418,841.25
656.944,841.65
657.47,841.1
657.996,840.15
658.522,840.7
659.048,839.1
659.574,840.6
660.099,839.1
660.625,839.55
661.151,838.8
661.677,838.05
662.203,837.5
662.728,838.5
663.123,836.8

File: VLFR_01-LDPE_bio_Raman_e556cb1e.csv
nm,Intensity
528.626,1868.9
529.132,1869.1
529.637,1867.8
530.143,1870.2
530.648,1869.0
531.153,1871.4
531.658,1893.7
532.164,3474.3
532.669,1867.3
533.174,1870.8
533.679,1928.9
534.184,2136.3
534.689,2155.0
535.194,2147.5
535.699,2120.9
536.203,2116.8
536.708,2110.3
537.213,2112.4
537.717,2117.3
538.222,2115.2
538.726,2126.6
539.231,2120.4
539.735,2115.5
540.239,2133.6
540.744,2127.6
541.248,2129.7
541.752,2132.2
542.256,2147.3
542.76,2144.5
543.264,2160.0
543.768,2145.5
544.272,2140.9
544.776,2153.0
545.28,2168.5
545.784,2152.3
546.287,2153.0
546.791,2162.5
547.294,2173.9
547.798,2163.0
548.301,2185.2
548.805,2169.5
549.308,2181.2
549.811,2179.3
550.315,2184.5
550.818,2185.5
551.321,2208.7
551.824,2185.5
552.327,2205.9
552.83,2186.1
553.333,2198.9
553.835,2194.7
554.338,2226.5
554.841,2201.9
555.343,2239.0
555.846,2215.8
556.349,2226.7
556.851,2240.9
557.353,2236.4
557.856,2235.4
558.358,2265.0
558.86,2253.0
559.362,2244.6
559.864,2250.4
560.366,2262.8
560.868,2283.7
561.37,2286.9
561.872,2283.1
562.374,2276.4
562.876,2296.3
563.377,2308.5
563.879,2371.2
564.38,2337.7
564.882,2342.2
565.383,2321.5
565.885,2342.1
566.386,2363.4
566.887,2309.6
567.388,2328.1
567.889,2308.4
568.391,2321.3
568.892,2323.2
569.392,2323.1
569.893,2337.6
570.394,2358.6
570.895,2353.8
571.395,2466.2
571.896,2409.1
572.397,2388.4
572.897,2384.8
573.397,2371.8
573.898,2395.9
574.398,2371.0
574.898,2388.5
575.398,2396.4
575.898,2440.5
576.398,2533.2
576.898,2504.9
577.398,2459.9
577.898,2423.7
578.398,2423.0
578.897,2437.0
579.397,2436.5
579.896,2441.9
580.396,2458.3
580.895,2467.0
581.395,2466.2
581.894,2468.4
582.393,2474.8
582.892,2478.1
583.391,2494.0
583.89,2482.6
584.389,2505.2
584.888,2514.2
585.387,2510.2
585.886,2525.4
586.384,2541.3
586.883,2566.7
587.381,2554.2
587.88,2608.5
588.378,2606.0
588.876,2631.3
589.375,2643.9
589.873,2646.5
590.371,2670.0
590.869,2678.0
591.367,2715.6
591.865,2743.9
592.363,2752.1
592.86,2800.6
593.358,2798.2
593.856,2844.1
594.353,2850.3
594.851,2900.2
595.348,2984.4
595.845,3021.6
596.342,3042.4
596.84,3089.5
597.337,3136.0
597.834,3193.2
598.331,3224.3
598.828,3315.5
599.324,3319.0
599.821,3369.8
600.318,3370.5
600.814,3428.2
601.311,3419.0
601.807,3447.4
602.304,3436.6
602.8,3387.2
603.296,3394.3
603.792,3375.8
604.288,3344.5
604.784,3316.2
605.28,3219.3
605.776,3217.1
606.272,3203.9
606.767,3164.9
607.263,3141.5
607.759,3111.6
608.254,3101.5
608.749,3070.1
609.245,3056.2
609.74,3043.8
610.235,3057.8
610.73,3076.7
611.225,3003.6
611.72,3003.6
612.215,3022.1
612.71,3028.5
613.204,3004.5
613.699,2970.7
614.194,2963.4
614.688,2957.8
615.182,2951.9
615.677,2905.6
616.171,2914.2
616.665,2869.1
617.159,2916.3
617.653,2884.0
618.147,2884.3
618.641,2891.9
619.135,2903.6
619.628,2885.4
620.122,2871.7
620.615,2843.0
621.109,2852.4
621.602,2853.6
622.095,2855.6
622.589,2848.8
623.082,2831.9
623.575,2825.5
624.068,2807.8
624.561,2792.6
625.053,2781.6
625.546,2788.9
626.039,2797.1
626.531,2863.3
627.024,3344.5
627.516,3362.8
628.008,3207.5
628.501,3473.2
628.993,3207.1
629.485,3085.1
629.977,2994.6
630.469,2963.1
630.96,2817.8
631.452,2739.0
631.944,2712.2
632.435,2695.6
632.927,2670.9
633.418,2670.9
633.91,2647.6
634.401,2627.5
634.892,2652.9
635.383,2631.7
635.874,2615.4
636.365,2629.0
636.856,2626.8
637.346,2618.0
637.837,2611.3
638.327,2611.2
638.818,2601.2
639.308,2600.4
639.799,2596.8
640.289,2599.5
640.779,2583.2
641.269,2582.9
641.759,2589.9
642.249,2600.4
642.738,2615.9
643.228,2603.8
643.718,2604.4
644.207,2588.2
644.697,2580.4
645.186,2605.5
645.675,2590.8
646.164,2578.0
646.653,2586.9
647.142,2600.4
647.631,2595.4
648.12,2581.1
648.609,2589.6
649.098,2592.5
649.586,2579.4
650.075,2595.4
650.563,2597.5
651.051,2597.2
651.539,2584.7
652.027,2576.0
652.515,2569.4
653.003,2582.8
653.491,2574.6
653.979,2587.7
654.467,2552.8
654.954,2545.8
655.442,2529.2
655.929,2564.4
656.416,2534.3
656.904,2501.6
657.391,2508.7
657.878,2519.1
658.365,2452.4
658.851,2476.4
659.338,2428.4
659.825,2428.2
660.311,2451.2
660.798,2410.6
661.041,2418.7

File: VLFR_01-LDPE_bio_Raman_e8385e46.csv
nm,Intensity
528.65,1837.85
529.155,1837.25
529.66,1837.3
530.165,1837.2
530.67,1838.5
531.175,1839.25
531.68,1858.7
532.185,3752.55
532.69,1839.15
533.194,1839.05
533.699,1925.5
534.204,2231.05
534.708,2201.35
535.213,2178.85
535.717,2156.65
536.222,2136.5
536.726,2121.1
537.231,2126.25
537.735,2136.7
538.239,2127.6
538.743,2152.45
539.247,2166.4
539.751,2096.65
540.255,2087.15
540.759,2082.85
541.263,2083.35
541.767,2084.1
542.271,2094.6
542.775,2116.25
543.279,2107.3
543.782,2117.35
544.286,2147.4
544.789,2159.0
545.293,2132.7
545.796,2157.95
546.3,2148.7
546.803,2118.15
547.306,2097.7
547.81,2097.35
548.313,2099.3
548.816,2100.75
549.319,2105.8
549.822,2147.05
550.325,2153.8
550.828,2227.9
551.331,2184.95
551.834,2149.65
552.337,2111.35
552.839,2107.8
553.342,2107.4
553.844,2114.7
554.347,2121.85
554.849,2131.7
555.352,2124.2
555.854,2133.55
556.357,2137.95
556.859,2135.2
557.361,2154.35
557.863,2163.35
558.365,2183.7
558.867,2173.5
559.369,2158.9
559.871,2159.6
560.373,2157.5
560.875,2174.95
561.377,2196.3
561.878,2473.5
562.38,3350.0
562.881,2386.85
563.383,2252.45
563.884,2464.3
564.386,2359.9
564.887,2347.85
565.388,2310.55
565.89,2479.8
566.391,2483.55
566.892,2342.3
567.393,2336.6
567.894,2281.65
568.395,2281.65
568.896,2285.45
569.396,2286.35
569.897,2289.05
570.398,2322.8
570.898,2358.55
571.399,2719.7
571.9,2557.35
572.4,2423.8
572.9,2361.15
573.401,2336.5
573.901,2380.6
574.401,2323.0
574.901,2328.7
575.401,2450.8
575.901,2609.55
576.401,2917.05
576.901,2748.9
577.401,2518.85
577.901,2395.4
578.4,2361.8
578.9,2366.15
579.399,2353.4
579.899,2370.3
580.398,2369.55
580.898,2379.25
581.397,2394.1
581.896,2392.95
582.395,2404.6
582.895,2389.8
583.394,2395.95
583.893,2426.15
584.391,2414.35
584.89,2435.25
585.389,2447.5
585.888,2438.25
586.386,2456.6
586.885,2457.2
587.384,2500.3
587.882,2507.75
588.38,2524.0
588.879,2536.25
589.377,2528.5
589.875,2528.3
590.373,2556.5
590.871,2544.5
591.369,2582.35
591.867,2587.3
592.365,2600.95
592.863,2618.35
593.361,2630.5
593.858,2598.2
594.356,2633.75
594.853,2629.2
595.351,2652.75
595.848,2658.4
596.345,2677.3
596.843,2686.4
597.34,2724.35
597.837,2742.45
598.334,2735.9
598.831,2781.3
599.328,2777.7
599.824,2796.8
600.321,2811.85
600.818,2818.15
601.314,2818.5
601.811,2838.35
602.307,2832.25
602.804,2792.6
603.3,2795.05
603.796,2770.0
604.293,2741.6
604.789,2729.3
605.285,2690.45
605.781,2668.1
606.277,2667.25
606.772,2649.05
607.268,2640.95
607.764,2629.4
608.259,2598.95
608.755,2587.15
609.25,2555.95
609.746,2567.3
610.241,2594.75
610.736,2572.45
611.231,2557.15
611.727,2545.9
612.222,2527.25
612.716,2513.2
613.211,2513.65
613.706,2517.55
614.201,2521.4
614.695,2492.45
615.19,2499.5
615.684,2512.15
616.179,2488.3
616.673,2512.4
617.168,2506.15
617.662,2512.5
618.156,2522.45
618.65,2497.0
619.144,2519.0
619.638,2523.15
620.131,2541.05
620.625,2535.8
621.119,2564.35
621.612,2612.95
622.106,2726.0
622.599,2666.2
623.093,2562.85
623.586,2523.95
624.079,2500.35
624.572,2500.7
625.065,2518.4
625.558,2550.6
626.051,2625.05
626.544,3053.65
627.037,5889.65
627.529,5896.5
628.022,4849.1
628.514,6468.95
629.007,5299.9
629.499,4608.4
629.991,4183.4
630.483,4020.1
630.976,3299.75
631.468,2828.05
631.959,2643.6
632.451,2502.05
632.943,2496.6
633.435,2458.0
633.926,2439.65
634.418,2422.0
634.909,2404.65
635.401,2387.95
635.892,2397.5
636.383,2391.7
636.874,2374.25
637.365,2364.25
637.856,2362.6
638.347,2363.15
638.838,2371.55
639.329,2362.95
639.819,2344.65
640.31,2351.75
640.8,2372.65
641.291,2359.55
641.781,2361.8
642.271,2349.65
642.761,2364.55
643.251,2374.1
643.741,2355.4
644.231,2369.4
644.721,2347.15
645.211,2342.7
645.7,2350.3
646.19,2354.9
646.679,2338.15
647.169,2342.75
647.658,2351.0
648.147,2333.35
648.636,2335.9
649.125,2327.6
649.614,2351.25
650.103,2337.1
650.592,2356.85
651.08,2343.95
651.569,2333.65
652.058,2343.85
652.546,2324.5
653.034,2324.1
653.523,2329.85
654.011,2338.55
654.499,2325.15
654.987,2316.05
655.475,2335.55
655.963,2314.25
656.45,2311.45
656.938,2290.35
657.425,2270.6
657.913,2277.35
658.4,2238.45
658.888,2229.8
659.375,2206.55
659.862,2225.45
660.349,2205.3
660.836,2182.35
661.079,2183.15

File: VLFR_01-LDPE_bio_Raman_e18548b1.csv
nm,Intensity
528.65,1838.7
529.155,1838.75
529.66,1839.65
530.165,1838.8
530.67,1838.35
531.175,1839.1
531.68,1848.5
532.185,2231.25
532.69,1839.35
533.194,1839.95
533.699,1956.55
534.204,2148.15
534.708,2117.5
535.213,2069.75
535.717,2014.05
536.222,1977.65
536.726,1966.25
537.231,1968.5
537.735,1964.35
538.239,1958.65
538.743,1943.9
539.247,1929.1
539.751,1929.05
540.255,1922.6
540.759,1923.65
541.263,1916.6
541.767,1913.85
542.271,1919.25
542.775,1912.5
543.279,1910.8
543.782,1911.5
544.286,1913.35
544.789,1907.9
545.293,1910.0
545.796,1910.95
546.3,1905.2
546.803,1909.25
547.306,1907.9
547.81,1905.6
548.313,1905.3
548.816,1906.25
549.319,1904.65
549.822,1905.25
550.325,1905.45
550.828,1903.8
551.331,1904.0
551.834,1905.55
552.337,1910.55
552.839,1905.05
553.342,1926.8
553.844,1922.75
554.347,1929.95
554.849,1929.75
555.352,1940.6
555.854,1945.15
556.357,1946.55
556.859,1954.25
557.361,1972.05
557.863,1979.25
558.365,1987.25
558.867,1985.8
559.369,1963.1
559.871,1960.25
560.373,1958.25
560.875,1953.35
561.377,1973.05
561.878,1983.1
562.38,1983.1
562.881,2001.95
563.383,2027.1
563.884,2382.0
564.386,2134.55
564.887,2098.45
565.388,2040.1
565.89,2241.25
566.391,2186.45
566.892,2022.45
567.393,2065.25
567.894,2001.8
568.395,1996.65
568.896,1996.3
569.396,2006.75
569.897,2011.85
570.398,2038.2
570.898,2081.85
571.399,2637.3
571.9,2264.3
572.4,2114.2
572.9,2064.15
573.401,2077.9
573.901,2124.1
574.401,2084.55
574.901,2094.05
575.401,2302.55
575.901,2460.2
576.401,2840.05
576.901,2621.3
577.401,2381.0
577.901,2284.55
578.4,2273.6
578.9,2300.25
579.399,2328.0
579.899,2382.95
580.398,2406.1
580.898,2430.8
581.397,2465.5
581.896,2515.2
582.395,2535.4
582.895,2565.8
583.394,2601.9
583.893,2626.1
584.391,2661.25
584.89,2676.7
585.389,2710.0
585.888,2752.75
586.386,2755.15
586.885,2767.8
587.384,2842.05
587.882,2859.7
588.38,2909.7
588.879,2978.5
589.377,2999.0
589.875,3052.2
590.373,3107.25
590.871,3148.75
591.369,3170.65
591.867,3235.9
592.365,3262.65
592.863,3284.05
593.361,3331.85
593.858,3327.9
594.356,3372.1
594.853,3446.9
595.351,3461.35
595.848,3538.5
596.345,3591.75
596.843,3624.95
597.34,3708.1
597.837,3781.55
598.334,3833.7
598.831,3897.9
599.328,3978.25
599.824,3957.1
600.321,3967.65
600.818,3993.3
601.314,4003.65
601.811,3989.65
602.307,3962.85
602.804,3897.65
603.3,3932.45
603.796,3823.3
604.293,3744.9
604.789,3660.2
605.285,3617.6
605.781,3512.9
606.277,3413.2
606.772,3384.6
607.268,3275.0
607.764,3260.65
608.259,3177.25
608.755,3141.65
609.25,3100.45
609.746,3049.5
610.241,3025.3
610.736,2991.85
611.231,2985.5
611.727,2949.5
612.222,2939.55
612.716,2858.45
613.211,2859.35
613.706,2824.85
614.201,2792.7
614.695,2768.8
615.19,2753.65
615.684,2735.05
616.179,2718.6
616.673,2698.2
617.168,2727.45
617.662,2707.5
618.156,2689.75
618.65,2674.4
619.144,2684.15
619.638,2654.35
620.131,2655.45
620.625,2642.6
621.119,2666.7
621.612,2738.15
622.106,2862.55
622.599,2774.75
623.093,2649.7
623.586,2580.75
624.079,2575.6
624.572,2571.45
625.065,2582.75
625.558,2612.5
626.051,2710.35
626.544,3218.7
627.037,5918.7
627.529,5441.5
628.022,4797.3
628.514,6540.4
629.007,4870.3
629.499,4423.35
629.991,3917.75
630.483,3757.0
630.976,3200.2
631.468,2763.45
631.959,2660.4
632.451,2579.8
632.943,2572.1
633.435,2575.75
633.926,2531.35
634.418,2499.2
634.909,2512.65
635.401,2481.7
635.892,2515.1
636.383,2482.7
636.874,2501.85
637.365,2474.3
637.856,2499.3
638.347,2487.45
638.838,2495.1
639.329,2492.2
639.819,2483.95
640.31,2486.05
640.8,2521.5
641.291,2519.65
641.781,2526.8
642.271,2522.6
642.761,2511.75
643.251,2513.55
643.741,2546.55
644.231,2539.6
644.721,2526.15
645.211,2558.7
645.7,2539.6
646.19,2550.8
646.679,2584.45
647.169,2549.85
647.658,2558.0
648.147,2555.45
648.636,2572.2
649.125,2549.65
649.614,2555.45
650.103,2554.1
650.592,2551.9
651.08,2555.6
651.569,2560.05
652.058,2589.45
652.546,2554.75
653.034,2550.25
653.523,2529.5
654.011,2541.4
654.499,2542.9
654.987,2543.95
655.475,2538.35
655.963,2530.35
656.45,2536.35
656.938,2504.75
657.425,2466.4
657.913,2452.95
658.4,2454.7
658.888,2413.25
659.375,2381.15
659.862,2373.8
660.349,2367.2
660.836,2315.55
661.079,2323.1