Folder: MPX_specDB/spectra (part 22)

File: VLFR_01-LDPE_nobio_Raman_9eee28dd.csv
nm,Intensity
526.5,828.5
527.047,829.0
527.594,828.9
528.14,829.1
528.687,829.6
529.233,829.1
529.779,828.2
530.325,829.4
530.871,828.2
531.417,829.0
531.962,832.4
532.508,829.0
533.053,829.1
533.599,831.4
534.144,885.3
534.689,877.6
535.234,868.3
535.778,857.4
536.323,851.3
536.867,854.9
537.412,850.4
537.956,849.9
538.5,847.2
539.044,845.8
539.588,844.1
540.132,843.9
540.675,841.6
541.219,843.3
541.762,844.3
542.305,842.7
542.848,843.0
543.391,844.2
543.934,842.1
544.477,842.7
545.02,840.4
545.562,839.9
546.105,841.3
546.647,840.5
547.189,841.5
547.731,840.3
548.273,841.2
548.815,841.9
549.356,841.1
549.898,840.4
550.439,841.3
550.981,840.0
551.522,839.7
552.063,840.4
552.604,841.3
553.145,842.9
553.686,843.0
554.226,843.5
554.767,845.1
555.307,842.0
555.848,845.3
556.388,848.0
556.928,846.9
557.468,851.0
558.008,852.2
558.547,850.9
559.087,849.8
559.626,848.3
560.166,852.1
560.705,849.9
561.244,849.8
561.783,851.8
562.322,854.0
562.861,855.5
563.4,857.8
563.939,898.3
564.477,872.0
565.015,867.3
565.554,866.0
566.092,901.3
566.63,868.4
567.168,862.5
567.706,868.8
568.244,865.1
568.781,865.9
569.319,868.1
569.857,870.5
570.394,875.3
570.931,884.5
571.468,946.9
572.005,908.7
572.542,895.0
573.079,895.0
573.616,901.6
574.153,909.3
574.689,908.7
575.226,923.1
575.762,950.6
576.298,1030.8
576.834,1004.4
577.371,998.5
577.907,982.1
578.442,992.8
578.978,1009.8
579.514,1022.7
580.049,1039.8
580.585,1062.3
581.12,1076.1
581.656,1092.1
582.191,1111.5
582.726,1126.5
583.261,1142.7
583.796,1165.2
584.331,1175.6
584.865,1185.4
585.4,1204.3
585.935,1217.8
586.469,1252.0
587.004,1268.0
587.538,1286.5
588.072,1312.5
588.606,1328.4
589.14,1352.6
589.674,1371.6
590.208,1393.9
590.742,1404.4
591.275,1427.6
591.809,1443.2
592.342,1455.1
592.876,1461.3
593.409,1472.0
593.942,1478.1
594.476,1488.5
595.009,1498.1
595.542,1510.1
596.075,1520.3
596.607,1542.8
597.14,1559.0
597.673,1573.3
598.205,1594.8
598.738,1625.7
599.27,1636.9
599.803,1656.3
600.335,1648.7
600.867,1650.9
601.399,1650.0
601.931,1648.2
602.463,1627.8
602.995,1609.6
603.527,1599.7
604.058,1557.0
604.59,1518.2
605.122,1497.7
605.653,1469.1
606.184,1430.1
606.716,1402.9
607.247,1379.8
607.778,1364.5
608.309,1340.9
608.84,1320.9
609.371,1312.8
609.902,1285.5
610.433,1271.2
610.964,1267.3
611.494,1252.7
612.025,1241.8
612.556,1239.1
613.086,1229.6
613.616,1220.0
614.147,1206.6
614.677,1194.7
615.207,1184.4
615.737,1178.5
616.267,1163.1
616.797,1164.4
617.327,1162.8
617.857,1153.9
618.387,1148.0
618.917,1140.6
619.446,1139.5
619.976,1131.7
620.505,1131.9
621.035,1130.4
621.564,1128.8
622.093,1142.8
622.623,1148.9
623.152,1117.9
623.681,1113.5
624.21,1106.2
624.739,1112.2
625.268,1114.2
625.797,1118.1
626.326,1132.7
626.855,1311.8
627.383,1641.8
627.912,1433.6
628.441,1606.9
628.969,1468.2
629.498,1391.8
630.026,1313.4
630.554,1299.8
631.083,1194.6
631.611,1147.3
632.139,1137.9
632.667,1132.0
633.195,1118.7
633.724,1127.8
634.252,1135.3
634.779,1126.1
635.307,1132.5
635.835,1140.2
636.363,1134.0
636.891,1153.1
637.418,1143.2
637.946,1154.1
638.474,1153.8
639.001,1156.2
639.529,1162.4
640.056,1161.9
640.583,1175.5
641.111,1178.7
641.638,1179.3
642.165,1185.1
642.692,1188.6
643.22,1193.3
643.747,1187.3
644.274,1190.3
644.801,1195.1
645.328,1194.4
645.854,1197.4
646.381,1202.6
646.908,1206.1
647.435,1197.6
647.962,1201.1
648.488,1196.5
649.015,1195.2
649.542,1199.0
650.068,1197.5
650.595,1198.6
651.121,1201.4
651.648,1199.1
652.174,1200.9
652.7,1203.7
653.227,1212.4
653.753,1206.0
654.279,1204.9
654.805,1202.0
655.331,1205.7
655.858,1193.6
656.384,1185.8
656.91,1191.8
657.436,1179.4
657.962,1169.2
658.488,1170.4
659.013,1154.8
659.539,1146.2
660.065,1138.3
660.591,1121.4
661.117,1108.6
661.642,1099.3
662.168,1088.8
662.694,1083.5
663.088,1078.6

File: VLFR_01-LDPE_nobio_Raman_28bdde73.csv
nm,Intensity
526.486,829.8
527.033,831.5
527.579,830.2
528.126,830.1
528.672,831.1
529.219,829.5
529.765,830.9
530.311,830.0
530.857,830.2
531.403,830.3
531.948,833.3
532.494,832.0
533.039,829.9
533.585,831.1
534.13,897.0
534.675,887.2
535.22,874.3
535.764,863.5
536.309,855.4
536.854,851.8
537.398,853.6
537.942,852.3
538.486,850.5
539.03,846.2
539.574,843.3
540.118,845.1
540.662,842.8
541.205,843.0
541.749,842.8
542.292,842.0
542.835,840.2
543.378,840.4
543.921,838.8
544.464,842.8
545.006,840.5
545.549,840.9
546.091,839.5
546.634,837.5
547.176,838.8
547.718,840.2
548.26,840.7
548.802,841.3
549.343,839.5
549.885,841.3
550.426,838.1
550.968,838.9
551.509,842.4
552.05,840.9
552.591,839.9
553.132,842.2
553.673,844.3
554.214,844.6
554.754,842.3
555.295,844.1
555.835,847.1
556.375,845.6
556.915,850.0
557.455,850.4
557.995,853.1
558.535,854.1
559.075,852.6
559.614,852.5
560.154,850.9
560.693,850.8
561.232,849.3
561.772,850.2
562.311,852.0
562.85,853.8
563.388,857.4
563.927,939.9
564.466,880.2
565.004,875.0
565.543,870.3
566.081,1024.2
566.619,879.5
567.157,861.6
567.695,861.9
568.233,857.4
568.771,857.7
569.309,860.4
569.846,859.8
570.384,862.8
570.921,870.5
571.458,1003.3
571.995,893.1
572.532,871.2
573.069,862.7
573.606,862.6
574.143,877.3
574.68,861.6
575.216,874.2
575.753,986.7
576.289,996.9
576.825,950.8
577.361,923.1
577.897,888.5
578.433,885.8
578.969,884.1
579.505,888.4
580.041,886.2
580.576,889.4
581.112,892.2
581.647,895.8
582.183,900.7
582.718,897.1
583.253,901.3
583.788,905.6
584.323,905.3
584.858,904.1
585.392,904.1
585.927,908.8
586.462,910.3
586.996,911.3
587.53,916.5
588.065,914.5
588.599,917.4
589.133,916.4
589.667,918.2
590.201,920.6
590.735,920.4
591.268,925.3
591.802,927.5
592.335,929.2
592.869,927.6
593.402,929.6
593.936,935.2
594.469,935.8
595.002,938.0
595.535,936.4
596.068,934.6
596.601,936.5
597.133,937.2
597.666,938.9
598.199,939.0
598.731,945.7
599.264,946.7
599.796,948.9
600.328,945.2
600.86,945.6
601.393,943.3
601.925,945.6
602.457,946.4
602.988,943.6
603.52,940.9
604.052,942.5
604.583,935.6
605.115,942.0
605.646,934.2
606.178,930.0
606.709,930.4
607.24,926.9
607.771,927.7
608.302,929.5
608.833,927.4
609.364,924.2
609.895,919.2
610.426,923.3
610.957,924.2
611.487,923.8
612.018,917.4
612.548,921.3
613.078,918.4
613.609,915.1
614.139,917.2
614.669,911.7
615.199,913.2
615.729,913.8
616.259,911.9
616.789,911.3
617.319,915.3
617.849,913.4
618.378,915.4
618.908,912.4
619.437,918.2
619.967,915.8
620.496,918.0
621.025,918.3
621.555,928.1
622.084,950.6
622.613,947.3
623.142,920.0
623.671,910.9
624.2,907.3
624.729,912.7
625.258,911.1
625.786,917.7
626.315,948.8
626.844,1161.2
627.372,1660.0
627.901,1338.1
628.429,1462.5
628.957,1370.3
629.486,1286.2
630.014,1162.9
630.542,1143.1
631.07,1018.6
631.598,937.3
632.126,920.9
632.654,912.9
633.182,905.9
633.71,904.2
634.237,902.3
634.765,902.2
635.293,898.1
635.82,897.9
636.348,898.3
636.875,899.2
637.403,899.2
637.93,896.5
638.458,895.9
638.985,895.2
639.512,895.0
640.039,896.6
640.566,896.0
641.093,899.3
641.62,895.1
642.147,896.2
642.674,897.9
643.201,898.5
643.728,901.3
644.255,897.1
644.781,900.7
645.308,898.2
645.835,902.3
646.361,902.4
646.888,898.6
647.414,901.8
647.941,903.2
648.467,904.2
648.993,904.6
649.52,902.6
650.046,899.5
650.572,900.1
651.098,897.1
651.625,902.2
652.151,898.7
652.677,897.3
653.203,899.6
653.729,900.3
654.255,899.6
654.78,901.6
655.306,899.4
655.832,895.8
656.358,895.5
656.884,899.9
657.409,897.8
657.935,896.4
658.461,895.6
658.986,893.6
659.512,891.3
660.037,894.9
660.563,889.9
661.088,889.7
661.614,887.8
662.139,888.3
662.664,889.6
663.058,887.4

File: VLFR_01-LDPE_nobio_Raman_34b4cc09.csv
cm-1,Intensity
-123.878,1852.45
-105.821,1853.75
-87.8007,1851.85
-69.8161,1852.1
-51.8675,1852.05
-33.9547,1854.15
-16.0776,1876.05
1.76388,3040.7
19.5698,1855.45
37.3403,1854.4
55.0755,1930.15
72.7754,2153.25
90.4402,2135.5
108.07,2122.5
125.665,2116.55
143.225,2103.95
160.75,2091.45
178.241,2091.2
195.697,2103.25
213.119,2113.25
230.506,2125.4
247.859,2138.5
265.178,2093.25
282.463,2088.55
299.713,2068.65
316.93,2083.75
334.113,2094.55
351.263,2098.55
368.379,2110.0
385.461,2094.25
402.51,2084.3
419.526,2068.55
436.508,2077.0
453.458,2065.15
470.374,2081.15
487.257,2068.25
504.107,2076.5
520.925,2072.7
537.71,2075.25
554.462,2077.9
571.182,2069.45
587.87,2072.7
604.525,2077.9
621.148,2077.9
637.739,2090.45
654.297,2097.75
670.824,2096.95
687.319,2084.4
703.782,2069.25
720.213,2077.95
736.613,2082.2
752.981,2072.8
769.317,2086.85
785.623,2083.7
801.897,2089.65
818.139,2092.1
834.351,2096.6
850.532,2098.2
866.681,2098.5
882.8,2117.7
898.888,2100.1
914.945,2100.9
930.972,2098.95
946.968,2105.95
962.934,2108.3
978.869,2114.25
994.774,2111.85
1010.65,2113.9
1026.49,2143.4
1042.31,2138.85
1058.09,2256.35
1073.85,2209.25
1089.57,2198.45
1105.27,2174.85
1120.93,2227.75
1136.57,2232.25
1152.18,2175.1
1167.75,2185.8
1183.3,2169.2
1198.82,2187.7
1214.31,2185.7
1229.77,2202.05
1245.2,2208.2
1260.6,2235.6
1275.97,2249.05
1291.32,2456.25
1306.63,2365.25
1321.92,2296.15
1337.18,2284.25
1352.41,2279.8
1367.61,2288.1
1382.78,2273.8
1397.93,2281.45
1413.05,2349.9
1428.14,2429.7
1443.2,2578.05
1458.23,2486.95
1473.23,2388.55
1488.21,2355.4
1503.16,2343.9
1518.08,2352.9
1532.97,2381.7
1547.84,2389.2
1562.68,2378.7
1577.49,2380.65
1592.27,2411.4
1607.03,2435.85
1621.76,2452.8
1636.46,2445.7
1651.14,2429.3
1665.78,2426.85
1680.41,2426.6
1695.0,2424.6
1709.57,2439.2
1724.11,2420.75
1738.62,2445.0
1753.11,2418.6
1767.57,2439.75
1782.01,2408.45
1796.41,2409.15
1810.8,2416.25
1825.15,2398.25
1839.48,2411.2
1853.79,2430.15
1868.06,2418.1
1882.31,2411.15
1896.54,2424.1
1910.74,2413.25
1924.91,2415.05
1939.06,2414.1
1953.19,2409.65
1967.28,2427.25
1981.35,2423.1
1995.4,2428.55
2009.42,2439.85
2023.42,2448.6
2037.39,2449.55
2051.33,2463.3
2065.25,2478.25
2079.15,2474.15
2093.01,2468.25
2106.86,2502.9
2120.68,2477.2
2134.47,2498.6
2148.24,2496.9
2161.99,2482.85
2175.71,2496.95
2189.41,2503.0
2203.08,2471.25
2216.73,2456.8
2230.35,2455.45
2243.95,2445.4
2257.52,2441.15
2271.07,2414.9
2284.6,2400.2
2298.1,2397.95
2311.58,2386.6
2325.03,2364.6
2338.46,2343.65
2351.87,2340.5
2365.25,2341.2
2378.61,2325.15
2391.94,2325.6
2405.26,2326.25
2418.54,2318.2
2431.81,2339.0
2445.05,2310.65
2458.27,2294.4
2471.46,2297.1
2484.63,2289.1
2497.78,2289.2
2510.9,2290.15
2524.0,2283.45
2537.08,2271.1
2550.14,2273.7
2563.17,2282.0
2576.18,2279.1
2589.17,2293.9
2602.13,2309.55
2615.07,2295.7
2627.99,2287.1
2640.89,2299.15
2653.76,2316.55
2666.61,2300.75
2679.44,2303.05
2692.25,2324.5
2705.03,2374.95
2717.79,2429.95
2730.53,2389.5
2743.25,2324.45
2755.94,2311.5
2768.61,2299.5
2781.27,2313.65
2793.89,2330.55
2806.5,2343.5
2819.09,2398.55
2831.65,2659.55
2844.19,4107.3
2856.71,4069.25
2869.21,3617.45
2881.69,4502.45
2894.14,3733.05
2906.58,3494.25
2918.99,3267.15
2931.38,3129.15
2943.75,2783.95
2956.1,2492.75
2968.42,2414.6
2980.73,2359.9
2993.01,2327.8
3005.28,2331.45
3017.52,2301.9
3029.74,2309.2
3041.94,2305.85
3054.12,2282.9
3066.28,2277.15
3078.42,2269.45
3090.54,2274.75
3102.63,2261.05
3114.71,2251.25
3126.77,2238.9
3138.8,2235.2
3150.82,2221.5
3162.81,2232.9
3174.78,2230.25
3186.74,2202.0
3198.67,2219.55
3210.58,2208.25
3222.47,2197.05
3234.35,2212.7
3246.2,2206.3
3258.03,2211.6
3269.84,2208.85
3281.64,2201.1
3293.41,2187.1
3305.16,2184.3
3316.89,2181.4
3328.61,2186.7
3340.3,2174.95
3351.97,2176.65
3363.63,2188.2
3375.26,2175.3
3386.88,2165.8
3398.47,2164.7
3410.05,2158.5
3421.6,2160.65
3433.14,2157.1
3444.66,2154.5
3456.15,2158.4
3467.63,2148.75
3479.09,2150.85
3490.53,2136.85
3501.96,2140.2
3513.36,2128.55
3524.74,2144.4
3536.11,2131.2
3547.45,2123.05
3558.78,2109.3
3570.09,2120.95
3581.37,2117.3
3592.64,2115.05
3603.9,2100.85
3615.13,2092.0
3626.34,2075.6
3637.54,2078.4
3648.72,2082.25
3659.87,2067.9
3665.45,2074.7

File: VLFR_01-LDPE_nobio_Raman_42a36991.csv
nm,Intensity
526.486,829.1
527.033,828.4
527.579,828.5
528.126,829.6
528.672,830.5
529.219,829.3
529.765,829.5
530.311,827.8
530.857,829.3
531.403,828.7
531.948,835.0
532.494,831.6
533.039,830.5
533.585,829.4
534.13,902.4
534.675,894.2
535.22,886.5
535.764,880.3
536.309,871.3
536.854,871.2
537.398,873.4
537.942,871.4
538.486,868.9
539.03,870.5
539.574,868.7
540.118,866.9
540.662,865.6
541.205,862.6
541.749,864.2
542.292,863.9
542.835,864.4
543.378,868.8
543.921,863.4
544.464,864.3
545.006,864.2
545.549,862.8
546.091,861.5
546.634,863.1
547.176,866.2
547.718,861.6
548.26,863.6
548.802,862.9
549.343,863.7
549.885,864.3
550.426,861.6
550.968,861.2
551.509,861.8
552.05,863.2
552.591,864.6
553.132,863.6
553.673,868.1
554.214,863.5
554.754,868.2
555.295,865.9
555.835,869.1
556.375,868.6
556.915,874.5
557.455,877.7
557.995,875.7
558.535,877.4
559.075,881.5
559.614,878.2
560.154,878.9
560.693,878.7
561.232,879.1
561.772,881.1
562.311,889.4
562.85,887.9
563.388,893.0
563.927,931.2
564.466,912.8
565.004,914.5
565.543,912.0
566.081,965.8
566.619,924.0
567.157,913.8
567.695,921.1
568.233,921.4
568.771,926.3
569.309,934.0
569.846,943.3
570.384,951.7
570.921,962.6
571.458,1030.9
571.995,1010.6
572.532,999.8
573.069,1007.5
573.606,1025.8
574.143,1051.3
574.68,1054.0
575.216,1092.0
575.753,1154.0
576.289,1238.7
576.825,1237.9
577.361,1262.2
577.897,1282.6
578.433,1329.5
578.969,1376.8
579.505,1433.4
580.041,1486.5
580.576,1535.2
581.112,1566.4
581.647,1607.3
582.183,1667.3
582.718,1681.0
583.253,1726.8
583.788,1725.5
584.323,1752.9
584.858,1771.1
585.392,1786.0
585.927,1808.6
586.462,1833.7
586.996,1857.9
587.53,1872.4
588.065,1898.6
588.599,1897.9
589.133,1924.7
589.667,1928.0
590.201,1975.0
590.735,1992.3
591.268,2021.3
591.802,2025.6
592.335,2034.5
592.869,2050.7
593.402,2039.6
593.936,2060.9
594.469,2067.4
595.002,2079.0
595.535,2111.2
596.068,2117.9
596.601,2122.0
597.133,2161.8
597.666,2188.3
598.199,2223.8
598.731,2261.8
599.264,2281.2
599.796,2296.0
600.328,2289.3
600.86,2304.0
601.393,2288.6
601.925,2265.1
602.457,2248.6
602.988,2204.0
603.52,2177.9
604.052,2127.8
604.583,2065.8
605.115,2018.7
605.646,1954.3
606.178,1900.0
606.709,1848.5
607.24,1803.7
607.771,1780.1
608.302,1741.0
608.833,1719.1
609.364,1681.2
609.895,1650.9
610.426,1641.6
610.957,1604.5
611.487,1606.3
612.018,1574.3
612.548,1549.8
613.078,1557.1
613.609,1524.8
614.139,1530.3
614.669,1502.9
615.199,1488.7
615.729,1464.8
616.259,1453.2
616.789,1445.0
617.319,1445.3
617.849,1426.3
618.378,1428.8
618.908,1409.0
619.437,1401.5
619.967,1391.1
620.496,1386.1
621.025,1399.9
621.555,1392.8
622.084,1416.9
622.613,1417.5
623.142,1395.8
623.671,1401.7
624.2,1397.0
624.729,1406.8
625.258,1399.6
625.786,1420.8
626.315,1431.7
626.844,1567.1
627.372,1909.5
627.901,1723.9
628.429,1825.1
628.957,1810.4
629.486,1736.7
630.014,1676.3
630.542,1668.5
631.07,1585.0
631.598,1524.9
632.126,1505.5
632.654,1493.5
633.182,1501.7
633.71,1500.0
634.237,1493.9
634.765,1498.6
635.293,1501.3
635.82,1500.9
636.348,1506.9
636.875,1497.7
637.403,1495.3
637.93,1498.0
638.458,1500.8
638.985,1496.5
639.512,1500.2
640.039,1495.9
640.566,1507.9
641.093,1499.2
641.62,1512.8
642.147,1512.5
642.674,1499.8
643.201,1502.3
643.728,1507.3
644.255,1493.8
644.781,1496.3
645.308,1493.3
645.835,1490.4
646.361,1499.2
646.888,1488.1
647.414,1489.6
647.941,1496.2
648.467,1480.2
648.993,1475.1
649.52,1468.9
650.046,1475.4
650.572,1459.0
651.098,1465.0
651.625,1471.9
652.151,1472.1
652.677,1467.1
653.203,1469.7
653.729,1460.4
654.255,1457.5
654.78,1448.9
655.306,1446.3
655.832,1440.9
656.358,1438.4
656.884,1419.3
657.409,1401.3
657.935,1399.2
658.461,1377.6
658.986,1365.5
659.512,1352.2
660.037,1324.4
660.563,1310.6
661.088,1286.2
661.614,1267.0
662.139,1249.0
662.664,1235.9
663.058,1225.6

File: VLFR_01-LDPE_nobio_Raman_56db6c7b.csv
nm,Intensity
526.486,829.9
527.033,830.3
527.579,830.5
528.126,830.6
528.672,828.3
529.219,829.7
529.765,829.5
530.311,829.7
530.857,829.6
531.403,830.3
531.948,831.0
532.494,830.0
533.039,829.4
533.585,829.9
534.13,900.3
534.675,889.6
535.22,877.7
535.764,866.9
536.309,859.4
536.854,856.1
537.398,853.4
537.942,856.4
538.486,853.4
539.03,853.1
539.574,850.6
540.118,848.6
540.662,850.0
541.205,844.8
541.749,848.0
542.292,845.4
542.835,848.4
543.378,845.1
543.921,845.3
544.464,843.5
545.006,844.9
545.549,844.4
546.091,844.0
546.634,844.2
547.176,845.8
547.718,843.9
548.26,843.0
548.802,844.9
549.343,845.1
549.885,842.6
550.426,842.4
550.968,842.7
551.509,844.8
552.05,846.6
552.591,842.6
553.132,846.3
553.673,845.4
554.214,846.2
554.754,846.6
555.295,847.3
555.835,847.8
556.375,851.2
556.915,851.1
557.455,853.0
557.995,853.5
558.535,855.0
559.075,853.3
559.614,852.2
560.154,850.3
560.693,850.6
561.232,852.7
561.772,850.2
562.311,853.7
562.85,855.5
563.388,858.1
563.927,897.7
564.466,872.8
565.004,869.9
565.543,862.7
566.081,901.5
566.619,865.5
567.157,859.2
567.695,862.7
568.233,856.8
568.771,854.4
569.309,855.2
569.846,857.6
570.384,860.8
570.921,863.6
571.458,931.0
571.995,893.1
572.532,868.1
573.069,860.3
573.606,862.4
574.143,867.5
574.68,861.7
575.216,861.8
575.753,896.8
576.289,980.1
576.825,935.5
577.361,912.9
577.897,876.0
578.433,875.6
578.969,878.4
579.505,876.4
580.041,878.5
580.576,882.4
581.112,882.0
581.647,884.5
582.183,889.9
582.718,891.5
583.253,889.6
583.788,894.1
584.323,896.2
584.858,898.4
585.392,897.4
585.927,904.4
586.462,901.7
586.996,907.0
587.53,909.5
588.065,912.5
588.599,914.0
589.133,917.6
589.667,916.8
590.201,922.0
590.735,927.1
591.268,931.0
591.802,935.4
592.335,935.7
592.869,944.6
593.402,950.2
593.936,953.8
594.469,959.3
595.002,967.4
595.535,979.9
596.068,982.2
596.601,996.0
597.133,1008.6
597.666,1015.2
598.199,1022.2
598.731,1030.6
599.264,1036.2
599.796,1038.2
600.328,1042.9
600.86,1039.2
601.393,1038.6
601.925,1041.0
602.457,1032.5
602.988,1032.8
603.52,1026.3
604.052,1019.9
604.583,1014.9
605.115,996.8
605.646,994.7
606.178,984.0
606.709,977.4
607.24,963.8
607.771,963.4
608.302,960.2
608.833,953.6
609.364,951.1
609.895,950.7
610.426,942.7
610.957,943.7
611.487,939.8
612.018,940.1
612.548,936.9
613.078,930.1
613.609,930.0
614.139,927.5
614.669,929.1
615.199,926.4
615.729,920.1
616.259,921.9
616.789,922.4
617.319,927.6
617.849,923.7
618.378,917.6
618.908,918.5
619.437,921.0
619.967,924.8
620.496,922.1
621.025,922.7
621.555,932.1
622.084,952.9
622.613,951.3
623.142,923.9
623.671,916.8
624.2,913.5
624.729,912.3
625.258,912.0
625.786,919.8
626.315,939.6
626.844,1137.3
627.372,1574.8
627.901,1300.2
628.429,1456.2
628.957,1353.9
629.486,1261.6
630.014,1148.7
630.542,1131.9
631.07,1021.5
631.598,950.6
632.126,926.1
632.654,912.1
633.182,907.1
633.71,903.9
634.237,899.9
634.765,897.9
635.293,898.9
635.82,895.7
636.348,899.3
636.875,895.4
637.403,894.8
637.93,894.8
638.458,894.9
638.985,897.6
639.512,892.0
640.039,891.9
640.566,897.5
641.093,897.5
641.62,897.7
642.147,897.7
642.674,899.0
643.201,898.1
643.728,900.3
644.255,900.2
644.781,903.8
645.308,902.4
645.835,904.2
646.361,905.2
646.888,905.8
647.414,908.6
647.941,910.8
648.467,908.5
648.993,910.9
649.52,911.5
650.046,915.8
650.572,915.5
651.098,916.1
651.625,918.6
652.151,916.9
652.677,921.8
653.203,922.6
653.729,920.8
654.255,919.5
654.78,922.0
655.306,919.4
655.832,915.5
656.358,914.8
656.884,918.7
657.409,915.4
657.935,915.9
658.461,912.0
658.986,907.9
659.512,906.4
660.037,907.8
660.563,900.3
661.088,896.5
661.614,895.0
662.139,894.9
662.664,887.7
663.058,888.3

File: VLFR_01-LDPE_nobio_Raman_59dc1f12.csv
nm,Intensity
526.486,829.4
527.033,829.8
527.579,829.9
528.126,830.7
528.672,829.9
529.219,831.0
529.765,830.2
530.311,830.0
530.857,829.1
531.403,829.0
531.948,830.4
532.494,829.0
533.039,830.8
533.585,830.2
534.13,917.8
534.675,904.5
535.22,891.0
535.764,877.9
536.309,873.6
536.854,870.3
537.398,866.7
537.942,868.1
538.486,863.3
539.03,863.2
539.574,860.8
540.118,860.2
540.662,858.6
541.205,857.9
541.749,857.4
542.292,856.2
542.835,855.3
543.378,854.6
543.921,859.7
544.464,854.4
545.006,852.1
545.549,853.6
546.091,852.8
546.634,854.0
547.176,851.3
547.718,853.1
548.26,852.3
548.802,850.6
549.343,850.1
549.885,849.7
550.426,851.3
550.968,850.3
551.509,853.4
552.05,851.6
552.591,852.4
553.132,852.3
553.673,851.6
554.214,853.6
554.754,853.7
555.295,854.7
555.835,855.0
556.375,857.3
556.915,859.4
557.455,861.4
557.995,860.6
558.535,864.5
559.075,860.6
559.614,858.7
560.154,858.7
560.693,860.3
561.232,860.4
561.772,857.8
562.311,859.7
562.85,864.9
563.388,864.9
563.927,911.8
564.466,884.2
565.004,881.8
565.543,871.5
566.081,915.5
566.619,874.6
567.157,869.1
567.695,872.4
568.233,864.8
568.771,865.7
569.309,867.2
569.846,867.2
570.384,871.1
570.921,877.9
571.458,943.9
571.995,902.7
572.532,881.2
573.069,873.5
573.606,877.3
574.143,879.7
574.68,871.0
575.216,876.9
575.753,910.6
576.289,1000.8
576.825,958.6
577.361,924.6
577.897,885.4
578.433,881.2
578.969,885.8
579.505,883.4
580.041,887.1
580.576,884.8
581.112,888.8
581.647,891.3
582.183,894.8
582.718,896.7
583.253,898.4
583.788,900.4
584.323,903.5
584.858,906.7
585.392,908.4
585.927,917.1
586.462,923.0
586.996,927.5
587.53,929.6
588.065,936.2
588.599,942.3
589.133,948.1
589.667,952.0
590.201,960.0
590.735,969.0
591.268,972.2
591.802,981.3
592.335,981.1
592.869,990.7
593.402,996.8
593.936,1007.8
594.469,1012.3
595.002,1028.2
595.535,1044.1
596.068,1051.8
596.601,1073.5
597.133,1077.3
597.666,1097.7
598.199,1117.2
598.731,1130.2
599.264,1143.7
599.796,1148.4
600.328,1149.2
600.86,1158.7
601.393,1154.4
601.925,1154.2
602.457,1152.2
602.988,1141.0
603.52,1142.2
604.052,1130.8
604.583,1109.6
605.115,1099.4
605.646,1080.9
606.178,1069.7
606.709,1061.7
607.24,1048.8
607.771,1047.0
608.302,1031.7
608.833,1031.0
609.364,1020.3
609.895,1015.7
610.426,1013.9
610.957,1009.2
611.487,1002.4
612.018,999.4
612.548,997.1
613.078,995.9
613.609,990.0
614.139,983.6
614.669,983.6
615.199,977.3
615.729,982.1
616.259,974.4
616.789,974.3
617.319,976.0
617.849,970.7
618.378,969.9
618.908,967.7
619.437,969.0
619.967,968.5
620.496,964.7
621.025,964.5
621.555,978.1
622.084,998.6
622.613,997.7
623.142,963.6
623.671,958.3
624.2,955.9
624.729,952.1
625.258,950.6
625.786,956.7
626.315,985.6
626.844,1198.1
627.372,1711.7
627.901,1400.2
628.429,1566.8
628.957,1430.1
629.486,1329.1
630.014,1224.3
630.542,1193.8
631.07,1066.2
631.598,975.3
632.126,954.0
632.654,938.5
633.182,933.4
633.71,930.2
634.237,926.8
634.765,919.9
635.293,923.0
635.82,921.7
636.348,920.7
636.875,922.5
637.403,924.5
637.93,920.5
638.458,922.5
638.985,923.9
639.512,922.6
640.039,927.2
640.566,927.9
641.093,930.7
641.62,933.8
642.147,935.7
642.674,937.8
643.201,935.1
643.728,938.2
644.255,938.9
644.781,940.1
645.308,937.7
645.835,945.0
646.361,945.3
646.888,949.8
647.414,948.0
647.941,949.6
648.467,954.1
648.993,957.9
649.52,957.9
650.046,960.6
650.572,959.7
651.098,961.6
651.625,963.9
652.151,963.5
652.677,970.2
653.203,972.1
653.729,972.5
654.255,975.4
654.78,976.6
655.306,973.1
655.832,974.1
656.358,968.3
656.884,968.8
657.409,964.6
657.935,964.0
658.461,957.6
658.986,956.5
659.512,956.6
660.037,951.0
660.563,948.5
661.088,942.1
661.614,936.6
662.139,926.1
662.664,928.6
663.058,921.5