Folder: MPX_specDB/spectra (part 52)

File: VLFR_02-HDPE_bio_Raman_ecbfc5a2.csv
nm,Intensity
526.494,835.5
527.041,834.3
527.588,833.7
528.135,833.7
528.682,836.2
529.229,834.3
529.775,835.2
530.321,835.0
530.868,835.0
531.414,836.9
531.96,847.7
532.506,836.9
533.051,835.5
533.597,834.1
534.142,897.4
534.687,899.3
535.232,895.4
535.777,867.8
536.322,857.4
536.867,856.4
537.411,855.1
537.956,855.4
538.5,852.4
539.044,851.8
539.588,851.5
540.132,849.4
540.676,848.1
541.22,848.3
541.763,848.0
542.306,850.8
542.85,848.0
543.393,850.9
543.936,846.9
544.479,848.1
545.021,848.8
545.564,848.2
546.106,848.5
546.649,849.0
547.191,850.1
547.733,850.4
548.275,850.8
548.817,847.4
549.359,848.1
549.9,849.7
550.442,849.7
550.983,848.6
551.524,848.9
552.066,849.0
552.607,849.9
553.148,850.6
553.688,851.9
554.229,852.0
554.77,852.5
555.31,854.7
555.85,853.3
556.39,851.9
556.931,855.3
557.471,857.0
558.01,857.4
558.55,858.1
559.09,855.3
559.629,856.1
560.169,853.7
560.708,856.7
561.247,854.6
561.786,854.5
562.325,855.0
562.864,859.1
563.403,862.2
563.941,934.2
564.48,874.3
565.018,869.5
565.557,864.2
566.095,911.8
566.633,866.8
567.171,864.5
567.709,869.8
568.247,860.2
568.784,860.2
569.322,858.6
569.859,862.0
570.397,863.8
570.934,870.8
571.471,981.2
572.008,880.4
572.545,867.2
573.082,858.9
573.619,863.9
574.155,869.2
574.692,860.2
575.228,865.7
575.765,893.7
576.301,990.9
576.837,933.5
577.373,907.7
577.909,870.3
578.445,862.6
578.981,862.9
579.516,861.9
580.052,862.4
580.587,860.9
581.123,862.5
581.658,861.3
582.193,862.1
582.728,861.4
583.263,861.2
583.798,861.0
584.333,862.7
584.868,862.5
585.402,863.3
585.937,863.8
586.471,863.0
587.005,864.6
587.54,863.4
588.074,866.7
588.608,864.5
589.142,866.8
589.676,864.2
590.21,864.6
590.743,867.2
591.277,867.7
591.81,865.9
592.344,865.8
592.877,866.5
593.411,868.2
593.944,869.9
594.477,870.7
595.01,871.2
595.543,870.3
596.076,873.4
596.608,874.6
597.141,870.3
597.674,873.2
598.206,872.7
598.739,875.9
599.271,874.9
599.803,875.9
600.335,875.6
600.868,877.5
601.4,874.2
601.931,880.3
602.463,878.5
602.995,877.8
603.527,878.8
604.058,876.4
604.59,875.1
605.121,876.3
605.653,876.8
606.184,875.1
606.715,876.3
607.246,872.0
607.778,871.4
608.309,873.9
608.839,874.2
609.37,873.4
609.901,873.6
610.432,874.8
610.962,873.8
611.493,876.0
612.023,873.2
612.554,873.8
613.084,874.5
613.614,874.2
614.145,875.4
614.675,874.3
615.205,875.4
615.735,875.7
616.265,876.0
616.795,878.8
617.324,885.5
617.854,887.2
618.384,887.1
618.913,887.6
619.443,888.7
619.972,892.1
620.502,889.7
621.031,898.5
621.56,915.8
622.089,958.9
622.618,950.7
623.147,904.3
623.676,894.4
624.205,891.9
624.734,893.3
625.263,897.2
625.792,905.8
626.32,952.4
626.849,1355.3
627.377,1980.0
627.906,1509.3
628.434,1955.5
628.963,1433.3
629.491,1298.5
630.019,1172.1
630.547,1145.1
631.076,998.9
631.604,915.0
632.132,899.0
632.66,889.8
633.188,887.4
633.715,886.2
634.243,879.9
634.771,878.8
635.299,875.4
635.826,871.5
636.354,874.7
636.881,873.5
637.409,868.6
637.936,869.7
638.464,865.7
638.991,867.8
639.518,866.4
640.045,865.2
640.573,866.6
641.1,865.9
641.627,864.5
642.154,866.6
642.681,863.8
643.208,865.5
643.735,863.9
644.261,862.3
644.788,862.3
645.315,864.4
645.842,865.0
646.368,862.3
646.895,864.9
647.421,862.8
647.948,866.5
648.474,867.2
649.001,863.3
649.527,862.1
650.054,864.9
650.58,864.9
651.106,863.8
651.633,862.4
652.159,865.0
652.685,864.2
653.211,862.5
653.737,862.0
654.263,862.5
654.789,862.8
655.315,863.7
655.841,861.7
656.367,862.9
656.893,863.2
657.419,862.6
657.945,863.9
658.47,865.6
658.996,861.3
659.522,859.8
660.047,866.8
660.573,863.4
661.099,860.5
661.624,861.5
662.15,859.3
662.675,861.9
663.07,860.1

File: VLFR_02-HDPE_bio_Raman_edd6a363.csv
nm,Intensity
526.495,831.6
527.042,828.7
527.589,829.3
528.136,831.0
528.682,827.8
529.229,828.2
529.775,829.3
530.321,829.6
530.867,831.1
531.413,828.4
531.959,830.8
532.505,830.2
533.051,829.5
533.596,829.9
534.141,864.1
534.687,861.8
535.232,853.5
535.777,851.4
536.321,846.0
536.866,848.1
537.41,845.2
537.955,845.5
538.499,845.5
539.043,843.7
539.587,843.7
540.131,842.4
540.675,839.7
541.219,841.0
541.762,841.3
542.305,841.6
542.849,841.6
543.392,841.2
543.935,840.1
544.478,840.3
545.02,838.3
545.563,840.2
546.106,842.0
546.648,841.0
547.19,837.5
547.732,837.7
548.274,838.9
548.816,838.6
549.358,838.0
549.9,837.9
550.441,839.0
550.983,839.1
551.524,838.3
552.065,840.0
552.606,838.0
553.147,841.3
553.688,840.1
554.229,842.8
554.769,839.8
555.31,841.9
555.85,842.1
556.391,844.0
556.931,842.9
557.471,844.2
558.011,847.4
558.551,845.2
559.09,845.2
559.63,843.3
560.169,843.4
560.709,843.5
561.248,844.6
561.787,844.3
562.326,847.3
562.865,847.0
563.404,848.5
563.943,871.4
564.481,858.0
565.02,852.8
565.558,852.3
566.096,873.8
566.634,852.2
567.172,851.6
567.71,852.3
568.248,850.6
568.786,852.0
569.324,852.6
569.861,852.6
570.399,853.0
570.936,859.6
571.473,892.2
572.01,868.8
572.547,862.2
573.084,859.7
573.621,859.6
574.158,861.9
574.694,862.9
575.231,865.4
575.767,879.5
576.303,928.6
576.84,902.5
577.376,891.8
577.912,878.9
578.448,881.0
578.984,881.8
579.519,886.5
580.055,890.2
580.59,895.6
581.126,897.1
581.661,901.7
582.196,902.5
582.731,912.6
583.267,914.6
583.801,918.3
584.336,929.9
584.871,930.2
585.406,938.0
585.94,945.7
586.475,950.0
587.009,958.6
587.543,961.8
588.078,969.4
588.612,975.0
589.146,986.6
589.68,986.1
590.214,1003.4
590.747,1001.2
591.281,1009.6
591.815,1011.5
592.348,1020.1
592.881,1027.5
593.415,1032.2
593.948,1040.2
594.481,1047.9
595.014,1053.2
595.547,1066.5
596.08,1067.9
596.613,1082.7
597.146,1087.0
597.678,1103.0
598.211,1114.8
598.743,1124.9
599.276,1136.8
599.808,1134.3
600.34,1138.8
600.872,1133.6
601.404,1133.0
601.936,1141.0
602.468,1129.6
603.0,1122.3
603.532,1118.9
604.064,1103.3
604.595,1094.3
605.127,1087.2
605.658,1066.5
606.189,1065.6
606.721,1043.8
607.252,1033.3
607.783,1031.8
608.314,1020.3
608.845,1018.7
609.376,1016.9
609.907,1010.4
610.438,997.9
610.968,996.6
611.499,998.7
612.029,989.2
612.56,987.3
613.09,985.4
613.621,984.1
614.151,978.6
614.681,971.7
615.211,971.5
615.741,968.9
616.271,961.2
616.801,966.5
617.331,965.9
617.861,962.8
618.39,960.7
618.92,958.2
619.45,953.1
619.979,955.6
620.509,951.0
621.038,953.7
621.567,955.4
622.096,964.1
622.626,967.8
623.155,948.0
623.684,947.0
624.213,945.1
624.742,942.6
625.271,941.5
625.799,948.7
626.328,956.7
626.857,1072.7
627.386,1282.5
627.914,1149.9
628.443,1237.8
628.971,1166.8
629.5,1125.1
630.028,1070.3
630.556,1056.8
631.084,994.0
631.613,961.3
632.141,947.1
632.669,942.8
633.197,939.6
633.725,937.2
634.253,933.8
634.781,940.3
635.308,940.7
635.836,942.8
636.364,940.6
636.891,941.4
637.419,942.1
637.947,943.4
638.474,947.6
639.002,942.2
639.529,946.5
640.056,948.6
640.584,954.8
641.111,953.2
641.638,957.0
642.165,954.8
642.692,959.7
643.219,959.9
643.746,961.1
644.273,961.4
644.8,958.1
645.327,963.8
645.854,963.1
646.381,965.7
646.908,968.3
647.434,968.4
647.961,970.8
648.488,967.2
649.014,972.7
649.541,971.6
650.067,976.2
650.594,971.7
651.12,974.5
651.646,980.2
652.173,976.1
652.699,977.3
653.225,982.3
653.752,986.9
654.278,987.7
654.804,979.9
655.33,979.1
655.856,978.7
656.382,975.5
656.908,974.8
657.434,976.6
657.96,967.6
658.486,969.3
659.012,965.2
659.538,962.7
660.064,955.6
660.589,952.7
661.115,950.9
661.641,942.9
662.166,941.9
662.692,933.8
663.086,933.2

File: VLFR_02-HDPE_bio_Raman_edf70904.csv
nm,Intensity
526.508,830.9
527.055,830.9
527.602,830.2
528.149,829.3
528.695,830.4
529.241,830.3
529.787,828.8
530.334,828.7
530.879,831.5
531.425,829.8
531.971,835.3
532.516,831.7
533.062,829.0
533.607,829.9
534.152,875.6
534.697,867.0
535.242,862.8
535.786,854.0
536.331,848.5
536.876,846.1
537.42,845.6
537.964,846.9
538.508,843.7
539.052,842.5
539.596,840.6
540.14,839.9
540.683,841.2
541.227,839.7
541.77,839.4
542.313,839.8
542.856,841.4
543.399,840.3
543.942,839.2
544.485,840.9
545.027,839.9
545.57,839.0
546.112,840.4
546.654,840.8
547.196,841.7
547.738,841.5
548.28,841.5
548.822,841.5
549.363,841.1
549.905,841.9
550.446,841.2
550.988,841.9
551.529,838.9
552.07,840.3
552.611,842.5
553.152,843.9
553.692,842.5
554.233,842.9
554.773,846.5
555.314,843.6
555.854,845.0
556.394,843.6
556.934,844.5
557.474,848.7
558.014,847.4
558.553,850.5
559.093,849.0
559.632,848.3
560.172,848.7
560.711,847.8
561.25,848.0
561.789,850.6
562.328,852.5
562.867,850.8
563.406,852.0
563.944,908.1
564.483,868.5
565.021,863.9
565.559,862.4
566.098,924.3
566.636,867.5
567.174,861.2
567.711,865.6
568.249,862.2
568.787,862.0
569.324,863.4
569.862,866.5
570.399,867.9
570.936,878.1
571.474,970.0
572.011,891.1
572.548,880.9
573.084,882.4
573.621,888.0
574.158,900.4
574.694,896.7
575.231,907.4
575.767,940.2
576.303,1014.4
576.84,985.4
577.376,976.5
577.912,959.1
578.447,967.1
578.983,980.2
579.519,1001.4
580.054,1012.3
580.59,1030.3
581.125,1048.9
581.661,1057.9
582.196,1082.5
582.731,1097.5
583.266,1124.0
583.801,1140.5
584.336,1158.6
584.87,1170.3
585.405,1183.5
585.94,1190.8
586.474,1205.3
587.008,1216.9
587.543,1224.6
588.077,1225.1
588.611,1229.5
589.145,1234.1
589.679,1242.8
590.213,1259.6
590.747,1252.9
591.28,1260.1
591.814,1254.9
592.347,1254.8
592.881,1246.8
593.414,1248.7
593.947,1241.5
594.48,1253.1
595.014,1251.8
595.547,1259.0
596.079,1256.2
596.612,1265.3
597.145,1271.3
597.678,1266.4
598.21,1274.3
598.743,1270.5
599.275,1271.0
599.807,1267.3
600.34,1271.3
600.872,1265.3
601.404,1263.7
601.936,1267.0
602.468,1269.4
603.0,1265.8
603.532,1259.6
604.063,1248.7
604.595,1250.4
605.126,1224.8
605.658,1214.5
606.189,1207.0
606.721,1191.9
607.252,1193.8
607.783,1193.2
608.314,1182.2
608.845,1177.7
609.376,1165.5
609.907,1158.5
610.438,1148.2
610.968,1140.4
611.499,1131.5
612.03,1124.1
612.56,1123.8
613.091,1123.5
613.621,1115.4
614.151,1112.1
614.681,1102.2
615.212,1099.6
615.742,1103.7
616.272,1090.9
616.802,1083.8
617.332,1085.0
617.861,1081.8
618.391,1080.1
618.921,1067.4
619.45,1070.2
619.98,1064.1
620.509,1069.6
621.039,1062.5
621.568,1075.0
622.097,1092.6
622.627,1087.5
623.156,1069.8
623.685,1063.8
624.214,1061.8
624.743,1061.7
625.272,1062.0
625.801,1070.9
626.33,1094.2
626.858,1289.9
627.387,1615.8
627.916,1387.4
628.444,1559.0
628.973,1401.4
629.501,1325.1
630.029,1252.9
630.558,1230.9
631.086,1158.8
631.614,1105.2
632.142,1100.7
632.67,1093.8
633.198,1098.2
633.726,1099.2
634.254,1099.4
634.782,1101.9
635.31,1100.0
635.838,1107.3
636.365,1110.4
636.893,1110.9
637.421,1115.5
637.948,1108.1
638.476,1107.5
639.003,1111.6
639.531,1104.1
640.058,1108.2
640.585,1105.3
641.113,1103.4
641.64,1104.2
642.167,1110.4
642.694,1100.5
643.221,1092.7
643.748,1091.6
644.275,1093.8
644.802,1087.8
645.329,1077.1
645.856,1077.8
646.382,1079.5
646.909,1077.9
647.436,1079.4
647.962,1072.8
648.489,1065.6
649.016,1068.7
649.542,1061.9
650.069,1055.2
650.595,1057.2
651.121,1059.6
651.648,1051.6
652.174,1049.8
652.7,1051.5
653.227,1044.4
653.753,1040.7
654.279,1035.3
654.805,1040.1
655.331,1030.0
655.857,1027.5
656.383,1026.7
656.909,1030.4
657.435,1021.5
657.961,1028.7
658.487,1026.2
659.013,1022.1
659.538,1011.5
660.064,1013.4
660.59,1011.4
661.116,1001.7
661.641,998.3
662.167,996.9
662.692,987.7
663.087,991.1

File: VLFR_02-HDPE_bio_Raman_eeeef97e.csv
nm,Intensity
526.547,832.9
527.095,832.1
527.642,831.4
528.189,831.8
528.736,832.75
529.283,831.9
529.829,832.35
530.376,832.75
530.922,832.35
531.468,832.45
532.014,845.45
532.56,832.5
533.106,833.3
533.651,832.65
534.196,860.0
534.742,858.3
535.287,855.35
535.832,850.75
536.376,850.85
536.921,847.55
537.465,849.5
538.01,850.3
538.554,849.9
539.098,849.2
539.642,850.65
540.186,849.7
540.729,848.2
541.273,848.05
541.816,848.7
542.36,850.35
542.903,850.5
543.446,850.2
543.988,849.75
544.531,851.0
545.074,852.6
545.616,850.8
546.158,850.35
546.701,849.7
547.243,850.9
547.785,850.1
548.326,849.7
548.868,851.9
549.41,851.7
549.951,852.0
550.492,853.3
551.034,852.35
551.575,850.65
552.116,851.95
552.656,849.6
553.197,852.4
553.738,851.25
554.278,852.6
554.819,853.65
555.359,852.6
555.899,852.55
556.439,853.3
556.979,852.2
557.519,854.8
558.058,854.0
558.598,854.15
559.137,853.5
559.677,854.75
560.216,855.1
560.755,855.6
561.294,859.6
561.833,867.6
562.371,856.35
562.91,856.05
563.449,857.35
563.987,879.3
564.525,862.3
565.064,861.7
565.602,860.1
566.14,891.4
566.678,864.55
567.216,862.6
567.753,858.95
568.291,859.05
568.828,858.6
569.366,860.85
569.903,859.15
570.44,859.5
570.977,859.4
571.514,897.9
572.051,862.2
572.588,860.95
573.125,860.9
573.661,859.6
574.198,862.45
574.734,860.95
575.271,862.65
575.807,873.05
576.343,888.55
576.879,877.65
577.415,871.25
577.951,864.4
578.486,863.85
579.022,862.4
579.557,863.2
580.093,863.75
580.628,863.65
581.164,862.9
581.699,863.25
582.234,866.25
582.769,864.15
583.304,866.05
583.838,866.05
584.373,866.0
584.908,866.4
585.442,866.7
585.977,864.55
586.511,868.4
587.045,868.15
587.58,867.5
588.114,867.6
588.648,866.95
589.182,869.15
589.715,870.0
590.249,869.65
590.783,868.1
591.316,870.1
591.85,869.25
592.383,868.9
592.917,870.9
593.45,870.4
593.983,869.85
594.516,869.95
595.049,871.95
595.582,872.15
596.115,869.8
596.648,872.75
597.18,872.35
597.713,872.6
598.245,874.2
598.778,874.9
599.31,875.15
599.842,874.2
600.375,874.85
600.907,875.75
601.439,873.7
601.971,875.95
602.503,874.65
603.034,873.55
603.566,872.85
604.098,873.8
604.629,872.1
605.161,872.5
605.692,871.75
606.224,872.0
606.755,870.95
607.286,872.1
607.817,870.4
608.348,871.1
608.879,872.15
609.41,872.6
609.941,870.7
610.472,870.65
611.002,869.4
611.533,869.55
612.063,871.0
612.594,872.8
613.124,872.75
613.655,870.85
614.185,873.45
614.715,871.15
615.245,872.1
615.775,871.9
616.305,871.45
616.835,873.25
617.365,871.75
617.895,875.3
618.425,874.2
618.954,873.15
619.484,875.75
620.013,874.85
620.543,872.9
621.072,874.95
621.602,878.15
622.131,884.55
622.66,881.4
623.189,876.25
623.718,874.75
624.247,874.4
624.776,872.15
625.305,873.9
625.834,876.8
626.363,884.3
626.891,956.2
627.42,1052.6
627.949,975.85
628.477,1055.95
629.006,983.15
629.534,960.15
630.062,931.55
630.591,924.45
631.119,894.75
631.647,879.9
632.175,877.8
632.703,875.5
633.231,874.6
633.759,873.3
634.287,872.9
634.815,872.1
635.343,874.3
635.871,873.3
636.398,872.45
636.926,873.95
637.454,872.6
637.981,872.8
638.509,872.9
639.036,874.65
639.564,870.9
640.091,872.75
640.618,875.55
641.146,872.95
641.673,874.5
642.2,876.65
642.727,877.75
643.254,875.55
643.781,879.75
644.308,876.7
644.835,876.75
645.362,879.4
645.889,878.4
646.416,880.7
646.942,879.7
647.469,880.0
647.996,882.5
648.522,880.8
649.049,880.9
649.576,882.05
650.102,882.8
650.629,883.5
651.155,885.15
651.682,883.4
652.208,881.6
652.734,880.2
653.261,879.45
653.787,879.45
654.313,878.65
654.839,877.85
655.365,876.65
655.892,875.6
656.418,875.9
656.944,874.85
657.47,873.95
657.996,872.3
658.522,871.45
659.048,871.25
659.574,869.9
660.099,870.1
660.625,867.2
661.151,865.75
661.677,866.05
662.203,866.1
662.728,865.7
663.123,865.65

File: VLFR_02-HDPE_bio_Raman_f4049e4e.csv
nm,Intensity
526.547,832.35
527.095,831.65
527.642,832.15
528.189,833.5
528.736,832.1
529.283,832.8
529.829,832.4
530.376,832.9
530.922,833.0
531.468,832.5
532.014,835.65
532.56,832.4
533.106,832.15
533.651,833.15
534.196,897.1
534.742,895.95
535.287,892.7
535.832,866.45
536.376,857.6
536.921,856.15
537.465,854.4
538.01,853.8
538.554,852.5
539.098,849.75
539.642,846.4
540.186,847.3
540.729,846.4
541.273,847.05
541.816,847.95
542.36,846.6
542.903,846.55
543.446,846.65
543.988,846.45
544.531,846.8
545.074,846.9
545.616,845.85
546.158,848.15
546.701,847.75
547.243,846.8
547.785,846.75
548.326,847.0
548.868,846.4
549.41,846.55
549.951,845.7
550.492,845.95
551.034,847.1
551.575,846.45
552.116,848.05
552.656,846.55
553.197,846.65
553.738,850.05
554.278,850.45
554.819,849.6
555.359,849.9
555.899,851.95
556.439,851.5
556.979,853.5
557.519,854.55
558.058,856.3
558.598,855.2
559.137,854.8
559.677,853.55
560.216,854.25
560.755,853.05
561.294,853.85
561.833,854.9
562.371,857.2
562.91,856.1
563.449,860.55
563.987,957.5
564.525,876.0
565.064,868.1
565.602,865.35
566.14,942.0
566.678,866.55
567.216,861.95
567.753,865.8
568.291,858.4
568.828,859.15
569.366,860.0
569.903,861.3
570.44,866.1
570.977,871.25
571.514,1036.4
572.051,884.8
572.588,865.8
573.125,864.3
573.661,865.85
574.198,870.65
574.734,864.1
575.271,869.95
575.807,900.35
576.343,1030.85
576.879,949.45
577.415,920.1
577.951,879.1
578.486,874.1
579.022,873.8
579.557,873.45
580.093,875.05
580.628,876.45
581.164,875.7
581.699,878.75
582.234,880.15
582.769,881.9
583.304,883.95
583.838,884.95
584.373,887.35
584.908,891.2
585.442,889.7
585.977,892.85
586.511,894.65
587.045,898.55
587.58,898.75
588.114,901.75
588.648,901.95
589.182,905.15
589.715,906.75
590.249,908.85
590.783,912.0
591.316,912.5
591.85,914.65
592.383,915.85
592.917,915.6
593.45,918.65
593.983,920.3
594.516,923.0
595.049,924.85
595.582,927.35
596.115,931.35
596.648,934.3
597.18,936.4
597.713,940.45
598.245,941.05
598.778,948.4
599.31,949.3
599.842,953.65
600.375,951.2
600.907,951.7
601.439,950.75
601.971,956.75
602.503,957.3
603.034,954.9
603.566,951.3
604.098,947.3
604.629,945.2
605.161,941.2
605.692,936.95
606.224,930.2
606.755,925.1
607.286,923.9
607.817,922.4
608.348,917.95
608.879,914.7
609.41,911.65
609.941,912.0
610.472,911.95
611.002,910.6
611.533,906.05
612.063,905.55
612.594,904.0
613.124,902.8
613.655,904.05
614.185,901.65
614.715,899.8
615.245,898.65
615.775,897.05
616.305,900.5
616.835,905.0
617.365,907.95
617.895,910.15
618.425,908.05
618.954,905.2
619.484,908.75
620.013,908.85
620.543,908.0
621.072,916.45
621.602,932.5
622.131,973.3
622.66,959.9
623.189,916.4
623.718,908.3
624.247,905.5
624.776,903.3
625.305,908.05
625.834,920.95
626.363,970.5
626.891,1394.75
627.42,1879.85
627.949,1470.2
628.477,1928.45
629.006,1422.65
629.534,1309.6
630.062,1175.3
630.591,1140.0
631.119,997.05
631.647,924.85
632.175,904.9
632.703,902.75
633.231,898.4
633.759,894.15
634.287,890.85
634.815,888.0
635.343,886.9
635.871,887.05
636.398,886.2
636.926,884.95
637.454,880.0
637.981,881.35
638.509,879.1
639.036,879.7
639.564,880.85
640.091,879.4
640.618,879.45
641.146,878.15
641.673,878.8
642.2,880.05
642.727,874.75
643.254,879.5
643.781,877.8
644.308,879.15
644.835,878.65
645.362,879.75
645.889,879.2
646.416,878.6
646.942,876.65
647.469,878.85
647.996,877.8
648.522,878.7
649.049,879.05
649.576,878.65
650.102,878.2
650.629,878.15
651.155,878.1
651.682,877.9
652.208,879.85
652.734,879.35
653.261,879.5
653.787,878.55
654.313,878.3
654.839,879.5
655.365,876.45
655.892,878.6
656.418,877.75
656.944,876.15
657.47,877.35
657.996,878.35
658.522,874.8
659.048,873.45
659.574,876.95
660.099,876.15
660.625,874.05
661.151,870.45
661.677,870.4
662.203,868.35
662.728,869.1
663.123,868.35

File: VLFR_02-HDPE_nobio_Raman_0d52ff72.csv
nm,Intensity
526.532,833.45
527.079,833.7
527.625,834.1
528.172,834.55
528.718,833.2
529.265,832.55
529.811,833.8
530.357,832.95
530.903,833.35
531.449,832.8
531.994,837.65
532.54,833.9
533.085,832.85
533.63,834.15
534.176,906.45
534.721,901.85
535.266,897.45
535.81,877.6
536.355,873.2
536.9,869.35
537.444,871.75
537.988,871.65
538.533,867.55
539.077,866.8
539.621,865.9
540.165,865.65
540.708,863.55
541.252,863.95
541.795,865.45
542.339,865.2
542.882,866.15
543.425,866.8
543.968,865.85
544.511,867.0
545.054,866.35
545.597,866.4
546.139,868.65
546.682,867.3
547.224,868.25
547.766,868.1
548.308,869.85
548.85,869.4
549.392,869.85
549.934,868.25
550.475,868.6
551.017,868.0
551.558,869.45
552.1,869.15
552.641,869.0
553.182,871.35
553.723,870.75
554.264,871.55
554.804,871.9
555.345,869.25
555.885,874.15
556.426,872.15
556.966,875.6
557.506,874.9
558.046,878.0
558.586,877.3
559.126,876.7
559.665,877.35
560.205,877.45
560.745,877.85
561.284,876.85
561.823,879.8
562.362,878.0
562.901,882.5
563.44,885.8
563.979,971.65
564.518,899.85
565.056,893.95
565.595,891.45
566.133,978.6
566.671,891.7
567.21,888.55
567.748,890.25
568.285,884.05
568.823,884.4
569.361,886.95
569.899,890.7
570.436,891.0
570.974,894.65
571.511,1056.3
572.048,910.25
572.585,894.45
573.122,893.9
573.659,892.95
574.196,899.55
574.733,894.9
575.269,900.1
575.806,934.05
576.342,1052.0
576.878,978.95
577.414,951.7
577.951,917.95
578.486,915.6
579.022,917.6
579.558,922.8
580.094,927.85
580.629,930.7
581.165,937.4
581.7,944.3
582.236,950.4
582.771,959.2
583.306,961.7
583.841,971.15
584.376,975.65
584.911,984.4
585.445,994.85
585.98,1002.1
586.514,1008.5
587.049,1017.35
587.583,1024.75
588.117,1030.95
588.651,1039.15
589.186,1042.7
589.72,1048.5
590.253,1053.55
590.787,1059.3
591.321,1063.15
591.854,1070.85
592.388,1075.75
592.921,1079.6
593.455,1082.75
593.988,1086.4
594.521,1093.3
595.054,1097.3
595.587,1111.5
596.12,1119.65
596.653,1124.7
597.186,1138.2
597.718,1144.2
598.251,1152.65
598.783,1169.25
599.316,1176.45
599.848,1181.05
600.38,1186.15
600.912,1186.45
601.444,1187.35
601.976,1184.4
602.508,1179.15
603.04,1173.0
603.572,1166.95
604.103,1156.65
604.635,1145.55
605.167,1133.55
605.698,1114.35
606.229,1103.3
606.761,1091.65
607.292,1083.0
607.823,1075.85
608.354,1070.55
608.885,1060.05
609.416,1054.5
609.947,1046.6
610.477,1040.55
611.008,1039.35
611.539,1034.05
612.069,1026.35
612.6,1023.85
613.13,1020.25
613.66,1017.8
614.19,1018.0
614.721,1008.65
615.251,1009.55
615.781,1005.25
616.311,999.45
616.841,1004.95
617.37,1000.7
617.9,1003.35
618.43,1001.7
618.96,994.5
619.489,998.3
620.019,997.25
620.548,994.9
621.077,995.45
621.607,1012.7
622.136,1048.8
622.665,1035.25
623.194,996.6
623.723,987.55
624.252,987.55
624.781,984.8
625.31,986.05
625.839,997.9
626.368,1037.95
626.896,1418.1
627.425,1859.25
627.953,1470.6
628.482,1906.3
629.01,1495.45
629.539,1367.4
630.067,1242.0
630.596,1212.3
631.124,1069.55
631.652,1001.0
632.18,984.8
632.708,986.05
633.236,981.2
633.764,978.0
634.292,975.05
634.82,977.05
635.348,975.6
635.876,975.85
636.403,977.65
636.931,977.55
637.459,974.65
637.986,973.65
638.514,976.05
639.041,974.85
639.568,977.2
640.096,980.0
640.623,978.5
641.15,982.3
641.678,983.3
642.205,986.35
642.732,984.5
643.259,985.3
643.786,987.1
644.313,984.15
644.84,988.45
645.367,990.25
645.894,991.75
646.421,990.3
646.948,989.95
647.474,989.6
648.001,993.95
648.528,994.9
649.054,993.25
649.581,994.8
650.108,998.25
650.634,996.1
651.161,997.85
651.687,997.95
652.214,1000.05
652.74,1002.15
653.266,1000.25
653.793,1000.3
654.319,999.45
654.845,998.1
655.371,1000.7
655.897,998.75
656.424,995.35
656.95,994.4
657.476,992.8
658.002,990.5
658.528,987.4
659.054,985.8
659.58,981.45
660.106,976.75
660.631,974.45
661.157,967.8
661.683,961.75
662.209,959.1
662.735,953.5
663.129,950.65