Folder: MPX_specDB/spectra (part 29)

File: VLFR_01-LDPE_nobio_Raman_c0c6453c.csv
nm,Intensity
526.486,830.7
527.033,830.7
527.579,830.8
528.126,829.8
528.672,829.6
529.219,829.5
529.765,829.9
530.311,828.9
530.857,830.8
531.403,830.8
531.948,832.4
532.494,829.8
533.039,830.4
533.585,829.7
534.13,858.2
534.675,855.4
535.22,852.9
535.764,847.0
536.309,845.5
536.854,847.0
537.398,842.9
537.942,843.0
538.486,842.3
539.03,841.5
539.574,842.3
540.118,841.3
540.662,841.6
541.205,842.6
541.749,839.2
542.292,842.1
542.835,842.3
543.378,841.2
543.921,841.0
544.464,841.0
545.006,840.5
545.549,842.3
546.091,841.6
546.634,841.5
547.176,840.9
547.718,839.9
548.26,841.3
548.802,840.8
549.343,840.8
549.885,843.2
550.426,841.1
550.968,840.0
551.509,844.1
552.05,844.5
552.591,844.4
553.132,842.3
553.673,845.0
554.214,842.8
554.754,845.8
555.295,846.5
555.835,842.9
556.375,845.6
556.915,846.5
557.455,844.9
557.995,848.0
558.535,847.9
559.075,846.1
559.614,847.4
560.154,846.6
560.693,848.5
561.232,848.9
561.772,849.4
562.311,850.3
562.85,849.8
563.388,849.7
563.927,878.0
564.466,860.6
565.004,857.2
565.543,855.1
566.081,903.6
566.619,858.9
567.157,854.6
567.695,855.6
568.233,852.8
568.771,852.1
569.309,854.5
569.846,852.3
570.384,857.0
570.921,858.4
571.458,900.5
571.995,865.3
572.532,859.2
573.069,857.0
573.606,858.6
574.143,863.5
574.68,859.8
575.216,861.9
575.753,894.7
576.289,906.9
576.825,892.7
577.361,884.8
577.897,869.4
578.433,868.1
578.969,870.5
579.505,872.3
580.041,871.8
580.576,871.6
581.112,874.4
581.647,875.3
582.183,875.3
582.718,877.9
583.253,882.8
583.788,886.1
584.323,886.4
584.858,889.3
585.392,890.3
585.927,898.1
586.462,899.6
586.996,899.6
587.53,905.3
588.065,908.1
588.599,908.9
589.133,911.1
589.667,917.1
590.201,916.0
590.735,924.0
591.268,929.9
591.802,928.9
592.335,935.0
592.869,939.1
593.402,941.4
593.936,943.8
594.469,948.5
595.002,952.0
595.535,958.0
596.068,962.4
596.601,961.6
597.133,968.4
597.666,974.4
598.199,974.3
598.731,981.8
599.264,979.8
599.796,986.8
600.328,984.2
600.86,982.7
601.393,988.2
601.925,985.1
602.457,985.3
602.988,983.2
603.52,978.3
604.052,980.5
604.583,975.4
605.115,971.8
605.646,962.6
606.178,965.6
606.709,957.4
607.24,956.0
607.771,946.8
608.302,950.8
608.833,949.1
609.364,946.9
609.895,946.5
610.426,937.8
610.957,943.4
611.487,941.3
612.018,934.2
612.548,936.4
613.078,935.6
613.609,930.6
614.139,932.2
614.669,933.4
615.199,931.9
615.729,927.5
616.259,930.5
616.789,926.3
617.319,928.2
617.849,924.5
618.378,925.3
618.908,921.5
619.437,922.9
619.967,921.1
620.496,920.4
621.025,925.6
621.555,924.6
622.084,929.4
622.613,933.1
623.142,921.6
623.671,915.8
624.2,910.0
624.729,912.2
625.258,912.6
625.786,910.3
626.315,923.4
626.844,1011.9
627.372,1205.3
627.901,1074.5
628.429,1134.6
628.957,1105.7
629.486,1059.0
630.014,1011.1
630.542,996.4
631.07,948.4
631.598,915.9
632.126,906.7
632.654,900.5
633.182,899.4
633.71,897.6
634.237,895.3
634.765,897.7
635.293,894.3
635.82,895.8
636.348,893.3
636.875,895.4
637.403,894.9
637.93,894.2
638.458,895.2
638.985,896.8
639.512,895.6
640.039,896.0
640.566,896.9
641.093,897.1
641.62,897.5
642.147,900.9
642.674,901.1
643.201,898.0
643.728,900.1
644.255,899.4
644.781,902.2
645.308,900.0
645.835,899.8
646.361,902.1
646.888,905.0
647.414,907.7
647.941,901.8
648.467,903.6
648.993,905.6
649.52,902.4
650.046,907.1
650.572,908.0
651.098,902.9
651.625,907.5
652.151,909.3
652.677,905.8
653.203,908.8
653.729,911.1
654.255,908.0
654.78,905.2
655.306,906.9
655.832,909.1
656.358,906.1
656.884,902.7
657.409,903.6
657.935,902.3
658.461,902.9
658.986,903.9
659.512,900.2
660.037,897.9
660.563,897.0
661.088,896.4
661.614,894.4
662.139,895.3
662.664,889.6
663.058,889.7

File: VLFR_01-LDPE_nobio_Raman_c6b1929c.csv
nm,Intensity
526.547,832.8
527.094,832.8
527.641,832.8
528.188,832.2
528.734,831.9
529.281,832.4
529.827,832.8
530.373,833.3
530.92,831.5
531.466,832.3
532.011,837.6
532.557,833.6
533.103,833.8
533.648,835.2
534.193,956.3
534.738,942.3
535.283,921.0
535.828,902.5
536.373,891.7
536.917,890.6
537.462,888.1
538.006,886.5
538.55,883.4
539.094,879.0
539.638,873.1
540.182,872.9
540.726,868.7
541.269,869.9
541.812,868.9
542.356,868.6
542.899,869.5
543.442,866.9
543.985,867.0
544.527,867.3
545.07,867.2
545.612,864.3
546.155,867.7
546.697,863.8
547.239,864.1
547.781,866.6
548.323,863.6
548.865,865.5
549.406,863.7
549.948,864.5
550.489,861.3
551.03,865.2
551.572,865.9
552.113,867.0
552.654,867.4
553.194,870.1
553.735,874.2
554.276,871.7
554.816,875.3
555.356,874.6
555.896,876.4
556.437,879.8
556.977,880.7
557.516,888.4
558.056,889.1
558.596,891.9
559.135,891.4
559.675,891.7
560.214,890.3
560.753,891.0
561.292,896.5
561.831,898.1
562.37,900.7
562.909,910.4
563.448,916.7
563.986,1007.7
564.525,948.3
565.063,944.3
565.601,938.8
566.139,1044.5
566.677,949.8
567.215,945.7
567.753,947.3
568.291,954.9
568.828,961.1
569.366,973.0
569.903,980.4
570.441,995.8
570.978,1015.5
571.515,1183.8
572.052,1074.0
572.589,1064.0
573.126,1076.0
573.662,1090.6
574.199,1120.9
574.735,1143.2
575.272,1187.1
575.808,1272.3
576.344,1432.3
576.88,1416.1
577.416,1414.9
577.952,1444.2
578.488,1497.4
579.024,1558.1
579.559,1629.8
580.095,1706.9
580.63,1790.1
581.166,1852.3
581.701,1934.0
582.236,2011.4
582.771,2081.5
583.306,2157.8
583.841,2232.0
584.376,2293.2
584.911,2385.3
585.445,2458.9
585.98,2531.0
586.514,2640.5
587.048,2757.7
587.583,2860.1
588.117,2956.7
588.651,3064.3
589.185,3161.4
589.719,3280.7
590.253,3383.2
590.786,3468.8
591.32,3563.3
591.853,3631.6
592.387,3672.2
592.92,3708.4
593.454,3735.6
593.987,3750.4
594.52,3801.2
595.053,3818.5
595.586,3832.8
596.119,3894.5
596.651,3935.2
597.184,3981.2
597.717,4036.1
598.249,4130.5
598.782,4159.8
599.314,4246.3
599.846,4252.8
600.379,4261.7
600.911,4254.6
601.443,4197.9
601.975,4159.0
602.507,4092.8
603.038,4036.5
603.57,3952.5
604.102,3820.8
604.633,3704.0
605.165,3550.3
605.696,3372.9
606.228,3270.2
606.759,3141.5
607.29,3055.1
607.821,2963.7
608.352,2887.4
608.883,2818.0
609.414,2748.8
609.945,2653.5
610.476,2600.4
611.006,2537.9
611.537,2507.8
612.067,2475.8
612.598,2434.4
613.128,2416.8
613.659,2372.7
614.189,2336.4
614.719,2303.9
615.249,2231.7
615.779,2196.1
616.309,2141.3
616.839,2129.9
617.369,2116.2
617.899,2066.9
618.428,2042.5
618.958,2019.3
619.487,1987.9
620.017,1975.0
620.546,1949.9
621.076,1934.2
621.605,1935.3
622.134,1951.2
622.663,1920.6
623.193,1884.9
623.722,1883.6
624.251,1860.4
624.78,1856.1
625.308,1849.5
625.837,1840.9
626.366,1882.4
626.895,2215.2
627.423,2684.1
627.952,2342.5
628.48,2714.8
629.009,2389.7
629.537,2265.8
630.065,2164.1
630.594,2138.4
631.122,1961.2
631.65,1889.9
632.178,1887.8
632.706,1871.5
633.234,1890.8
633.762,1887.0
634.29,1886.1
634.818,1904.1
635.346,1912.2
635.873,1930.2
636.401,1945.8
636.929,1946.0
637.456,1958.1
637.984,1973.1
638.511,1983.8
639.039,2011.9
639.566,2034.2
640.093,2029.4
640.62,2059.1
641.148,2074.7
641.675,2093.7
642.202,2106.1
642.729,2119.3
643.256,2127.5
643.783,2120.5
644.31,2128.6
644.837,2140.8
645.364,2126.4
645.891,2144.2
646.417,2155.0
646.944,2142.7
647.471,2149.5
647.997,2145.5
648.524,2119.8
649.051,2114.5
649.577,2111.9
650.104,2119.7
650.63,2087.6
651.157,2098.3
651.683,2087.9
652.209,2099.5
652.736,2107.6
653.262,2110.7
653.788,2099.1
654.314,2081.2
654.84,2066.3
655.366,2056.2
655.893,2041.8
656.419,2019.3
656.945,2001.6
657.471,1969.1
657.997,1940.0
658.522,1909.2
659.048,1883.0
659.574,1857.4
660.1,1809.1
660.626,1773.1
661.152,1722.8
661.677,1676.5
662.203,1658.6
662.729,1614.5
663.123,1585.8

File: VLFR_01-LDPE_nobio_Raman_c8e30f79.csv
nm,Intensity
526.532,832.9
527.079,833.65
527.625,833.4
528.172,833.2
528.718,833.05
529.265,834.05
529.811,833.3
530.357,832.9
530.903,833.35
531.449,833.95
531.994,839.95
532.54,834.15
533.085,832.75
533.63,834.65
534.176,925.75
534.721,913.8
535.266,896.45
535.81,882.1
536.355,874.7
536.9,872.9
537.444,869.65
537.988,870.4
538.533,866.5
539.077,863.3
539.621,861.55
540.165,859.3
540.708,855.7
541.252,858.25
541.795,856.05
542.339,855.85
542.882,855.1
543.425,854.35
543.968,855.25
544.511,853.6
545.054,853.7
545.597,852.7
546.139,853.35
546.682,851.6
547.224,852.0
547.766,851.3
548.308,851.55
548.85,851.2
549.392,851.35
549.934,851.35
550.475,850.3
551.017,849.9
551.558,853.45
552.1,851.3
552.641,852.15
553.182,854.75
553.723,855.5
554.264,857.0
554.804,858.3
555.345,859.75
555.885,860.15
556.426,862.7
556.966,863.65
557.506,869.65
558.046,873.05
558.586,873.85
559.126,870.9
559.665,870.15
560.205,869.1
560.745,871.05
561.284,872.75
561.823,873.0
562.362,880.0
562.901,883.5
563.44,887.45
563.979,966.55
564.518,910.45
565.056,905.65
565.595,902.25
566.133,987.85
566.671,908.1
567.21,900.35
567.748,907.25
568.285,903.2
568.823,909.5
569.361,912.1
569.899,915.9
570.436,924.55
570.974,937.15
571.511,1087.45
572.048,981.55
572.585,956.1
573.122,959.9
573.659,971.65
574.196,984.85
574.733,987.2
575.269,1008.95
575.806,1073.55
576.342,1195.85
576.878,1153.2
577.414,1132.75
577.951,1115.1
578.486,1141.25
579.022,1165.95
579.558,1195.85
580.094,1219.0
580.629,1245.25
581.165,1269.5
581.7,1289.85
582.236,1305.25
582.771,1321.3
583.306,1345.4
583.841,1353.5
584.376,1360.6
584.911,1370.55
585.445,1380.0
585.98,1395.4
586.514,1412.15
587.049,1422.5
587.583,1435.35
588.117,1446.9
588.651,1465.35
589.186,1479.6
589.72,1501.25
590.253,1521.3
590.787,1534.5
591.321,1550.7
591.854,1568.0
592.388,1576.45
592.921,1574.25
593.455,1578.0
593.988,1576.55
594.521,1589.5
595.054,1608.75
595.587,1625.95
596.12,1625.15
596.653,1641.8
597.186,1654.9
597.718,1663.35
598.251,1685.8
598.783,1699.2
599.316,1713.6
599.848,1720.1
600.38,1723.75
600.912,1720.95
601.444,1706.1
601.976,1694.45
602.508,1688.05
603.04,1667.6
603.572,1644.3
604.103,1615.45
604.635,1575.25
605.167,1547.6
605.698,1507.3
606.229,1471.85
606.761,1447.95
607.292,1426.9
607.823,1405.15
608.354,1383.9
608.885,1369.3
609.416,1354.9
609.947,1337.45
610.477,1322.25
611.008,1312.25
611.539,1298.55
612.069,1288.15
612.6,1280.95
613.13,1277.25
613.66,1268.25
614.19,1254.55
614.721,1247.8
615.251,1237.85
615.781,1227.15
616.311,1219.65
616.841,1218.15
617.37,1217.55
617.9,1209.7
618.43,1203.65
618.96,1194.6
619.489,1199.25
620.019,1196.3
620.548,1190.85
621.077,1191.55
621.607,1202.25
622.136,1226.4
622.665,1212.75
623.194,1191.25
623.723,1184.0
624.252,1176.7
624.781,1182.05
625.31,1184.45
625.839,1190.7
626.368,1225.0
626.896,1543.6
627.425,1978.2
627.953,1686.3
628.482,2024.35
629.01,1751.55
629.539,1628.0
630.067,1522.5
630.596,1483.1
631.124,1328.3
631.652,1257.4
632.18,1230.1
632.708,1216.1
633.236,1212.8
633.764,1214.2
634.292,1206.35
634.82,1208.85
635.348,1211.15
635.876,1217.3
636.403,1217.6
636.931,1222.8
637.459,1218.5
637.986,1227.85
638.514,1225.0
639.041,1229.85
639.568,1236.2
640.096,1240.6
640.623,1241.1
641.15,1241.6
641.678,1250.55
642.205,1252.2
642.732,1258.05
643.259,1250.65
643.786,1258.3
644.313,1257.75
644.84,1256.45
645.367,1256.85
645.894,1258.75
646.421,1258.4
646.948,1262.9
647.474,1261.15
648.001,1264.25
648.528,1254.5
649.054,1253.7
649.581,1256.55
650.108,1245.65
650.634,1249.1
651.161,1256.9
651.687,1255.9
652.214,1257.5
652.74,1259.35
653.266,1254.15
653.793,1255.95
654.319,1254.05
654.845,1250.4
655.371,1251.8
655.897,1245.65
656.424,1237.4
656.95,1231.65
657.476,1224.75
658.002,1208.45
658.528,1212.55
659.054,1193.45
659.58,1186.1
660.106,1173.8
660.631,1162.3
661.157,1146.65
661.683,1134.5
662.209,1126.45
662.735,1113.5
663.129,1107.7

File: VLFR_01-LDPE_nobio_Raman_c20e76b4.csv
cm-1,Intensity
-123.878,1853.05
-105.821,1853.65
-87.8007,1853.35
-69.8161,1852.5
-51.8675,1854.85
-33.9547,1854.9
-16.0776,1878.75
1.76388,3012.2
19.5698,1854.55
37.3403,1855.65
55.0755,1988.85
72.7754,2404.65
90.4402,2405.5
108.07,2437.95
125.665,2436.65
143.225,2417.8
160.75,2439.1
178.241,2445.35
195.697,2480.6
213.119,2463.25
230.506,2469.6
247.859,2476.95
265.178,2490.95
282.463,2490.3
299.713,2476.25
316.93,2496.4
334.113,2517.0
351.263,2504.3
368.379,2516.5
385.461,2519.75
402.51,2534.65
419.526,2539.7
436.508,2537.55
453.458,2538.2
470.374,2564.8
487.257,2561.3
504.107,2579.8
520.925,2582.95
537.71,2591.15
554.462,2618.0
571.182,2628.7
587.87,2618.55
604.525,2644.9
621.148,2621.45
637.739,2651.2
654.297,2684.75
670.824,2661.2
687.319,2659.7
703.782,2647.2
720.213,2666.1
736.613,2670.15
752.981,2672.1
769.317,2680.15
785.623,2680.0
801.897,2684.4
818.139,2679.75
834.351,2692.95
850.532,2694.95
866.681,2742.85
882.8,2727.5
898.888,2730.8
914.945,2736.9
930.972,2739.55
946.968,2739.7
962.934,2755.5
978.869,2766.5
994.774,2791.5
1010.65,2793.75
1026.49,2809.05
1042.31,2810.35
1058.09,2868.75
1073.85,2844.3
1089.57,2913.45
1105.27,2872.95
1120.93,2914.6
1136.57,2921.75
1152.18,2931.95
1167.75,2932.95
1183.3,2957.6
1198.82,2983.5
1214.31,3017.55
1229.77,3034.8
1245.2,3020.7
1260.6,3077.0
1275.97,3069.35
1291.32,3227.0
1306.63,3232.7
1321.92,3174.2
1337.18,3168.15
1352.41,3198.05
1367.61,3189.65
1382.78,3166.35
1397.93,3193.4
1413.05,3196.6
1428.14,3274.95
1443.2,3344.8
1458.23,3281.15
1473.23,3246.3
1488.21,3203.1
1503.16,3178.8
1518.08,3221.4
1532.97,3247.95
1547.84,3308.4
1562.68,3326.8
1577.49,3353.45
1592.27,3374.75
1607.03,3320.1
1621.76,3234.3
1636.46,3209.85
1651.14,3158.15
1665.78,3141.3
1680.41,3086.75
1695.0,3149.25
1709.57,3130.7
1724.11,3112.7
1738.62,3099.75
1753.11,3140.95
1767.57,3148.65
1782.01,3192.4
1796.41,3130.0
1810.8,3130.35
1825.15,3126.0
1839.48,3138.8
1853.79,3124.85
1868.06,3124.65
1882.31,3144.9
1896.54,3140.0
1910.74,3170.5
1924.91,3134.3
1939.06,3138.6
1953.19,3164.55
1967.28,3139.15
1981.35,3152.95
1995.4,3166.9
2009.42,3202.55
2023.42,3205.35
2037.39,3197.85
2051.33,3242.1
2065.25,3186.3
2079.15,3234.6
2093.01,3222.4
2106.86,3242.3
2120.68,3247.4
2134.47,3266.9
2148.24,3254.35
2161.99,3290.2
2175.71,3286.5
2189.41,3289.1
2203.08,3282.6
2216.73,3257.35
2230.35,3258.8
2243.95,3243.45
2257.52,3262.95
2271.07,3206.45
2284.6,3235.6
2298.1,3228.9
2311.58,3196.0
2325.03,3215.5
2338.46,3194.75
2351.87,3174.15
2365.25,3184.95
2378.61,3184.95
2391.94,3180.45
2405.26,3207.45
2418.54,3178.7
2431.81,3197.05
2445.05,3159.75
2458.27,3160.6
2471.46,3174.7
2484.63,3168.6
2497.78,3113.6
2510.9,3153.6
2524.0,3173.4
2537.08,3139.25
2550.14,3141.9
2563.17,3158.25
2576.18,3148.15
2589.17,3126.35
2602.13,3179.0
2615.07,3175.1
2627.99,3157.5
2640.89,3196.7
2653.76,3173.75
2666.61,3105.6
2679.44,3167.8
2692.25,3176.35
2705.03,3179.65
2717.79,3233.9
2730.53,3194.1
2743.25,3163.65
2755.94,3155.55
2768.61,3122.1
2781.27,3102.45
2793.89,3129.25
2806.5,3154.3
2819.09,3154.65
2831.65,3265.55
2844.19,3853.7
2856.71,3948.15
2869.21,3684.4
2881.69,4030.45
2894.14,3746.3
2906.58,3627.55
2918.99,3538.3
2931.38,3492.95
2943.75,3240.3
2956.1,3143.15
2968.42,3068.75
2980.73,3032.6
2993.01,3010.7
3005.28,3046.9
3017.52,2996.3
3029.74,3001.75
3041.94,2993.9
3054.12,2960.1
3066.28,2951.45
3078.42,2986.7
3090.54,2965.0
3102.63,2909.6
3114.71,2922.1
3126.77,2925.0
3138.8,2900.85
3150.82,2917.25
3162.81,2898.15
3174.78,2881.55
3186.74,2872.65
3198.67,2856.75
3210.58,2871.25
3222.47,2842.4
3234.35,2829.45
3246.2,2833.75
3258.03,2822.5
3269.84,2786.75
3281.64,2830.5
3293.41,2806.95
3305.16,2766.2
3316.89,2751.95
3328.61,2757.3
3340.3,2745.0
3351.97,2756.5
3363.63,2751.0
3375.26,2703.25
3386.88,2718.3
3398.47,2709.3
3410.05,2714.8
3421.6,2701.7
3433.14,2692.5
3444.66,2686.45
3456.15,2704.15
3467.63,2646.0
3479.09,2664.9
3490.53,2638.25
3501.96,2634.4
3513.36,2628.5
3524.74,2633.4
3536.11,2602.75
3547.45,2596.9
3558.78,2582.7
3570.09,2581.85
3581.37,2612.35
3592.64,2558.7
3603.9,2530.6
3615.13,2529.1
3626.34,2506.45
3637.54,2503.05
3648.72,2487.6
3659.87,2484.0
3665.45,2488.3

File: VLFR_01-LDPE_nobio_Raman_d0639b17.csv
nm,Intensity
526.547,833.3
527.094,833.5
527.641,833.2
528.188,833.4
528.734,831.2
529.281,831.3
529.827,832.9
530.373,832.8
530.92,832.5
531.466,832.0
532.011,836.4
532.557,832.2
533.103,831.6
533.648,833.9
534.193,930.8
534.738,921.6
535.283,915.3
535.828,904.6
536.373,900.6
536.917,901.6
537.462,895.6
538.006,894.4
538.55,896.3
539.094,891.9
539.638,889.3
540.182,889.6
540.726,889.5
541.269,887.4
541.812,885.1
542.356,886.1
542.899,885.7
543.442,884.2
543.985,884.9
544.527,886.2
545.07,886.3
545.612,885.0
546.155,888.1
546.697,888.1
547.239,885.0
547.781,885.0
548.323,886.4
548.865,884.3
549.406,881.8
549.948,881.3
550.489,882.2
551.03,884.9
551.572,882.4
552.113,883.4
552.654,885.1
553.194,888.2
553.735,887.8
554.276,885.9
554.816,890.4
555.356,891.5
555.896,891.6
556.437,888.4
556.977,892.9
557.516,895.6
558.056,895.1
558.596,899.0
559.135,898.3
559.675,897.1
560.214,895.7
560.753,899.8
561.292,904.7
561.831,901.7
562.37,908.1
562.909,910.4
563.448,913.4
563.986,947.9
564.525,927.0
565.063,926.0
565.601,922.2
566.139,957.9
566.677,920.8
567.215,919.6
567.753,917.7
568.291,921.9
568.828,922.0
569.366,925.2
569.903,926.3
570.441,934.3
570.978,932.2
571.515,997.4
572.052,947.5
572.589,939.5
573.126,938.3
573.662,943.8
574.199,948.2
574.735,945.0
575.272,946.6
575.808,970.8
576.344,1027.6
576.88,1001.9
577.416,981.5
577.952,969.7
578.488,972.9
579.024,976.2
579.559,980.7
580.095,988.0
580.63,994.4
581.166,993.4
581.701,1006.0
582.236,1013.5
582.771,1021.5
583.306,1030.0
583.841,1047.9
584.376,1056.8
584.911,1063.6
585.445,1082.1
585.98,1101.3
586.514,1117.5
587.048,1138.1
587.583,1160.8
588.117,1177.8
588.651,1191.9
589.185,1213.8
589.719,1228.8
590.253,1262.9
590.786,1279.8
591.32,1292.6
591.853,1322.9
592.387,1333.6
592.92,1359.3
593.454,1378.7
593.987,1398.3
594.52,1427.6
595.053,1449.6
595.586,1486.1
596.119,1521.3
596.651,1555.8
597.184,1579.2
597.717,1616.6
598.249,1645.8
598.782,1690.8
599.314,1713.0
599.846,1735.8
600.379,1733.5
600.911,1744.0
601.443,1741.4
601.975,1725.0
602.507,1714.8
603.038,1693.2
603.57,1672.6
604.102,1642.5
604.633,1602.7
605.165,1556.6
605.696,1519.1
606.228,1490.4
606.759,1450.8
607.29,1435.6
607.821,1410.6
608.352,1398.1
608.883,1365.1
609.414,1351.6
609.945,1334.0
610.476,1318.2
611.006,1304.9
611.537,1295.5
612.067,1293.2
612.598,1276.8
613.128,1269.0
613.659,1265.1
614.189,1252.8
614.719,1237.2
615.249,1224.8
615.779,1218.2
616.309,1207.4
616.839,1194.8
617.369,1192.0
617.899,1183.1
618.428,1186.7
618.958,1169.5
619.487,1165.0
620.017,1166.9
620.546,1163.5
621.076,1150.5
621.605,1147.3
622.134,1159.5
622.663,1150.9
623.193,1133.2
623.722,1125.8
624.251,1116.3
624.78,1119.7
625.308,1116.0
625.837,1113.2
626.366,1121.1
626.895,1255.2
627.423,1445.4
627.952,1312.3
628.48,1459.9
629.009,1322.4
629.537,1263.5
630.065,1227.1
630.594,1197.6
631.122,1128.3
631.65,1095.2
632.178,1079.0
632.706,1076.1
633.234,1070.0
633.762,1065.8
634.29,1067.5
634.818,1071.1
635.346,1067.2
635.873,1070.1
636.401,1070.6
636.929,1072.2
637.456,1070.5
637.984,1074.2
638.511,1081.2
639.039,1081.9
639.566,1087.7
640.093,1093.6
640.62,1094.8
641.148,1107.0
641.675,1105.1
642.202,1108.1
642.729,1114.2
643.256,1118.5
643.783,1121.7
644.31,1116.1
644.837,1119.7
645.364,1125.9
645.891,1132.8
646.417,1137.2
646.944,1137.7
647.471,1146.0
647.997,1145.6
648.524,1153.9
649.051,1154.4
649.577,1150.9
650.104,1163.6
650.63,1159.0
651.157,1165.8
651.683,1168.7
652.209,1175.5
652.736,1169.7
653.262,1180.8
653.788,1178.6
654.314,1188.5
654.84,1182.9
655.366,1179.5
655.893,1178.6
656.419,1169.6
656.945,1170.1
657.471,1162.3
657.997,1159.2
658.522,1152.7
659.048,1141.7
659.574,1136.6
660.1,1120.3
660.626,1102.9
661.152,1105.2
661.677,1088.7
662.203,1073.4
662.729,1070.1
663.123,1058.3

File: VLFR_01-LDPE_nobio_Raman_d672d943.csv
nm,Intensity
526.486,829.9
527.033,830.0
527.579,829.7
528.126,829.7
528.672,830.3
529.219,830.3
529.765,830.2
530.311,829.4
530.857,828.9
531.403,831.1
531.948,833.0
532.494,831.1
533.039,831.1
533.585,830.2
534.13,859.6
534.675,857.5
535.22,849.1
535.764,843.5
536.309,845.9
536.854,843.2
537.398,845.7
537.942,845.1
538.486,845.1
539.03,846.4
539.574,846.2
540.118,842.0
540.662,842.7
541.205,841.3
541.749,842.2
542.292,840.9
542.835,842.2
543.378,841.3
543.921,841.0
544.464,838.9
545.006,839.9
545.549,841.3
546.091,839.0
546.634,840.1
547.176,838.5
547.718,839.7
548.26,840.1
548.802,841.3
549.343,840.4
549.885,840.7
550.426,840.5
550.968,840.5
551.509,840.4
552.05,840.5
552.591,840.3
553.132,838.4
553.673,841.8
554.214,839.7
554.754,840.6
555.295,841.3
555.835,841.6
556.375,843.3
556.915,842.9
557.455,842.8
557.995,843.8
558.535,844.8
559.075,844.8
559.614,843.8
560.154,845.5
560.693,843.1
561.232,845.7
561.772,844.2
562.311,845.2
562.85,846.2
563.388,846.9
563.927,858.4
564.466,854.8
565.004,854.0
565.543,850.7
566.081,861.6
566.619,850.6
567.157,850.9
567.695,850.9
568.233,851.1
568.771,853.0
569.309,853.3
569.846,854.9
570.384,856.3
570.921,858.3
571.458,876.4
571.995,868.6
572.532,864.7
573.069,863.5
573.606,863.2
574.143,865.4
574.68,865.6
575.216,866.2
575.753,873.4
576.289,906.6
576.825,897.7
577.361,886.7
577.897,877.4
578.433,880.2
578.969,883.2
579.505,884.8
580.041,882.0
580.576,887.2
581.112,889.3
581.647,892.3
582.183,892.0
582.718,896.3
583.253,894.1
583.788,902.6
584.323,902.5
584.858,904.8
585.392,909.9
585.927,917.6
586.462,922.1
586.996,925.8
587.53,932.6
588.065,942.6
588.599,939.8
589.133,948.5
589.667,953.8
590.201,963.2
590.735,964.9
591.268,969.6
591.802,972.0
592.335,982.1
592.869,981.8
593.402,989.4
593.936,992.4
594.469,1000.4
595.002,1013.7
595.535,1022.2
596.068,1023.3
596.601,1033.7
597.133,1043.0
597.666,1054.8
598.199,1065.1
598.731,1071.4
599.264,1081.7
599.796,1089.7
600.328,1086.0
600.86,1091.9
601.393,1085.1
601.925,1083.4
602.457,1081.4
602.988,1075.5
603.52,1068.3
604.052,1061.2
604.583,1046.5
605.115,1039.7
605.646,1030.7
606.178,1016.8
606.709,1012.4
607.24,996.2
607.771,997.6
608.302,994.5
608.833,992.7
609.364,979.8
609.895,980.8
610.426,974.6
610.957,962.7
611.487,965.0
612.018,961.8
612.548,959.7
613.078,959.2
613.609,958.3
614.139,953.3
614.669,952.0
615.199,947.7
615.729,948.1
616.259,940.9
616.789,942.3
617.319,938.5
617.849,941.5
618.378,939.0
618.908,931.1
619.437,933.7
619.967,931.1
620.496,927.2
621.025,928.5
621.555,927.7
622.084,937.4
622.613,936.3
623.142,926.6
623.671,920.5
624.2,919.5
624.729,921.8
625.258,918.3
625.786,918.6
626.315,926.2
626.844,980.3
627.372,1107.9
627.901,1029.8
628.429,1086.2
628.957,1043.3
629.486,1017.4
630.014,985.5
630.542,971.7
631.07,941.1
631.598,919.4
632.126,913.0
632.654,909.9
633.182,909.0
633.71,907.5
634.237,906.3
634.765,907.7
635.293,907.1
635.82,911.3
636.348,911.7
636.875,912.5
637.403,911.5
637.93,909.7
638.458,915.9
638.985,912.9
639.512,914.8
640.039,917.1
640.566,916.0
641.093,920.7
641.62,924.4
642.147,928.3
642.674,926.3
643.201,928.0
643.728,924.5
644.255,929.6
644.781,933.6
645.308,930.9
645.835,933.9
646.361,933.3
646.888,935.4
647.414,937.0
647.941,938.1
648.467,942.8
648.993,941.9
649.52,944.1
650.046,941.0
650.572,947.1
651.098,942.9
651.625,949.0
652.151,950.8
652.677,950.5
653.203,956.4
653.729,955.2
654.255,955.2
654.78,954.3
655.306,950.5
655.832,952.5
656.358,950.1
656.884,951.7
657.409,950.4
657.935,946.9
658.461,939.0
658.986,937.2
659.512,935.3
660.037,935.0
660.563,929.4
661.088,923.6
661.614,924.1
662.139,919.0
662.664,915.5
663.058,909.4