Folder: MPX_specDB/spectra (part 60)

File: VLFR_02-HDPE_nobio_Raman_960f841f.csv
nm,Intensity
526.532,833.25
527.079,833.65
527.625,833.3
528.172,833.8
528.718,832.95
529.265,833.35
529.811,834.25
530.357,833.55
530.903,833.4
531.449,833.7
531.994,844.95
532.54,834.85
533.085,833.25
533.63,834.85
534.176,942.85
534.721,943.85
535.266,932.15
535.81,903.45
536.355,897.1
536.9,890.55
537.444,891.0
537.988,888.6
538.533,888.05
539.077,882.1
539.621,880.15
540.165,879.75
540.708,878.35
541.252,878.35
541.795,877.6
542.339,878.3
542.882,877.1
543.425,877.3
543.968,877.8
544.511,877.6
545.054,878.2
545.597,876.0
546.139,877.3
546.682,879.15
547.224,878.75
547.766,878.4
548.308,877.25
548.85,878.85
549.392,876.95
549.934,879.1
550.475,877.85
551.017,878.45
551.558,876.8
552.1,876.85
552.641,877.25
553.182,880.1
553.723,880.45
554.264,882.05
554.804,883.45
555.345,882.7
555.885,884.3
556.426,883.0
556.966,886.95
557.506,888.3
558.046,891.05
558.586,893.5
559.126,890.6
559.665,895.05
560.205,893.3
560.745,895.05
561.284,897.3
561.823,899.6
562.362,902.9
562.901,906.15
563.44,915.0
563.979,1036.6
564.518,937.25
565.056,931.85
565.595,928.1
566.133,1047.25
566.671,932.2
567.21,928.45
567.748,935.05
568.285,930.4
568.823,935.3
569.361,937.1
569.899,946.45
570.436,950.0
570.974,965.05
571.511,1186.1
572.048,991.1
572.585,976.7
573.122,972.25
573.659,990.35
574.196,1000.95
574.733,1001.45
575.269,1016.65
575.806,1068.4
576.342,1228.25
576.878,1139.05
577.414,1124.3
577.951,1088.75
578.486,1104.05
579.022,1119.15
579.558,1141.9
580.094,1163.05
580.629,1188.4
581.165,1211.35
581.7,1242.1
582.236,1264.0
582.771,1295.95
583.306,1325.95
583.841,1348.05
584.376,1371.75
584.911,1395.0
585.445,1421.5
585.98,1456.15
586.514,1488.05
587.049,1516.95
587.583,1551.95
588.117,1576.95
588.651,1617.6
589.186,1646.05
589.72,1676.75
590.253,1711.35
590.787,1742.95
591.321,1783.25
591.854,1801.25
592.388,1825.75
592.921,1836.3
593.455,1849.0
593.988,1848.8
594.521,1870.95
595.054,1893.45
595.587,1904.0
596.12,1912.0
596.653,1928.45
597.186,1948.25
597.718,1958.05
598.251,1992.3
598.783,1994.55
599.316,2002.9
599.848,2019.55
600.38,2000.45
600.912,2007.85
601.444,1994.15
601.976,1973.6
602.508,1952.65
603.04,1939.2
603.572,1914.3
604.103,1876.5
604.635,1837.25
605.167,1789.25
605.698,1745.75
606.229,1709.35
606.761,1670.15
607.292,1636.4
607.823,1612.55
608.354,1589.4
608.885,1567.3
609.416,1545.05
609.947,1520.35
610.477,1503.2
611.008,1483.45
611.539,1472.55
612.069,1456.25
612.6,1453.45
613.13,1437.1
613.66,1430.65
614.19,1415.15
614.721,1402.2
615.251,1384.95
615.781,1371.25
616.311,1355.75
616.841,1347.8
617.37,1353.45
617.9,1348.5
618.43,1328.35
618.96,1321.7
619.489,1313.75
620.019,1303.15
620.548,1293.25
621.077,1297.75
621.607,1310.4
622.136,1346.65
622.665,1330.35
623.194,1281.5
623.723,1270.55
624.252,1271.3
624.781,1268.75
625.31,1266.35
625.839,1274.65
626.368,1325.25
626.896,1780.6
627.425,2298.1
627.953,1834.0
628.482,2340.55
629.01,1843.8
629.539,1700.65
630.067,1552.8
630.596,1525.35
631.124,1363.55
631.652,1296.4
632.18,1276.95
632.708,1276.85
633.236,1273.05
633.764,1279.3
634.292,1274.4
634.82,1269.65
635.348,1283.25
635.876,1289.2
636.403,1299.75
636.931,1304.55
637.459,1305.25
637.986,1303.75
638.514,1312.3
639.041,1316.5
639.568,1324.35
640.096,1329.8
640.623,1331.55
641.15,1341.3
641.678,1348.75
642.205,1354.35
642.732,1357.75
643.259,1367.1
643.786,1371.0
644.313,1371.95
644.84,1366.15
645.367,1374.4
645.894,1372.25
646.421,1369.05
646.948,1368.85
647.474,1372.2
648.001,1371.4
648.528,1366.65
649.054,1358.6
649.581,1365.5
650.108,1358.0
650.634,1347.85
651.161,1350.3
651.687,1352.15
652.214,1349.0
652.74,1345.8
653.266,1338.15
653.793,1342.8
654.319,1336.8
654.845,1336.35
655.371,1332.55
655.897,1322.35
656.424,1309.4
656.95,1306.7
657.476,1295.15
658.002,1280.35
658.528,1275.65
659.054,1262.65
659.58,1255.0
660.106,1245.3
660.631,1224.1
661.157,1209.65
661.683,1198.25
662.209,1181.85
662.735,1170.55
663.129,1162.55

File: VLFR_02-HDPE_nobio_Raman_5177bd72.csv
cm-1,Intensity
-123.878,1853.65
-105.821,1853.6
-87.8007,1853.85
-69.8161,1853.9
-51.8675,1853.3
-33.9547,1854.0
-16.0776,1872.55
1.76388,2731.65
19.5698,1856.2
37.3403,1858.15
55.0755,2046.55
72.7754,2573.7
90.4402,2640.9
108.07,2705.3
125.665,2735.2
143.225,2701.1
160.75,2669.45
178.241,2683.35
195.697,2698.2
213.119,2711.2
230.506,2675.1
247.859,2693.8
265.178,2668.75
282.463,2675.0
299.713,2662.65
316.93,2661.25
334.113,2654.3
351.263,2631.8
368.379,2648.45
385.461,2631.7
402.51,2633.0
419.526,2605.85
436.508,2591.85
453.458,2581.6
470.374,2577.2
487.257,2545.4
504.107,2565.9
520.925,2534.6
537.71,2551.5
554.462,2543.25
571.182,2538.65
587.87,2547.35
604.525,2520.7
621.148,2533.15
637.739,2546.5
654.297,2534.9
670.824,2546.35
687.319,2529.75
703.782,2516.3
720.213,2509.6
736.613,2508.9
752.981,2505.4
769.317,2525.95
785.623,2515.55
801.897,2490.2
818.139,2509.45
834.351,2500.35
850.532,2499.2
866.681,2524.4
882.8,2508.75
898.888,2509.05
914.945,2511.8
930.972,2525.9
946.968,2505.65
962.934,2524.4
978.869,2523.75
994.774,2540.95
1010.65,2549.25
1026.49,2583.25
1042.31,2579.15
1058.09,2793.1
1073.85,2658.75
1089.57,2664.65
1105.27,2665.55
1120.93,2766.05
1136.57,2801.5
1152.18,2702.65
1167.75,2753.15
1183.3,2746.6
1198.82,2771.6
1214.31,2796.1
1229.77,2831.35
1245.2,2863.9
1260.6,2895.65
1275.97,2971.55
1291.32,3283.4
1306.63,3120.05
1321.92,3109.25
1337.18,3104.45
1352.41,3120.75
1367.61,3206.4
1382.78,3217.2
1397.93,3333.9
1413.05,3413.35
1428.14,3551.65
1443.2,3844.85
1458.23,3747.8
1473.23,3745.3
1488.21,3704.25
1503.16,3758.35
1518.08,3863.65
1532.97,4001.2
1547.84,4090.15
1562.68,4199.65
1577.49,4304.25
1592.27,4410.75
1607.03,4468.45
1621.76,4517.35
1636.46,4667.3
1651.14,4730.95
1665.78,4825.85
1680.41,5012.05
1695.0,4988.65
1709.57,5075.25
1724.11,5206.95
1738.62,5268.5
1753.11,5363.75
1767.57,5475.35
1782.01,5652.45
1796.41,5717.3
1810.8,5849.3
1825.15,5832.0
1839.48,5979.15
1853.79,6032.85
1868.06,6182.35
1882.31,6326.7
1896.54,6297.4
1910.74,6493.65
1924.91,6499.7
1939.06,6639.7
1953.19,6700.8
1967.28,6735.25
1981.35,6777.3
1995.4,6918.45
2009.42,7113.6
2023.42,7250.3
2037.39,7312.0
2051.33,7297.0
2065.25,7437.6
2079.15,7394.75
2093.01,7502.45
2106.86,7644.5
2120.68,7501.3
2134.47,7697.85
2148.24,7504.35
2161.99,7496.35
2175.71,7498.4
2189.41,7466.4
2203.08,7326.75
2216.73,7151.6
2230.35,7013.0
2243.95,6929.35
2257.52,6894.2
2271.07,6744.25
2284.6,6628.55
2298.1,6505.3
2311.58,6426.1
2325.03,6243.75
2338.46,6164.5
2351.87,6039.5
2365.25,5927.85
2378.61,5770.6
2391.94,5698.45
2405.26,5703.85
2418.54,5490.1
2431.81,5508.9
2445.05,5410.0
2458.27,5265.05
2471.46,5229.65
2484.63,5135.7
2497.78,5058.25
2510.9,4993.7
2524.0,4970.55
2537.08,4834.6
2550.14,4796.6
2563.17,4725.75
2576.18,4700.7
2589.17,4649.4
2602.13,4571.3
2615.07,4551.8
2627.99,4510.3
2640.89,4500.95
2653.76,4498.0
2666.61,4383.85
2679.44,4421.6
2692.25,4356.55
2705.03,4428.2
2717.79,4445.1
2730.53,4360.9
2743.25,4299.0
2755.94,4218.4
2768.61,4205.55
2781.27,4170.2
2793.89,4219.6
2806.5,4160.25
2819.09,4197.75
2831.65,4389.15
2844.19,5602.35
2856.71,5418.15
2869.21,5086.5
2881.69,6187.85
2894.14,5146.9
2906.58,4820.15
2918.99,4587.55
2931.38,4514.15
2943.75,4311.0
2956.1,4241.95
2968.42,4072.45
2980.73,4135.0
2993.01,4076.7
3005.28,4064.7
3017.52,4141.7
3029.74,4036.85
3041.94,4137.5
3054.12,4056.5
3066.28,4042.75
3078.42,4028.6
3090.54,4032.95
3102.63,4038.8
3114.71,4011.8
3126.77,4064.35
3138.8,4030.75
3150.82,4060.5
3162.81,4070.8
3174.78,4060.85
3186.74,3986.6
3198.67,4041.4
3210.58,4074.9
3222.47,4056.75
3234.35,4017.8
3246.2,3996.65
3258.03,4043.7
3269.84,4059.55
3281.64,4007.9
3293.41,4060.2
3305.16,4107.9
3316.89,4013.65
3328.61,3983.35
3340.3,3962.2
3351.97,3975.5
3363.63,3982.7
3375.26,3972.4
3386.88,3906.55
3398.47,3932.95
3410.05,3897.85
3421.6,3915.5
3433.14,3856.85
3444.66,3932.35
3456.15,3830.35
3467.63,3784.55
3479.09,3805.15
3490.53,3768.9
3501.96,3753.2
3513.36,3607.0
3524.74,3659.15
3536.11,3662.8
3547.45,3623.15
3558.78,3562.45
3570.09,3513.45
3581.37,3544.2
3592.64,3450.5
3603.9,3402.05
3615.13,3342.55
3626.34,3285.0
3637.54,3238.65
3648.72,3224.45
3659.87,3167.55
3665.45,3177.65

File: VLFR_02-HDPE_nobio_Raman_5556c66d.csv
nm,Intensity
526.486,827.5
527.033,830.7
527.579,828.8
528.126,828.3
528.672,828.9
529.219,829.4
529.765,829.7
530.311,829.0
530.857,829.5
531.403,828.6
531.948,834.8
532.494,829.3
533.039,829.2
533.585,829.6
534.13,892.5
534.675,895.8
535.22,893.6
535.764,860.7
536.309,850.1
536.854,851.1
537.398,847.9
537.942,848.2
538.486,845.1
539.03,841.1
539.574,840.9
540.118,838.1
540.662,837.1
541.205,837.8
541.749,837.7
542.292,837.6
542.835,836.3
543.378,837.1
543.921,836.9
544.464,835.1
545.006,835.0
545.549,835.6
546.091,835.1
546.634,835.2
547.176,834.6
547.718,834.6
548.26,833.5
548.802,833.6
549.343,834.8
549.885,835.4
550.426,835.1
550.968,834.9
551.509,835.1
552.05,836.3
552.591,836.3
553.132,836.1
553.673,837.7
554.214,836.8
554.754,838.8
555.295,838.8
555.835,841.4
556.375,839.1
556.915,841.0
557.455,843.7
557.995,844.0
558.535,844.0
559.075,844.6
559.614,841.6
560.154,840.7
560.693,840.1
561.232,840.3
561.772,839.7
562.311,843.7
562.85,843.8
563.388,848.8
563.927,925.3
564.466,862.8
565.004,857.9
565.543,850.3
566.081,910.6
566.619,852.1
567.157,848.9
567.695,858.8
568.233,844.2
568.771,843.1
569.309,844.2
569.846,844.2
570.384,848.1
570.921,854.7
571.458,962.5
571.995,875.3
572.532,851.6
573.069,844.4
573.606,846.4
574.143,855.0
574.68,842.8
575.216,848.5
575.753,896.1
576.289,1014.4
576.825,938.1
577.361,913.8
577.897,856.8
578.433,850.6
578.969,848.1
579.505,847.6
580.041,849.8
580.576,846.9
581.112,846.9
581.647,846.5
582.183,848.6
582.718,847.9
583.253,848.2
583.788,847.0
584.323,848.0
584.858,848.4
585.392,848.1
585.927,848.7
586.462,849.8
586.996,849.8
587.53,850.4
588.065,851.1
588.599,853.3
589.133,854.4
589.667,853.4
590.201,854.5
590.735,856.2
591.268,857.2
591.802,858.7
592.335,857.7
592.869,858.7
593.402,860.1
593.936,859.8
594.469,861.2
595.002,861.5
595.535,862.2
596.068,863.1
596.601,864.5
597.133,865.0
597.666,868.1
598.199,869.6
598.731,869.6
599.264,870.7
599.796,870.1
600.328,871.1
600.86,873.2
601.393,870.9
601.925,873.8
602.457,876.3
602.988,870.4
603.52,868.9
604.052,870.6
604.583,869.9
605.115,867.7
605.646,865.8
606.178,865.9
606.709,864.2
607.24,865.3
607.771,862.2
608.302,862.2
608.833,866.5
609.364,861.7
609.895,861.8
610.426,862.6
610.957,862.9
611.487,859.8
612.018,862.1
612.548,859.9
613.078,860.4
613.609,859.9
614.139,862.2
614.669,861.5
615.199,863.1
615.729,863.9
616.259,865.8
616.789,866.7
617.319,876.9
617.849,879.1
618.378,876.1
618.908,876.4
619.437,879.4
619.967,878.9
620.496,882.4
621.025,886.9
621.555,907.6
622.084,950.4
622.613,948.4
623.142,896.2
623.671,883.8
624.2,875.7
624.729,880.5
625.258,886.1
625.786,898.0
626.315,937.8
626.844,1351.9
627.372,2093.5
627.901,1568.0
628.429,1921.0
628.957,1529.4
629.486,1358.0
630.014,1201.1
630.542,1170.3
631.07,1002.3
631.598,904.7
632.126,887.0
632.654,875.7
633.182,870.8
633.71,870.4
634.237,867.4
634.765,862.7
635.293,858.4
635.82,857.9
636.348,858.0
636.875,857.8
637.403,855.0
637.93,847.5
638.458,849.3
638.985,848.7
639.512,849.4
640.039,848.2
640.566,849.3
641.093,849.4
641.62,848.2
642.147,849.9
642.674,847.5
643.201,848.6
643.728,848.9
644.255,847.1
644.781,846.8
645.308,846.9
645.835,848.0
646.361,846.6
646.888,848.5
647.414,847.2
647.941,847.2
648.467,849.6
648.993,849.7
649.52,847.5
650.046,847.1
650.572,848.3
651.098,848.7
651.625,849.0
652.151,848.4
652.677,847.4
653.203,847.9
653.729,847.8
654.255,848.0
654.78,848.1
655.306,847.9
655.832,847.2
656.358,847.5
656.884,846.2
657.409,845.9
657.935,845.6
658.461,845.7
658.986,846.4
659.512,848.4
660.037,848.0
660.563,849.0
661.088,845.6
661.614,842.0
662.139,843.5
662.664,843.4
663.058,842.7

File: VLFR_02-HDPE_nobio_Raman_6486f9c6.csv
nm,Intensity
526.5,829.6
527.047,828.0
527.594,828.3
528.14,828.3
528.687,828.9
529.233,828.2
529.779,828.7
530.325,827.2
530.871,828.0
531.417,828.1
531.962,837.3
532.508,832.5
533.053,829.5
533.599,828.8
534.144,893.9
534.689,880.6
535.234,872.0
535.778,857.7
536.323,851.4
536.867,850.8
537.412,850.1
537.956,847.5
538.5,847.2
539.044,846.5
539.588,843.1
540.132,843.1
540.675,840.6
541.219,839.0
541.762,839.7
542.305,839.7
542.848,841.6
543.391,840.7
543.934,839.0
544.477,841.1
545.02,840.1
545.562,840.5
546.105,840.7
546.647,841.0
547.189,838.4
547.731,837.5
548.273,838.0
548.815,838.5
549.356,840.7
549.898,839.1
550.439,838.1
550.981,839.4
551.522,839.9
552.063,842.0
552.604,839.4
553.145,840.4
553.686,841.8
554.226,843.7
554.767,843.7
555.307,841.7
555.848,845.1
556.388,846.7
556.928,848.0
557.468,851.6
558.008,849.8
558.547,852.3
559.087,849.6
559.626,850.1
560.166,851.3
560.705,846.8
561.244,847.7
561.783,848.8
562.322,851.3
562.861,852.2
563.4,859.0
563.939,954.6
564.477,877.8
565.015,871.6
565.554,867.0
566.092,1046.2
566.63,872.7
567.168,856.2
567.706,856.1
568.244,849.2
568.781,853.3
569.319,851.5
569.857,853.6
570.394,857.4
570.931,863.6
571.468,1009.7
572.005,885.4
572.542,855.7
573.079,850.1
573.616,851.5
574.153,859.7
574.689,848.7
575.226,862.6
575.762,957.4
576.298,962.3
576.834,920.9
577.371,889.2
577.907,857.1
578.442,851.9
578.978,852.0
579.514,849.5
580.049,849.7
580.585,850.0
581.12,850.6
581.656,849.9
582.191,848.9
582.726,850.6
583.261,850.0
583.796,850.8
584.331,851.9
584.865,850.8
585.4,851.5
585.935,852.9
586.469,851.8
587.004,851.7
587.538,856.1
588.072,855.0
588.606,854.9
589.14,851.8
589.674,855.6
590.208,857.1
590.742,858.6
591.275,855.6
591.809,859.5
592.342,859.4
592.876,861.8
593.409,860.4
593.942,861.1
594.476,864.0
595.009,868.5
595.542,867.4
596.075,868.2
596.607,872.4
597.14,870.8
597.673,871.5
598.205,872.4
598.738,879.5
599.27,882.3
599.803,885.2
600.335,882.0
600.867,884.9
601.399,882.9
601.931,889.3
602.463,886.5
602.995,884.0
603.527,885.1
604.058,889.8
604.59,889.7
605.122,890.5
605.653,888.8
606.184,885.4
606.716,890.8
607.247,889.7
607.778,884.8
608.309,884.4
608.84,888.2
609.371,888.1
609.902,886.9
610.433,887.7
610.964,890.8
611.494,889.3
612.025,886.5
612.556,886.1
613.086,885.2
613.616,884.5
614.147,886.0
614.677,884.6
615.207,882.8
615.737,882.9
616.267,881.9
616.797,882.0
617.327,887.0
617.857,884.2
618.387,886.2
618.917,883.9
619.446,883.4
619.976,885.7
620.505,886.3
621.035,886.0
621.564,893.5
622.093,908.9
622.623,902.8
623.152,889.2
623.681,881.8
624.21,882.2
624.739,882.1
625.268,885.6
625.797,889.8
626.326,910.6
626.855,1084.3
627.383,1482.6
627.912,1224.2
628.441,1328.0
628.969,1283.5
629.498,1194.2
630.026,1103.8
630.554,1077.0
631.083,967.3
631.611,901.4
632.139,884.5
632.667,875.8
633.195,871.8
633.724,870.6
634.252,865.0
634.779,866.9
635.307,863.2
635.835,863.3
636.363,863.3
636.891,859.9
637.418,856.7
637.946,855.0
638.474,857.1
639.001,855.9
639.529,854.4
640.056,853.8
640.583,853.8
641.111,856.3
641.638,855.5
642.165,855.1
642.692,852.7
643.22,855.6
643.747,852.5
644.274,853.9
644.801,852.8
645.328,851.1
645.854,854.7
646.381,852.7
646.908,855.2
647.435,853.7
647.962,853.7
648.488,855.3
649.015,856.2
649.542,854.3
650.068,855.3
650.595,856.0
651.121,853.4
651.648,854.4
652.174,852.7
652.7,853.6
653.227,853.0
653.753,855.4
654.279,855.1
654.805,854.0
655.331,854.2
655.858,852.7
656.384,854.5
656.91,854.6
657.436,853.4
657.962,854.3
658.488,851.5
659.013,854.5
659.539,855.2
660.065,854.9
660.591,855.4
661.117,852.6
661.642,854.1
662.168,851.9
662.694,850.8
663.088,850.1

File: VLFR_02-HDPE_nobio_Raman_44197ae2.csv
nm,Intensity
526.508,829.8
527.055,831.3
527.602,830.1
528.149,830.8
528.695,831.2
529.241,829.6
529.787,830.5
530.334,828.8
530.879,829.8
531.425,830.9
531.971,832.5
532.516,831.2
533.062,830.1
533.607,830.2
534.152,908.2
534.697,896.4
535.242,884.3
535.786,870.0
536.331,863.2
536.876,861.1
537.42,857.6
537.964,858.8
538.508,856.0
539.052,853.7
539.596,850.4
540.14,850.5
540.683,850.7
541.227,848.8
541.77,849.7
542.313,847.7
542.856,849.5
543.399,849.6
543.942,848.9
544.485,847.5
545.027,848.5
545.57,847.1
546.112,848.0
546.654,846.6
547.196,849.4
547.738,850.2
548.28,847.6
548.822,848.0
549.363,848.7
549.905,849.0
550.446,850.1
550.988,849.3
551.529,849.1
552.07,851.4
552.611,848.9
553.152,850.3
553.692,853.7
554.233,851.5
554.773,855.7
555.314,852.9
555.854,856.0
556.394,856.2
556.934,858.8
557.474,863.1
558.014,862.8
558.553,861.0
559.093,862.4
559.632,862.5
560.172,860.7
560.711,858.6
561.25,859.6
561.789,859.9
562.328,864.8
562.867,866.0
563.406,866.4
563.944,973.6
564.483,890.3
565.021,886.1
565.559,882.0
566.098,1031.5
566.636,885.0
567.174,872.0
567.711,875.1
568.249,872.6
568.787,869.0
569.324,872.8
569.862,875.8
570.399,881.6
570.936,887.2
571.474,1034.2
572.011,915.4
572.548,890.9
573.084,885.8
573.621,887.6
574.158,901.2
574.694,893.7
575.231,902.6
575.767,982.6
576.303,1024.0
576.84,984.8
577.376,959.1
577.912,931.3
578.447,932.5
578.983,940.6
579.519,944.9
580.054,953.8
580.59,960.9
581.125,976.2
581.661,983.6
582.196,994.3
582.731,1001.0
583.266,1009.5
583.801,1022.5
584.336,1026.1
584.87,1040.6
585.405,1055.4
585.94,1060.2
586.474,1077.7
587.008,1084.0
587.543,1099.0
588.077,1110.6
588.611,1124.2
589.145,1136.7
589.679,1147.0
590.213,1160.3
590.747,1169.9
591.28,1188.5
591.814,1197.8
592.347,1204.1
592.881,1210.4
593.414,1201.6
593.947,1211.9
594.48,1210.7
595.014,1217.5
595.547,1216.2
596.079,1210.2
596.612,1208.7
597.145,1212.1
597.678,1202.7
598.21,1212.2
598.743,1211.4
599.275,1205.9
599.807,1206.0
600.34,1194.8
600.872,1193.9
601.404,1188.8
601.936,1178.6
602.468,1176.1
603.0,1164.8
603.532,1165.9
604.063,1155.9
604.595,1147.5
605.126,1135.6
605.658,1121.6
606.189,1120.9
606.721,1107.2
607.252,1097.9
607.783,1100.8
608.314,1091.8
608.845,1086.6
609.376,1082.9
609.907,1080.0
610.438,1077.5
610.968,1070.5
611.499,1073.0
612.03,1062.2
612.56,1065.6
613.091,1058.2
613.621,1057.0
614.151,1052.5
614.681,1042.9
615.212,1046.5
615.742,1042.0
616.272,1034.3
616.802,1032.0
617.332,1035.9
617.861,1026.6
618.391,1026.1
618.921,1016.8
619.45,1023.2
619.98,1014.9
620.509,1017.1
621.039,1017.4
621.568,1021.4
622.097,1035.0
622.627,1031.1
623.156,1011.7
623.685,1004.0
624.214,1004.6
624.743,1005.7
625.272,1001.4
625.801,1010.5
626.33,1027.1
626.858,1216.7
627.387,1611.0
627.916,1346.7
628.444,1513.4
628.973,1399.2
629.501,1309.2
630.029,1211.4
630.558,1192.9
631.086,1085.9
631.614,1032.3
632.142,1014.8
632.67,1009.9
633.198,1006.8
633.726,1002.4
634.254,1000.7
634.782,1001.0
635.31,1002.4
635.838,1002.2
636.365,999.9
636.893,1003.7
637.421,1004.8
637.948,1006.4
638.476,1003.2
639.003,999.8
639.531,1003.3
640.058,1004.3
640.585,1003.9
641.113,1010.1
641.64,1010.5
642.167,1007.1
642.694,1017.0
643.221,1013.7
643.748,1010.6
644.275,1010.7
644.802,1008.6
645.329,1007.8
645.856,1006.5
646.382,1008.0
646.909,1006.0
647.436,1009.9
647.962,1009.2
648.489,998.5
649.016,1002.8
649.542,995.3
650.069,991.3
650.595,991.4
651.121,990.4
651.648,982.9
652.174,986.3
652.7,985.1
653.227,980.0
653.753,982.0
654.279,979.3
654.805,976.9
655.331,974.8
655.857,967.7
656.383,968.6
656.909,972.2
657.435,964.7
657.961,960.4
658.487,959.8
659.013,956.9
659.538,952.9
660.064,950.2
660.59,945.7
661.116,944.5
661.641,941.4
662.167,940.2
662.692,935.6
663.087,932.1

File: VLFR_02-HDPE_nobio_Raman_72051eae.csv
nm,Intensity
526.486,830.6
527.033,829.9
527.579,830.1
528.126,831.1
528.672,831.7
529.219,831.7
529.765,831.0
530.311,829.8
530.857,830.5
531.403,830.4
531.948,832.3
532.494,830.8
533.039,829.5
533.585,831.9
534.13,941.5
534.675,925.8
535.22,912.5
535.764,904.3
536.309,894.6
536.854,891.4
537.398,887.6
537.942,887.4
538.486,883.5
539.03,875.7
539.574,877.0
540.118,872.8
540.662,875.0
541.205,870.8
541.749,867.2
542.292,868.1
542.835,866.8
543.378,866.9
543.921,865.6
544.464,866.0
545.006,863.8
545.549,862.8
546.091,861.1
546.634,862.7
547.176,863.8
547.718,860.7
548.26,860.7
548.802,862.2
549.343,860.3
549.885,857.4
550.426,859.7
550.968,858.0
551.509,860.4
552.05,861.4
552.591,859.4
553.132,863.7
553.673,865.2
554.214,867.5
554.754,868.8
555.295,871.0
555.835,874.4
556.375,874.0
556.915,876.0
557.455,881.0
557.995,883.0
558.535,890.3
559.075,887.7
559.614,887.8
560.154,887.5
560.693,887.5
561.232,890.3
561.772,893.8
562.311,901.6
562.85,904.3
563.388,919.1
563.927,960.3
564.466,934.9
565.004,935.9
565.543,929.1
566.081,1001.5
566.619,944.8
567.157,934.0
567.695,939.0
568.233,940.2
568.771,941.8
569.309,951.6
569.846,956.6
570.384,969.0
570.921,980.5
571.458,1075.4
571.995,1029.9
572.532,1014.4
573.069,1019.2
573.606,1032.5
574.143,1064.0
574.68,1066.6
575.216,1093.3
575.753,1183.5
576.289,1279.9
576.825,1276.6
577.361,1278.4
577.897,1279.4
578.433,1316.4
578.969,1370.9
579.505,1413.9
580.041,1455.5
580.576,1500.1
581.112,1544.7
581.647,1585.1
582.183,1631.3
582.718,1674.4
583.253,1726.3
583.788,1764.2
584.323,1783.2
584.858,1829.1
585.392,1879.9
585.927,1922.0
586.462,1969.9
586.996,2039.9
587.53,2101.5
588.065,2153.7
588.599,2208.1
589.133,2251.9
589.667,2320.7
590.201,2363.8
590.735,2410.1
591.268,2459.4
591.802,2484.6
592.335,2495.8
592.869,2499.9
593.402,2505.4
593.936,2505.4
594.469,2534.8
595.002,2547.5
595.535,2586.7
596.068,2605.9
596.601,2633.8
597.133,2670.6
597.666,2706.8
598.199,2759.7
598.731,2798.0
599.264,2869.8
599.796,2868.4
600.328,2883.5
600.86,2889.0
601.393,2849.7
601.925,2840.6
602.457,2790.3
602.988,2761.2
603.52,2709.9
604.052,2642.7
604.583,2556.0
605.115,2488.4
605.646,2389.3
606.178,2306.8
606.709,2234.6
607.24,2183.6
607.771,2125.4
608.302,2096.9
608.833,2037.5
609.364,2002.7
609.895,1962.9
610.426,1913.6
610.957,1890.4
611.487,1869.0
612.018,1842.6
612.548,1829.0
613.078,1801.7
613.609,1787.4
614.139,1767.0
614.669,1732.0
615.199,1703.8
615.729,1685.2
616.259,1663.5
616.789,1636.0
617.319,1621.1
617.849,1614.4
618.378,1593.3
618.908,1577.4
619.437,1574.3
619.967,1566.3
620.496,1544.1
621.025,1529.0
621.555,1534.0
622.084,1543.3
622.613,1546.4
623.142,1515.9
623.671,1504.0
624.2,1500.5
624.729,1511.4
625.258,1506.0
625.786,1510.9
626.315,1528.8
626.844,1707.9
627.372,2143.4
627.901,1896.0
628.429,2063.1
628.957,2006.6
629.486,1892.6
630.014,1804.1
630.542,1778.1
631.07,1661.9
631.598,1585.9
632.126,1582.9
632.654,1565.3
633.182,1574.4
633.71,1565.7
634.237,1573.1
634.765,1583.3
635.293,1575.3
635.82,1596.2
636.348,1610.2
636.875,1624.2
637.403,1613.0
637.93,1635.6
638.458,1628.5
638.985,1638.9
639.512,1651.4
640.039,1668.0
640.566,1677.4
641.093,1696.2
641.62,1702.6
642.147,1711.4
642.674,1712.1
643.201,1724.6
643.728,1707.9
644.255,1717.2
644.781,1711.9
645.308,1727.1
645.835,1705.0
646.361,1708.4
646.888,1718.6
647.414,1714.8
647.941,1705.2
648.467,1708.7
648.993,1705.9
649.52,1682.6
650.046,1671.3
650.572,1675.0
651.098,1667.9
651.625,1674.8
652.151,1674.3
652.677,1671.7
653.203,1669.6
653.729,1671.0
654.255,1674.1
654.78,1662.7
655.306,1643.0
655.832,1646.9
656.358,1626.1
656.884,1621.9
657.409,1596.8
657.935,1575.3
658.461,1567.6
658.986,1541.9
659.512,1511.8
660.037,1499.1
660.563,1466.3
661.088,1444.3
661.614,1413.4
662.139,1394.5
662.664,1369.2
663.058,1357.8