Folder: MPX_specDB/spectra (part 125)

File: VLFR_08-PLA_bio_Raman_0f9108a0.csv
nm,Intensity
528.637,1834.8
529.143,1836.8
529.648,1838.6
530.153,1836.4
530.659,1838.5
531.164,1841.7
531.669,1884.8
532.174,3613.0
532.679,1837.7
533.184,1837.9
533.689,2063.2
534.194,2572.7
534.699,2515.4
535.203,2436.9
535.708,2379.3
536.213,2357.9
536.717,2375.0
537.222,2335.1
537.726,2367.0
538.231,2339.8
538.735,2303.3
539.24,2312.8
539.744,2284.0
540.248,2352.7
540.752,2374.4
541.256,2363.4
541.761,2344.0
542.265,2361.7
542.769,2338.8
543.272,2431.3
543.776,2462.5
544.28,2414.1
544.784,2379.4
545.288,2342.3
545.791,2354.1
546.295,2355.3
546.798,2379.5
547.302,2383.3
547.805,2392.7
548.308,2404.5
548.812,2394.4
549.315,2424.7
549.818,2425.1
550.321,2416.8
550.824,2439.1
551.327,2452.0
551.83,2509.4
552.333,2485.4
552.836,2509.5
553.339,2471.3
553.842,2544.2
554.344,2546.8
554.847,2510.0
555.349,2496.2
555.852,2482.4
556.354,2491.6
556.857,2497.3
557.359,2583.9
557.861,3034.4
558.363,2845.2
558.866,2609.3
559.368,2586.3
559.87,2547.2
560.372,2560.2
560.873,2560.8
561.375,2533.6
561.877,2559.4
562.379,2568.9
562.88,2641.9
563.382,2773.0
563.883,2678.1
564.385,2611.8
564.886,2743.3
565.388,2728.6
565.889,2819.2
566.39,2779.9
566.891,2634.4
567.392,2634.7
567.893,2669.7
568.394,2676.9
568.895,2689.9
569.396,2691.2
569.897,2644.7
570.398,2696.6
570.898,2683.5
571.399,2772.7
571.899,2801.5
572.4,2768.8
572.9,2769.9
573.4,2771.6
573.901,2757.2
574.401,2783.7
574.901,2729.1
575.401,2688.3
575.901,2752.7
576.401,2963.4
576.901,3080.0
577.401,2785.6
577.9,2716.6
578.4,2722.9
578.9,2706.1
579.399,2723.4
579.899,2708.7
580.398,2748.6
580.897,2757.3
581.397,2748.4
581.896,2718.7
582.395,2733.9
582.894,2756.9
583.393,2735.4
583.892,2746.1
584.391,2735.5
584.889,2737.2
585.388,2751.9
585.887,2742.4
586.385,2816.5
586.884,2988.2
587.382,3095.4
587.881,2916.9
588.379,2779.1
588.877,2788.3
589.375,2756.0
589.874,2742.9
590.372,2756.7
590.87,2747.9
591.367,2752.5
591.865,2743.5
592.363,2766.6
592.861,2749.9
593.358,2748.9
593.856,2718.0
594.353,2752.3
594.851,2724.5
595.348,2746.6
595.845,2739.4
596.342,2755.9
596.84,2763.5
597.337,2724.1
597.833,2761.7
598.33,2751.8
598.827,2756.4
599.324,2785.7
599.821,2736.0
600.317,2795.5
600.814,2753.1
601.31,2773.5
601.807,2768.8
602.303,2767.9
602.799,2774.9
603.295,2745.4
603.791,2762.9
604.287,2740.5
604.783,2764.5
605.279,2762.7
605.775,2746.1
606.271,2745.1
606.766,2732.8
607.262,2747.2
607.757,2744.2
608.253,2712.7
608.748,2753.9
609.243,2760.1
609.738,2755.6
610.233,2736.7
610.729,2760.8
611.223,2773.7
611.718,2748.1
612.213,2748.6
612.708,2731.3
613.202,2732.1
613.697,2739.4
614.192,2728.0
614.686,2729.2
615.18,2726.9
615.675,2775.5
616.169,2754.4
616.663,2729.0
617.157,2740.1
617.651,2731.0
618.145,2703.8
618.638,2734.2
619.132,2714.4
619.626,2723.6
620.119,2725.7
620.613,2717.7
621.106,2709.3
621.599,2709.1
622.093,2743.3
622.586,2773.4
623.079,2809.3
623.572,2764.7
624.065,2744.7
624.558,2698.9
625.05,2716.4
625.543,2709.4
626.036,2725.0
626.528,2719.3
627.02,2693.1
627.513,2710.0
628.005,2880.7
628.497,3142.7
628.989,3088.3
629.481,3063.0
629.973,3065.1
630.465,3484.6
630.957,5396.7
631.449,4427.6
631.94,3487.1
632.432,3327.9
632.923,3745.2
633.414,3876.5
633.906,3373.4
634.397,2894.2
634.888,2742.2
635.379,2667.8
635.87,2644.7
636.361,2652.7
636.852,2625.4
637.342,2599.1
637.833,2610.2
638.323,2598.7
638.814,2596.6
639.304,2579.1
639.794,2565.3
640.285,2573.4
640.775,2562.5
641.265,2575.7
641.755,2559.9
642.244,2595.7
642.734,2529.7
643.224,2552.6
643.713,2562.8
644.203,2546.1
644.692,2541.4
645.181,2527.5
645.671,2549.3
646.16,2493.1
646.649,2492.7
647.138,2491.5
647.627,2503.2
648.115,2473.8
648.604,2451.6
649.093,2452.3
649.581,2456.5
650.07,2472.7
650.558,2461.6
651.046,2439.3
651.534,2436.5
652.023,2424.8
652.511,2417.3
652.998,2389.5
653.486,2386.9
653.974,2412.9
654.462,2384.1
654.949,2349.2
655.437,2365.0
655.924,2366.2
656.411,2348.1
656.898,2366.7
657.385,2337.3
657.872,2350.7
658.359,2325.7
658.846,2321.5
659.333,2310.0
659.82,2298.2
660.306,2296.8
660.793,2303.2
661.036,2294.1

File: VLFR_08-PLA_bio_Raman_0f40575e.csv
nm,Intensity
526.547,833.1
527.095,832.1
527.642,831.25
528.189,831.65
528.736,832.5
529.283,831.95
529.829,832.2
530.376,831.8
530.922,831.1
531.468,831.75
532.014,846.0
532.56,832.0
533.106,832.2
533.651,834.15
534.196,958.85
534.742,935.6
535.287,914.6
535.832,903.3
536.376,902.45
536.921,900.9
537.465,898.4
538.01,900.1
538.554,892.35
539.098,890.8
539.642,886.65
540.186,885.35
540.729,894.7
541.273,897.3
541.816,890.95
542.36,888.75
542.903,891.35
543.446,905.5
543.988,910.85
544.531,893.6
545.074,891.55
545.616,886.0
546.158,887.6
546.701,889.5
547.243,891.5
547.785,891.85
548.326,891.05
548.868,891.8
549.41,892.15
549.951,893.2
550.492,896.1
551.034,895.45
551.575,897.7
552.116,898.5
552.656,898.5
553.197,900.55
553.738,897.35
554.278,905.95
554.819,899.4
555.359,896.65
555.899,893.55
556.439,895.1
556.979,897.15
557.519,908.9
558.058,990.25
558.598,914.8
559.137,904.2
559.677,904.75
560.216,901.75
560.755,901.2
561.294,899.2
561.833,897.15
562.371,900.75
562.91,908.45
563.449,930.05
563.987,915.55
564.525,908.45
565.064,918.9
565.602,915.85
566.14,938.95
566.678,915.95
567.216,904.6
567.753,911.6
568.291,909.55
568.828,909.3
569.366,911.9
569.903,910.8
570.44,909.05
570.977,912.5
571.514,929.0
572.051,922.8
572.588,919.5
573.125,922.9
573.661,924.1
574.198,920.9
574.734,930.8
575.271,915.95
575.807,914.35
576.343,925.5
576.879,962.2
577.415,926.55
577.951,917.0
578.486,916.85
579.022,914.1
579.557,916.25
580.093,917.05
580.628,915.6
581.164,916.05
581.699,918.9
582.234,917.55
582.769,915.95
583.304,918.8
583.838,916.1
584.373,918.85
584.908,915.7
585.442,919.65
585.977,922.1
586.511,930.7
587.045,945.15
587.58,962.8
588.114,930.55
588.648,919.6
589.182,919.45
589.715,917.75
590.249,919.25
590.783,918.35
591.316,917.65
591.85,922.7
592.383,918.2
592.917,919.3
593.45,918.5
593.983,920.3
594.516,917.7
595.049,920.35
595.582,919.75
596.115,918.3
596.648,919.25
597.18,921.9
597.713,922.45
598.245,923.5
598.778,921.4
599.31,920.95
599.842,923.0
600.375,918.55
600.907,920.6
601.439,920.75
601.971,921.55
602.503,921.45
603.034,919.75
603.566,922.65
604.098,918.0
604.629,922.15
605.161,918.25
605.692,917.55
606.224,917.5
606.755,915.95
607.286,920.3
607.817,918.7
608.348,918.95
608.879,918.8
609.41,917.6
609.941,920.55
610.472,918.15
611.002,916.0
611.533,916.75
612.063,917.75
612.594,916.55
613.124,919.0
613.655,918.7
614.185,920.7
614.715,918.85
615.245,920.1
615.775,917.45
616.305,919.4
616.835,920.65
617.365,920.05
617.895,920.1
618.425,921.2
618.954,919.5
619.484,917.5
620.013,915.1
620.543,917.65
621.072,915.75
621.602,919.3
622.131,921.6
622.66,924.05
623.189,929.45
623.718,924.2
624.247,920.7
624.776,920.45
625.305,918.3
625.834,917.5
626.363,915.55
626.891,917.4
627.42,920.1
627.949,927.2
628.477,970.4
629.006,957.85
629.534,958.4
630.062,958.35
630.591,1003.15
631.119,1253.2
631.647,1076.35
632.175,997.65
632.703,986.55
633.231,1054.9
633.759,1030.6
634.287,962.35
634.815,927.4
635.343,920.95
635.871,917.65
636.398,915.15
636.926,911.25
637.454,910.6
637.981,912.15
638.509,908.95
639.036,909.85
639.564,910.05
640.091,912.45
640.618,910.3
641.146,910.95
641.673,911.55
642.2,911.75
642.727,913.3
643.254,909.8
643.781,907.4
644.308,905.25
644.835,906.65
645.362,906.15
645.889,905.2
646.416,903.75
646.942,903.75
647.469,904.85
647.996,902.6
648.522,903.7
649.049,904.1
649.576,901.25
650.102,901.1
650.629,901.8
651.155,901.85
651.682,900.85
652.208,898.8
652.734,898.95
653.261,899.25
653.787,899.1
654.313,895.6
654.839,900.1
655.365,898.35
655.892,896.35
656.418,897.65
656.944,897.8
657.47,896.45
657.996,896.4
658.522,896.65
659.048,895.75
659.574,896.25
660.099,897.55
660.625,897.95
661.151,893.85
661.677,893.6
662.203,892.6
662.728,891.75
663.123,893.05

File: VLFR_08-PLA_bio_Raman_0fc1cdc9.csv
nm,Intensity
528.626,1862.8
529.132,1863.1
529.637,1864.9
530.143,1862.3
530.648,1864.0
531.153,1865.6
531.658,1906.2
532.164,4443.9
532.669,1865.9
533.174,1864.2
533.679,1948.9
534.184,2258.3
534.689,2279.8
535.194,2315.5
535.699,2368.8
536.203,2339.6
536.708,2334.7
537.213,2370.9
537.717,2345.3
538.222,2365.6
538.726,2360.9
539.231,2451.3
539.735,2360.7
540.239,2360.7
540.744,2389.3
541.248,2382.3
541.752,2401.9
542.256,2410.8
542.76,2438.2
543.264,2424.4
543.768,2493.9
544.272,2598.6
544.776,2458.4
545.28,2457.1
545.784,2483.5
546.287,2560.2
546.791,2528.8
547.294,2497.6
547.798,2514.6
548.301,2506.9
548.805,2508.9
549.308,2542.5
549.811,2561.6
550.315,2601.4
550.818,2572.7
551.321,2556.9
551.824,2633.5
552.327,2590.2
552.83,2566.6
553.333,2589.9
553.835,2596.7
554.338,2600.1
554.841,2624.7
555.343,2587.1
555.846,2614.0
556.349,2614.6
556.851,2617.2
557.353,2612.9
557.856,2668.2
558.358,2631.3
558.86,2618.8
559.362,2632.5
559.864,2649.8
560.366,2665.9
560.868,2699.8
561.37,2725.8
561.872,2943.2
562.374,4523.1
562.876,2802.5
563.377,2748.7
563.879,2712.6
564.38,2767.7
564.882,2761.9
565.383,2749.8
565.885,2786.2
566.386,2972.3
566.887,2808.1
567.388,2780.6
567.889,2783.4
568.391,2785.0
568.892,2798.4
569.392,2813.8
569.893,2805.9
570.394,2845.4
570.895,2819.5
571.395,2886.2
571.896,2887.0
572.397,2902.4
572.897,2877.0
573.397,2871.4
573.898,2858.3
574.398,2843.7
574.898,2861.7
575.398,2851.0
575.898,2866.6
576.398,2882.8
576.898,2916.3
577.398,2873.5
577.898,2861.7
578.398,2836.2
578.897,2887.6
579.397,2849.5
579.896,2892.0
580.396,2906.3
580.895,2900.5
581.395,2895.5
581.894,2907.5
582.393,2926.0
582.892,2939.9
583.391,2927.2
583.89,2935.0
584.389,2951.0
584.888,2899.7
585.387,2927.6
585.886,2909.6
586.384,2938.6
586.883,2930.3
587.381,2938.5
587.88,2945.7
588.378,2915.5
588.876,2829.9
589.375,2848.2
589.873,2883.4
590.371,2919.7
590.869,2907.6
591.367,2911.3
591.865,2915.1
592.363,2940.8
592.86,2949.5
593.358,2967.2
593.856,2938.2
594.353,2927.3
594.851,2920.8
595.348,2974.9
595.845,2946.5
596.342,2984.4
596.84,2978.5
597.337,2992.2
597.834,2970.4
598.331,2947.3
598.828,2970.7
599.324,2975.4
599.821,2975.4
600.318,2973.2
600.814,2941.8
601.311,3010.0
601.807,2975.1
602.304,2978.0
602.8,3023.7
603.296,3021.3
603.792,3004.1
604.288,2988.0
604.784,3031.2
605.28,3015.6
605.776,3001.7
606.272,2999.6
606.767,3013.7
607.263,2978.1
607.759,2988.3
608.254,2958.8
608.749,3014.2
609.245,2987.6
609.74,2998.7
610.235,2975.6
610.73,3022.7
611.225,2994.4
611.72,3043.0
612.215,2989.6
612.71,3016.3
613.204,3001.0
613.699,2992.0
614.194,2999.1
614.688,3016.5
615.182,3039.5
615.677,3021.0
616.171,2926.9
616.665,3015.2
617.159,2993.9
617.653,2979.9
618.147,3017.8
618.641,2996.3
619.135,3007.8
619.628,3020.6
620.122,3056.1
620.615,3005.7
621.109,2958.0
621.602,2989.3
622.095,2999.4
622.589,2988.0
623.082,2973.7
623.575,2980.5
624.068,3021.4
624.561,2973.9
625.053,3007.8
625.546,2958.7
626.039,2934.5
626.531,2999.8
627.024,2969.3
627.516,2957.7
628.008,2947.7
628.501,2960.8
628.993,2975.2
629.485,2972.3
629.977,2967.7
630.469,2978.2
630.96,3025.8
631.452,2976.3
631.944,2957.6
632.435,2974.9
632.927,2978.0
633.418,2971.9
633.91,2960.0
634.401,2906.7
634.892,2963.9
635.383,2917.7
635.874,2901.2
636.365,2918.2
636.856,2905.2
637.346,2895.3
637.837,2888.2
638.327,2898.8
638.818,2901.3
639.308,2896.8
639.799,2866.4
640.289,2886.3
640.779,2861.0
641.269,2885.0
641.759,2862.9
642.249,2849.8
642.738,2909.5
643.228,2867.1
643.718,2880.5
644.207,2902.7
644.697,2868.5
645.186,2917.3
645.675,2876.3
646.164,2882.9
646.653,2902.6
647.142,2883.3
647.631,2908.8
648.12,2906.6
648.609,2977.6
649.098,3039.0
649.586,3127.0
650.075,3174.2
650.563,3115.0
651.051,2990.8
651.539,2867.2
652.027,2847.0
652.515,2806.4
653.003,2780.5
653.491,2749.6
653.979,2753.1
654.467,2687.1
654.954,2692.1
655.442,2668.7
655.929,2644.5
656.416,2558.9
656.904,2614.5
657.391,2632.7
657.878,2609.3
658.365,2661.5
658.851,2607.1
659.338,2530.5
659.825,2576.5
660.311,2601.7
660.798,2586.2
661.041,2543.6

File: VLFR_08-PLA_bio_Raman_1b7bf392.csv
nm,Intensity
526.508,829.7
527.055,830.1
527.602,829.8
528.149,828.8
528.695,829.7
529.241,829.9
529.787,830.8
530.334,829.3
530.879,827.8
531.425,827.8
531.971,838.3
532.516,831.1
533.062,829.7
533.607,831.8
534.152,1034.8
534.697,993.5
535.242,958.9
535.786,938.6
536.331,938.5
536.876,941.3
537.42,930.4
537.964,926.6
538.508,921.2
539.052,918.8
539.596,916.1
540.14,909.1
540.683,923.7
541.227,926.7
541.77,921.6
542.313,912.0
542.856,917.3
543.399,937.3
543.942,940.5
544.485,929.9
545.027,919.7
545.57,912.2
546.112,907.6
546.654,915.7
547.196,916.9
547.738,919.4
548.28,922.9
548.822,918.0
549.363,924.2
549.905,922.6
550.446,926.7
550.988,926.5
551.529,930.5
552.07,928.7
552.611,932.7
553.152,933.8
553.692,929.1
554.233,936.4
554.773,938.4
555.314,928.9
555.854,925.7
556.394,926.0
556.934,926.8
557.474,941.0
558.014,1046.6
558.553,962.9
559.093,944.6
559.632,942.8
560.172,933.7
560.711,934.8
561.25,932.1
561.789,935.4
562.328,933.2
562.867,951.6
563.406,977.5
563.944,958.7
564.483,946.4
565.021,964.5
565.559,961.5
566.098,986.1
566.636,958.1
567.174,941.2
567.711,944.8
568.249,954.5
568.787,948.1
569.324,949.0
569.862,949.5
570.399,952.9
570.936,953.2
571.474,964.3
572.011,970.1
572.548,970.0
573.084,960.3
573.621,970.6
574.158,962.4
574.694,974.8
575.231,957.6
575.767,958.6
576.303,973.2
576.84,1024.7
577.376,977.0
577.912,958.3
578.447,954.5
578.983,956.2
579.519,955.2
580.054,958.8
580.59,957.5
581.125,953.8
581.661,954.1
582.196,957.0
582.731,959.4
583.266,965.7
583.801,959.3
584.336,965.0
584.87,957.6
585.405,960.4
585.94,964.9
586.474,974.7
587.008,1009.0
587.543,1022.7
588.077,980.9
588.611,968.7
589.145,957.5
589.679,958.3
590.213,958.6
590.747,959.1
591.28,961.0
591.814,961.9
592.347,960.2
592.881,958.7
593.414,958.0
593.947,960.2
594.48,966.3
595.014,960.9
595.547,959.4
596.079,959.1
596.612,961.9
597.145,962.0
597.678,958.0
598.21,960.3
598.743,959.7
599.275,956.4
599.807,964.9
600.34,963.2
600.872,963.7
601.404,956.7
601.936,958.0
602.468,956.8
603.0,961.7
603.532,958.6
604.063,965.9
604.595,957.8
605.126,957.8
605.658,958.2
606.189,950.5
606.721,952.0
607.252,952.0
607.783,956.4
608.314,958.9
608.845,957.0
609.376,957.0
609.907,955.4
610.438,954.8
610.968,955.0
611.499,954.5
612.03,953.5
612.56,956.0
613.091,956.7
613.621,961.5
614.151,963.1
614.681,960.5
615.212,958.8
615.742,951.6
616.272,953.9
616.802,958.2
617.332,951.4
617.861,955.9
618.391,957.4
618.921,961.7
619.45,955.5
619.98,959.3
620.509,957.6
621.039,957.0
621.568,952.9
622.097,954.4
622.627,964.8
623.156,971.5
623.685,967.7
624.214,957.7
624.743,959.6
625.272,956.4
625.801,955.9
626.33,953.6
626.858,956.7
627.387,957.2
627.916,968.2
628.444,1027.9
628.973,1012.1
629.501,1019.4
630.029,1016.1
630.558,1074.1
631.086,1444.2
631.614,1201.0
632.142,1072.9
632.67,1055.6
633.198,1145.3
633.726,1119.9
634.254,1015.0
634.782,971.2
635.31,961.4
635.838,953.7
636.365,951.3
636.893,949.7
637.421,944.1
637.948,943.0
638.476,942.9
639.003,941.5
639.531,942.9
640.058,946.5
640.585,944.1
641.113,945.6
641.64,944.5
642.167,941.8
642.694,941.5
643.221,934.7
643.748,938.2
644.275,934.7
644.802,934.5
645.329,931.9
645.856,934.6
646.382,929.1
646.909,932.4
647.436,929.7
647.962,930.0
648.489,928.8
649.016,928.2
649.542,926.7
650.069,923.6
650.595,927.4
651.121,922.8
651.648,925.3
652.174,922.4
652.7,926.2
653.227,926.6
653.753,922.4
654.279,925.9
654.805,922.1
655.331,922.8
655.857,923.6
656.383,923.1
656.909,923.1
657.435,923.3
657.961,920.9
658.487,924.2
659.013,920.6
659.538,920.6
660.064,919.7
660.59,921.4
661.116,919.3
661.641,917.5
662.167,914.7
662.692,914.9
663.087,915.9

File: VLFR_08-PLA_bio_Raman_1f8536ac.csv
nm,Intensity
526.495,826.1
527.042,827.8
527.589,828.2
528.136,827.5
528.682,826.4
529.229,827.9
529.775,828.4
530.321,826.1
530.867,826.5
531.413,828.0
531.959,834.2
532.505,829.3
533.051,827.1
533.596,830.6
534.141,1064.7
534.687,1012.6
535.232,970.7
535.777,940.7
536.321,933.4
536.866,938.5
537.41,925.3
537.955,928.0
538.499,907.0
539.043,906.4
539.587,906.5
540.131,893.8
540.675,913.3
541.219,922.0
541.762,903.4
542.305,901.2
542.849,903.9
543.392,929.3
543.935,943.2
544.478,911.7
545.02,899.6
545.563,894.2
546.106,894.0
546.648,894.9
547.19,899.3
547.732,901.2
548.274,898.2
548.816,900.0
549.358,901.2
549.9,899.8
550.441,902.7
550.983,907.1
551.524,907.0
552.065,912.1
552.606,912.3
553.147,916.4
553.688,911.0
554.229,918.8
554.769,907.4
555.31,903.3
555.85,897.9
556.391,899.5
556.931,906.6
557.471,922.8
558.011,1064.3
558.551,944.8
559.09,921.8
559.63,917.6
560.169,912.7
560.709,910.4
561.248,904.7
561.787,907.6
562.326,906.8
562.865,915.9
563.404,958.7
563.943,928.5
564.481,919.0
565.02,948.5
565.558,941.8
566.096,979.2
566.634,936.9
567.172,911.6
567.71,919.6
568.248,920.4
568.786,922.0
569.324,923.4
569.861,915.9
570.399,921.6
570.936,922.1
571.473,945.1
572.01,939.8
572.547,932.4
573.084,936.3
573.621,942.4
574.158,938.6
574.694,947.8
575.231,922.3
575.767,927.6
576.303,943.6
576.84,1016.1
577.376,948.4
577.912,929.9
578.448,926.6
578.984,920.5
579.519,924.6
580.055,924.4
580.59,921.1
581.126,925.7
581.661,924.4
582.196,921.7
582.731,925.4
583.267,925.4
583.801,926.8
584.336,927.1
584.871,932.0
585.406,929.3
585.94,930.1
586.475,944.5
587.009,990.1
587.543,1013.6
588.078,956.6
588.612,933.3
589.146,925.6
589.68,928.1
590.214,926.3
590.747,925.5
591.281,930.0
591.815,927.7
592.348,928.4
592.881,924.7
593.415,926.0
593.948,927.9
594.481,922.7
595.014,928.7
595.547,929.1
596.08,928.0
596.613,926.4
597.146,929.5
597.678,926.8
598.211,931.1
598.743,929.3
599.276,933.6
599.808,931.7
600.34,931.6
600.872,926.4
601.404,932.3
601.936,931.2
602.468,927.2
603.0,931.6
603.532,929.9
604.064,928.0
604.595,928.2
605.127,929.2
605.658,923.7
606.189,925.0
606.721,923.9
607.252,929.7
607.783,927.8
608.314,930.6
608.845,929.3
609.376,930.9
609.907,929.8
610.438,927.7
610.968,926.8
611.499,927.9
612.029,926.5
612.56,925.0
613.09,934.3
613.621,934.8
614.151,934.5
614.681,932.9
615.211,930.7
615.741,932.0
616.271,930.8
616.801,932.8
617.331,933.2
617.861,933.7
618.39,930.1
618.92,931.3
619.45,928.6
619.979,928.9
620.509,930.0
621.038,932.6
621.567,931.7
622.096,933.6
622.626,946.2
623.155,946.5
623.684,944.1
624.213,937.2
624.742,933.1
625.271,929.0
625.799,929.5
626.328,932.0
626.857,935.8
627.386,934.5
627.914,946.7
628.443,1025.2
628.971,1008.3
629.5,1004.9
630.028,1007.7
630.556,1082.7
631.084,1544.1
631.613,1248.3
632.141,1088.5
632.669,1061.8
633.197,1171.4
633.725,1127.5
634.253,1014.3
634.781,956.3
635.308,937.3
635.836,929.5
636.364,929.7
636.891,922.3
637.419,926.0
637.947,918.2
638.474,921.8
639.002,922.8
639.529,919.7
640.056,920.6
640.584,918.9
641.111,920.0
641.638,924.7
642.165,923.8
642.692,922.4
643.219,915.7
643.746,911.6
644.273,914.2
644.8,908.8
645.327,912.5
645.854,908.3
646.381,909.6
646.908,912.5
647.434,909.8
647.961,909.2
648.488,908.3
649.014,913.4
649.541,907.7
650.067,910.0
650.594,906.6
651.12,903.6
651.646,906.8
652.173,905.8
652.699,906.6
653.225,904.4
653.752,903.9
654.278,905.7
654.804,903.4
655.33,901.4
655.856,901.1
656.382,904.7
656.908,903.0
657.434,907.9
657.96,905.7
658.486,903.5
659.012,903.3
659.538,901.5
660.064,901.1
660.589,902.9
661.115,897.9
661.641,898.3
662.166,899.3
662.692,896.7
663.086,899.9

File: VLFR_08-PLA_bio_Raman_2d0dc074.csv
nm,Intensity
526.495,826.5
527.042,828.4
527.589,827.9
528.136,827.5
528.682,827.6
529.229,827.3
529.775,825.6
530.321,827.1
530.867,826.1
531.413,827.2
531.959,827.8
532.505,826.6
533.051,825.7
533.596,829.8
534.141,935.7
534.687,917.2
535.232,905.6
535.777,898.4
536.321,894.5
536.866,893.5
537.41,891.4
537.955,896.6
538.499,889.3
539.043,886.3
539.587,886.8
540.131,884.4
540.675,894.1
541.219,895.6
541.762,891.9
542.305,892.0
542.849,895.0
543.392,898.9
543.935,900.5
544.478,897.3
545.02,897.6
545.563,894.9
546.106,893.2
546.648,895.7
547.19,895.0
547.732,892.4
548.274,896.2
548.816,899.5
549.358,902.5
549.9,900.9
550.441,900.3
550.983,904.4
551.524,905.6
552.065,901.4
552.606,904.8
553.147,903.6
553.688,905.6
554.229,909.9
554.769,907.6
555.31,906.9
555.85,899.0
556.391,906.0
556.931,906.1
557.471,910.2
558.011,949.3
558.551,917.9
559.09,912.4
559.63,911.3
560.169,909.3
560.709,911.6
561.248,909.4
561.787,911.4
562.326,932.3
562.865,917.7
563.404,925.2
563.943,921.2
564.481,919.9
565.02,925.6
565.558,925.7
566.096,937.6
566.634,922.8
567.172,919.2
567.71,919.7
568.248,916.7
568.786,919.9
569.324,924.8
569.861,920.2
570.399,924.3
570.936,923.8
571.473,928.7
572.01,930.2
572.547,925.2
573.084,929.6
573.621,929.1
574.158,931.2
574.694,934.8
575.231,928.1
575.767,927.7
576.303,934.2
576.84,960.5
577.376,933.9
577.912,928.5
578.448,930.4
578.984,930.9
579.519,931.3
580.055,933.1
580.59,929.2
581.126,930.2
581.661,930.6
582.196,931.1
582.731,936.2
583.267,933.9
583.801,934.4
584.336,939.1
584.871,935.8
585.406,935.7
585.94,936.2
586.475,943.0
587.009,952.3
587.543,962.2
588.078,946.5
588.612,940.3
589.146,936.7
589.68,935.7
590.214,940.4
590.747,934.7
591.281,940.1
591.815,932.2
592.348,938.5
592.881,939.2
593.415,937.9
593.948,938.4
594.481,936.8
595.014,939.2
595.547,935.4
596.08,936.0
596.613,939.4
597.146,935.6
597.678,937.5
598.211,938.3
598.743,939.8
599.276,945.3
599.808,939.1
600.34,942.4
600.872,938.7
601.404,936.6
601.936,938.6
602.468,938.7
603.0,939.9
603.532,939.9
604.064,937.5
604.595,934.9
605.127,936.4
605.658,937.7
606.189,934.8
606.721,931.3
607.252,936.0
607.783,940.1
608.314,933.9
608.845,931.9
609.376,934.2
609.907,936.9
610.438,933.7
610.968,934.7
611.499,937.5
612.029,935.2
612.56,934.2
613.09,936.6
613.621,938.1
614.151,934.0
614.681,935.1
615.211,939.5
615.741,937.2
616.271,932.4
616.801,933.5
617.331,935.6
617.861,938.0
618.39,935.4
618.92,936.5
619.45,934.0
619.979,935.3
620.509,932.1
621.038,932.7
621.567,930.9
622.096,934.9
622.626,941.7
623.155,941.4
623.684,935.9
624.213,938.0
624.742,932.4
625.271,931.9
625.799,932.0
626.328,932.1
626.857,936.3
627.386,934.6
627.914,932.6
628.443,959.7
628.971,958.8
629.5,953.0
630.028,959.3
630.556,986.3
631.084,1125.5
631.613,1036.9
632.141,983.8
632.669,978.5
633.197,1013.9
633.725,999.0
634.253,958.8
634.781,937.4
635.308,933.7
635.836,933.2
636.364,928.8
636.891,925.2
637.419,922.6
637.947,926.7
638.474,927.6
639.002,924.1
639.529,923.0
640.056,926.9
640.584,926.5
641.111,926.7
641.638,925.4
642.165,923.7
642.692,923.3
643.219,925.2
643.746,922.1
644.273,921.8
644.8,922.1
645.327,919.5
645.854,921.5
646.381,921.4
646.908,924.8
647.434,919.7
647.961,921.2
648.488,926.9
649.014,927.7
649.541,925.9
650.067,932.2
650.594,926.6
651.12,932.7
651.646,932.1
652.173,927.8
652.699,921.8
653.225,922.2
653.752,917.4
654.278,920.9
654.804,914.3
655.33,915.8
655.856,913.4
656.382,911.7
656.908,913.2
657.434,911.2
657.96,907.5
658.486,907.6
659.012,905.7
659.538,910.2
660.064,910.2
660.589,906.1
661.115,903.1
661.641,907.7
662.166,904.5
662.692,905.3
663.086,903.5