Folder: MPX_specDB/spectra (part 123)

File: VLFR_07-PET_nobio_Raman_d63dd4f6.csv
nm,Intensity
791.588,7797.2
792.685,7451.8
793.781,7398.9
794.878,7289.2
795.975,7223.1
797.071,7221.7
798.168,7155.2
799.264,7147.9
800.36,7060.9
801.456,7075.3
802.552,7047.1
803.648,7028.1
804.744,7030.7
805.84,6979.4
806.936,7011.0
808.031,6930.9
809.127,6902.6
810.222,6845.4
811.317,6893.1
812.412,6790.1
813.507,6706.1
814.602,6699.7
815.697,6615.8
816.792,6607.7
817.887,6605.8
818.981,6534.8
820.076,6457.1
821.17,6359.8
822.265,6392.7
823.359,6299.6
824.453,6309.8
825.547,6280.9
826.641,6180.5
827.735,6198.2
828.828,6144.2
829.922,6062.6
831.016,6031.6
832.109,6008.2
833.202,5949.1
834.295,5959.1
835.388,5908.4
836.481,5890.7
837.574,5942.7
838.667,5940.3
839.76,5863.6
840.852,5942.9
841.945,5925.2
843.037,5849.6
844.129,5786.5
845.221,5766.9
846.314,5702.6
847.405,5630.7
848.497,5654.6
849.589,5624.5
850.681,5580.1
851.772,5599.7
852.863,5576.1
853.955,5550.3
855.046,5544.5
856.137,5504.0
857.228,5505.3
858.318,5527.7
859.409,5568.7
860.5,5539.8
861.59,5444.2
862.681,5396.0
863.771,5450.5
864.861,5396.6
865.951,5345.5
867.041,5303.0
868.131,5275.8
869.22,5305.5
870.31,5286.1
871.399,5378.7
872.488,5377.5
873.578,5400.2
874.667,5295.5
875.756,5250.1
876.845,5196.8
877.933,5174.5
879.022,5170.2
880.11,5151.5
881.199,5136.5
882.287,5116.4
883.375,5130.9
884.463,5049.9
885.551,5098.8
886.639,5066.4
887.726,5034.2
888.814,4988.4
889.901,4958.3
890.988,5022.5
892.075,4945.5
893.162,4925.0
894.249,4900.8
895.336,4886.3
896.423,4905.6
897.509,5024.7
898.595,5141.2
899.682,4964.1
900.768,4818.1
901.854,4773.9
902.94,4766.9
904.025,4746.1
905.111,4750.9
906.196,4761.1
907.282,4887.3
908.367,4860.0
909.452,4745.6
910.537,4645.2
911.622,4617.2
912.706,4593.1
913.791,4570.5
914.875,4602.6
915.959,4564.5
917.044,4527.6
918.128,4528.2
919.211,4487.6
920.295,4461.7
921.379,4468.2
922.462,4409.5
923.546,4427.8
924.629,4415.7
925.712,4388.0
926.795,4370.3
927.877,4366.1
928.96,4332.0
930.043,4300.7
931.125,4311.1
932.207,4287.6
933.289,4278.6
934.371,4258.0
935.453,4238.8
936.535,4237.2
937.616,4203.2
938.697,4205.0
939.779,4191.6
940.86,4166.7
941.941,4155.0
943.022,4160.9
944.102,4129.9
945.183,4134.0
946.263,4111.5
947.343,4107.4
948.423,4088.0
949.503,4094.8
950.583,4074.2
951.663,4066.9
952.742,4057.3
953.822,4049.9
954.901,4034.8
955.98,4020.7
957.059,4014.1
958.137,4009.7
959.216,3998.1
960.294,3991.3
961.373,3987.2
962.451,3981.6
963.529,3973.8
964.607,3971.0
965.684,3957.7
966.762,3958.1
967.839,3944.8
968.917,3935.1
969.994,3931.6
971.071,3932.1
972.147,3925.5
973.224,3919.2
974.3,3914.4
975.377,3905.6
976.453,3903.3
977.529,3898.7
978.605,3897.1
979.68,3890.1
980.756,3890.5
981.831,3890.1
982.907,3878.8
983.982,3867.5
985.057,3870.2
986.131,3863.9
987.206,3865.3
988.28,3864.4
989.355,3852.1
990.429,3853.7
991.503,3854.3
992.576,3844.1
993.65,3846.1
994.723,3842.5
995.797,3834.4
996.87,3834.3
997.943,3831.8
999.016,3833.0
1000.09,3832.5
1001.16,3827.2
1002.23,3822.5
1003.31,3820.4
1004.38,3816.2
1005.45,3815.8
1006.52,3815.1
1007.59,3810.1
1008.66,3810.2
1009.73,3806.9
1010.81,3806.1
1011.88,3804.8
1012.95,3803.0
1014.02,3800.8
1015.09,3797.9
1016.16,3799.0
1017.23,3798.6
1018.3,3796.2
1019.37,3795.7
1020.44,3797.0
1021.51,3796.4
1022.58,3796.1
1023.64,3795.4
1024.71,3790.2
1025.78,3790.1
1026.85,3789.1
1027.92,3790.0
1028.99,3782.7
1030.05,3780.8
1031.12,3778.4
1032.19,3778.2
1033.26,3780.8
1034.32,3781.0
1035.39,3782.4
1036.46,3779.7
1037.52,3780.2
1038.59,3772.2
1039.66,3776.3
1040.72,3774.5
1041.79,3771.6
1042.86,3773.8
1043.92,3770.9
1044.99,3769.6
1046.05,3770.8
1047.12,3769.4
1048.18,3770.3
1049.25,3768.2
1050.31,3770.5
1051.37,3768.9
1052.44,3766.5
1053.5,3767.5
1054.57,3767.2
1055.63,3767.4
1056.69,3767.8
1057.76,3766.0
1058.82,3765.2
1059.88,3767.8
1060.95,3765.7
1062.01,3765.4
1063.07,3765.7
1064.13,3765.2
1065.19,3766.3
1066.26,3765.1
1067.32,3763.9
1068.11,3764.9

File: VLFR_07-PET_nobio_Raman_d669b343.csv
nm,Intensity
791.377,12175.6
792.477,11023.9
793.576,10217.6
794.676,10163.1
795.775,10015.7
796.874,9936.72
797.973,9900.9
799.072,9806.2
800.171,9839.42
801.27,9727.3
802.368,9652.96
803.467,9315.64
804.565,9317.02
805.664,9227.2
806.762,9175.44
807.86,8937.98
808.958,8906.78
810.056,8857.12
811.153,8837.4
812.251,8827.46
813.349,8659.86
814.446,8616.52
815.543,8446.68
816.64,8459.32
817.737,8412.6
818.834,8328.0
819.931,8276.34
821.028,8240.94
822.125,8064.94
823.221,7979.5
824.317,7944.96
825.414,8183.46
826.51,7909.24
827.606,7722.06
828.702,7684.8
829.797,7640.66
830.893,7719.52
831.988,7513.5
833.084,7466.9
834.179,7382.38
835.274,7331.08
836.369,7348.18
837.464,7400.64
838.559,7363.7
839.654,7347.62
840.748,7455.44
841.843,7492.72
842.937,7245.6
844.031,7114.74
845.125,6898.28
846.219,6869.42
847.313,6820.62
848.407,6828.44
849.5,6727.02
850.593,6653.84
851.687,6728.18
852.78,6703.56
853.873,6655.88
854.966,6656.24
856.059,6429.54
857.151,6491.74
858.244,6594.86
859.336,6705.9
860.428,6674.62
861.52,6411.18
862.612,6327.66
863.704,6375.16
864.796,6368.64
865.888,6261.42
866.979,6223.14
868.07,6211.16
869.162,6133.96
870.253,6227.1
871.344,6348.42
872.434,6470.06
873.525,6512.16
874.615,6228.88
875.706,6081.68
876.796,6030.34
877.886,5921.44
878.976,5890.28
880.066,5901.24
881.156,5862.08
882.245,5788.58
883.335,5867.1
884.424,5757.22
885.513,5764.02
886.602,5671.0
887.691,5604.06
888.78,5614.78
889.868,5501.62
890.957,5585.88
892.045,5547.76
893.133,5433.82
894.221,5444.96
895.309,5340.18
896.397,5429.44
897.484,5661.26
898.571,6118.26
899.659,5614.18
900.746,5263.6
901.833,5209.48
902.92,5129.44
904.006,5144.48
905.093,5145.08
906.179,5270.32
907.266,5627.04
908.352,5574.24
909.438,5201.28
910.523,5012.98
911.609,4972.64
912.695,4915.2
913.78,4826.0
914.865,4837.96
915.95,4815.3
917.035,4803.0
918.12,4751.1
919.204,4724.06
920.289,4738.22
921.373,4674.58
922.457,4637.98
923.541,4632.82
924.625,4616.16
925.709,4564.08
926.792,4556.3
927.876,4560.58
928.959,4507.24
930.042,4487.58
931.125,4451.36
932.208,4436.16
933.29,4419.86
934.373,4397.86
935.455,4366.18
936.537,4364.9
937.619,4338.64
938.701,4317.64
939.782,4318.7
940.864,4279.72
941.945,4266.9
943.026,4257.88
944.107,4232.8
945.188,4220.88
946.269,4224.88
947.349,4189.1
948.43,4181.14
949.51,4173.86
950.59,4141.24
951.67,4132.04
952.75,4119.2
953.829,4109.32
954.909,4103.8
955.988,4086.1
957.067,4083.44
958.146,4057.94
959.224,4056.9
960.303,4063.38
961.381,4043.28
962.459,4021.84
963.537,4019.8
964.615,4007.58
965.693,4005.82
966.771,3997.24
967.848,3983.38
968.925,3971.82
970.002,3968.78
971.079,3961.52
972.156,3955.98
973.232,3942.78
974.309,3933.62
975.385,3929.7
976.461,3925.96
977.537,3918.68
978.612,3909.86
979.688,3910.68
980.763,3895.92
981.838,3901.02
982.913,3888.18
983.988,3883.12
985.063,3882.04
986.137,3880.66
987.211,3871.12
988.285,3867.76
989.359,3860.46
990.433,3852.48
991.506,3849.46
992.58,3844.36
993.653,3844.08
994.726,3836.96
995.799,3834.18
996.872,3828.48
997.944,3825.18
999.016,3824.88
1000.09,3818.38
1001.16,3815.08
1002.23,3812.0
1003.3,3807.74
1004.38,3800.38
1005.45,3805.6
1006.52,3800.62
1007.59,3797.0
1008.66,3795.0
1009.73,3790.6
1010.8,3786.22
1011.87,3786.24
1012.94,3785.4
1014.01,3783.82
1015.08,3783.16
1016.15,3781.3
1017.22,3781.46
1018.29,3776.14
1019.36,3775.68
1020.42,3777.4
1021.49,3780.28
1022.56,3783.5
1023.63,3781.78
1024.7,3773.16
1025.76,3768.98
1026.83,3765.72
1027.9,3763.38
1028.97,3760.6
1030.03,3755.88
1031.1,3755.12
1032.17,3754.52
1033.23,3756.38
1034.3,3760.8
1035.36,3761.82
1036.43,3758.38
1037.5,3753.64
1038.56,3749.74
1039.63,3747.56
1040.69,3746.88
1041.76,3744.72
1042.82,3744.1
1043.89,3744.3
1044.95,3743.74
1046.01,3741.86
1047.08,3742.26
1048.14,3740.32
1049.2,3740.48
1050.27,3740.12
1051.33,3739.26
1052.39,3739.2
1053.46,3740.5
1054.52,3738.82
1055.58,3739.48
1056.64,3738.8
1057.7,3738.36
1058.77,3737.14
1059.83,3738.02
1060.89,3737.7
1061.95,3737.46
1063.01,3737.48
1064.07,3736.3
1065.13,3737.38
1066.19,3736.64
1067.25,3734.86
1068.05,3735.08

File: VLFR_07-PET_nobio_Raman_dd2c1905.csv
nm,Intensity
791.588,11681.8
792.685,10772.2
793.781,10125.2
794.878,9904.2
795.975,9747.1
797.071,9667.8
798.168,9571.4
799.264,9731.1
800.36,9569.1
801.456,9561.5
802.552,9537.2
803.648,9363.9
804.744,9235.9
805.84,9150.5
806.936,9184.2
808.031,9046.8
809.127,8940.8
810.222,8920.8
811.317,8861.8
812.412,8709.3
813.507,8797.2
814.602,8648.6
815.697,8545.2
816.792,8503.1
817.887,8504.2
818.981,8421.4
820.076,8334.3
821.17,8210.4
822.265,8189.3
823.359,8198.5
824.453,8045.3
825.547,8378.5
826.641,7983.3
827.735,7951.3
828.828,7967.0
829.922,7813.8
831.016,7947.5
832.109,7694.8
833.202,7643.6
834.295,7619.1
835.388,7517.4
836.481,7541.1
837.574,7626.8
838.667,7548.6
839.76,7494.3
840.852,7713.8
841.945,7710.1
843.037,7439.1
844.129,7352.7
845.221,7171.1
846.314,7029.2
847.405,6973.8
848.497,6891.4
849.589,6872.1
850.681,6906.3
851.772,6850.0
852.863,6862.6
853.955,6838.9
855.046,6690.1
856.137,6708.8
857.228,6675.4
858.318,6773.2
859.409,6847.9
860.5,6734.9
861.59,6588.4
862.681,6507.8
863.771,6477.9
864.861,6574.5
865.951,6424.8
867.041,6288.9
868.131,6302.0
869.22,6377.8
870.31,6395.1
871.399,6468.9
872.488,6725.7
873.578,6692.1
874.667,6450.2
875.756,6283.7
876.845,6206.1
877.933,6076.3
879.022,6066.8
880.11,6024.0
881.199,6040.7
882.287,6056.9
883.375,5968.7
884.463,5979.9
885.551,6036.4
886.639,5876.4
887.726,5842.6
888.814,5768.8
889.901,5760.1
890.988,5793.6
892.075,5777.4
893.162,5639.1
894.249,5646.7
895.336,5584.0
896.423,5633.4
897.509,5993.4
898.595,6427.8
899.682,5923.5
900.768,5482.3
901.854,5394.5
902.94,5351.3
904.025,5356.4
905.111,5339.9
906.196,5502.7
907.282,5853.4
908.367,5833.6
909.452,5472.9
910.537,5217.2
911.622,5111.5
912.706,5064.5
913.791,5036.7
914.875,5022.4
915.959,4950.7
917.044,4913.9
918.128,4927.3
919.211,4913.1
920.295,4818.9
921.379,4836.8
922.462,4770.2
923.546,4774.6
924.629,4727.2
925.712,4707.9
926.795,4694.3
927.877,4665.8
928.96,4610.9
930.043,4609.5
931.125,4600.9
932.207,4573.7
933.289,4546.8
934.371,4497.1
935.453,4474.2
936.535,4458.8
937.616,4439.4
938.697,4411.8
939.779,4396.3
940.86,4395.6
941.941,4351.0
943.022,4346.0
944.102,4328.4
945.183,4305.5
946.263,4293.6
947.343,4282.5
948.423,4257.3
949.503,4263.4
950.583,4233.4
951.663,4214.3
952.742,4187.3
953.822,4188.1
954.901,4172.5
955.98,4164.3
957.059,4155.8
958.137,4144.4
959.216,4124.3
960.294,4107.1
961.373,4099.4
962.451,4090.3
963.529,4082.7
964.607,4082.6
965.684,4065.5
966.762,4046.6
967.839,4038.2
968.917,4024.1
969.994,4024.9
971.071,4017.8
972.147,3995.7
973.224,3996.7
974.3,3996.8
975.377,3980.7
976.453,3974.5
977.529,3968.3
978.605,3961.8
979.68,3946.2
980.756,3945.7
981.831,3938.7
982.907,3930.1
983.982,3927.6
985.057,3929.8
986.131,3918.7
987.206,3913.2
988.28,3903.2
989.355,3904.6
990.429,3897.0
991.503,3890.7
992.576,3888.6
993.65,3880.7
994.723,3876.8
995.797,3876.2
996.87,3868.2
997.943,3860.4
999.016,3859.0
1000.09,3857.9
1001.16,3854.7
1002.23,3845.1
1003.31,3845.2
1004.38,3839.1
1005.45,3840.8
1006.52,3836.6
1007.59,3834.6
1008.66,3825.2
1009.73,3825.9
1010.81,3821.1
1011.88,3820.9
1012.95,3820.1
1014.02,3820.3
1015.09,3816.1
1016.16,3813.7
1017.23,3817.3
1018.3,3807.7
1019.37,3811.1
1020.44,3807.5
1021.51,3814.2
1022.58,3818.7
1023.64,3811.7
1024.71,3804.1
1025.78,3802.1
1026.85,3797.1
1027.92,3796.0
1028.99,3792.5
1030.05,3787.5
1031.12,3785.7
1032.19,3782.2
1033.26,3786.8
1034.32,3788.3
1035.39,3788.3
1036.46,3785.9
1037.52,3782.0
1038.59,3780.1
1039.66,3775.6
1040.72,3775.5
1041.79,3772.5
1042.86,3772.1
1043.92,3773.4
1044.99,3770.6
1046.05,3771.2
1047.12,3769.5
1048.18,3770.3
1049.25,3768.2
1050.31,3768.5
1051.37,3768.1
1052.44,3769.8
1053.5,3767.8
1054.57,3768.4
1055.63,3767.7
1056.69,3766.7
1057.76,3766.1
1058.82,3766.0
1059.88,3765.8
1060.95,3765.4
1062.01,3764.7
1063.07,3764.0
1064.13,3763.6
1065.19,3764.2
1066.26,3764.5
1067.32,3766.2
1068.11,3761.3

File: VLFR_07-PET_nobio_Raman_e0a7b624.csv
nm,Intensity
791.75,14544.6
792.846,13493.1
793.942,13033.0
795.037,13045.3
796.133,12716.3
797.228,12644.0
798.324,12874.8
799.419,12927.1
800.514,12756.3
801.61,12642.3
802.705,12337.8
803.8,12322.0
804.894,12167.2
805.989,12078.8
807.084,11754.8
808.178,11736.8
809.273,11583.2
810.367,11601.0
811.461,11540.0
812.556,11254.5
813.65,11312.5
814.744,11149.5
815.837,11097.8
816.931,10913.3
818.025,10927.3
819.118,10775.8
820.212,10805.5
821.305,10702.3
822.398,10482.7
823.491,10568.3
824.585,10385.5
825.677,10596.4
826.77,10050.5
827.863,10034.5
828.956,9951.55
830.048,9994.8
831.14,9801.15
832.233,9678.5
833.325,9426.1
834.417,9608.35
835.509,9374.05
836.601,9498.45
837.692,9356.8
838.784,9249.5
839.876,9179.1
840.967,9692.3
842.058,9080.95
843.149,9125.1
844.24,8807.6
845.331,8629.85
846.422,8561.05
847.513,8444.5
848.604,8461.6
849.694,8294.1
850.784,8339.1
851.875,8347.95
852.965,8368.65
854.055,8187.95
855.145,8119.8
856.235,7995.4
857.324,8064.4
858.414,8142.15
859.503,8244.5
860.593,8062.6
861.682,7905.6
862.771,7802.8
863.86,7852.6
864.949,7763.25
866.038,7608.8
867.126,7471.55
868.215,7626.9
869.303,7548.5
870.391,7653.4
871.479,7775.45
872.567,7915.0
873.655,7801.45
874.743,7510.3
875.831,7355.75
876.918,7175.95
878.006,7182.75
879.093,7108.1
880.18,7060.7
881.267,7097.6
882.354,7101.4
883.441,6950.85
884.527,6922.5
885.614,6955.85
886.7,6691.15
887.786,6734.95
888.872,6664.15
889.958,6639.2
891.044,6631.95
892.13,6525.7
893.216,6459.25
894.301,6360.55
895.386,6312.85
896.472,6452.2
897.557,7068.85
898.642,6994.75
899.726,6344.65
900.811,6088.25
901.896,6000.6
902.98,6042.95
904.064,5894.6
905.148,5977.2
906.232,6238.25
907.316,6473.45
908.4,6176.9
909.484,5868.1
910.567,5698.55
911.65,5637.35
912.734,5559.95
913.817,5475.0
914.9,5437.55
915.982,5428.5
917.065,5340.15
918.147,5303.05
919.23,5279.3
920.312,5307.75
921.394,5197.3
922.476,5187.35
923.558,5099.15
924.639,5067.05
925.721,5059.05
926.802,4993.15
927.884,4960.2
928.965,4920.2
930.046,4887.6
931.126,4852.1
932.207,4822.15
933.288,4809.65
934.368,4766.0
935.448,4712.9
936.528,4702.1
937.608,4699.7
938.688,4635.15
939.767,4616.0
940.847,4580.55
941.926,4563.65
943.005,4533.4
944.084,4487.45
945.163,4504.2
946.242,4465.9
947.321,4441.4
948.399,4411.15
949.477,4424.15
950.556,4350.85
951.634,4345.45
952.711,4320.7
953.789,4312.65
954.867,4301.35
955.944,4281.15
957.021,4264.2
958.098,4245.45
959.175,4241.5
960.252,4211.75
961.328,4196.8
962.405,4165.35
963.481,4172.8
964.557,4143.9
965.633,4135.6
966.709,4127.1
967.785,4119.55
968.86,4090.5
969.936,4087.6
971.011,4068.3
972.086,4070.75
973.161,4046.55
974.235,4033.4
975.31,4019.05
976.384,4012.9
977.459,4001.3
978.533,3993.15
979.607,3987.9
980.68,3970.65
981.754,3965.95
982.827,3958.15
983.901,3948.9
984.974,3947.1
986.047,3928.05
987.119,3920.9
988.192,3919.6
989.264,3907.4
990.337,3896.95
991.409,3894.9
992.481,3888.55
993.553,3873.7
994.624,3869.3
995.696,3862.35
996.767,3857.55
997.838,3854.95
998.909,3846.0
999.98,3838.0
1001.05,3841.3
1002.12,3831.65
1003.19,3827.1
1004.26,3818.85
1005.33,3816.15
1006.4,3811.55
1007.47,3808.0
1008.54,3803.35
1009.61,3793.0
1010.68,3794.4
1011.75,3790.9
1012.82,3782.75
1013.88,3786.65
1014.95,3781.45
1016.02,3779.5
1017.09,3775.2
1018.16,3772.7
1019.22,3772.25
1020.29,3774.3
1021.36,3775.95
1022.43,3779.25
1023.49,3774.4
1024.56,3765.45
1025.63,3756.95
1026.69,3753.75
1027.76,3748.2
1028.83,3745.45
1029.89,3741.2
1030.96,3743.25
1032.02,3739.8
1033.09,3743.65
1034.15,3746.0
1035.22,3745.1
1036.28,3740.6
1037.35,3734.7
1038.41,3730.1
1039.48,3727.9
1040.54,3728.25
1041.6,3726.9
1042.67,3725.15
1043.73,3723.45
1044.79,3723.35
1045.86,3719.5
1046.92,3720.3
1047.98,3719.9
1049.05,3719.2
1050.11,3717.6
1051.17,3718.6
1052.23,3717.45
1053.29,3718.3
1054.36,3715.55
1055.42,3717.8
1056.48,3714.05
1057.54,3714.75
1058.6,3714.45
1059.66,3716.25
1060.72,3712.6
1061.78,3712.7
1062.84,3711.85
1063.9,3713.5
1064.96,3712.25
1066.02,3713.65
1067.08,3712.15
1067.88,3711.35

File: VLFR_07-PET_nobio_Raman_e5af63c6.csv
nm,Intensity
791.377,12236.8
792.477,10981.9
793.576,10255.7
794.676,9942.24
795.775,9703.78
796.874,9614.3
797.973,9549.74
799.072,9624.42
800.171,9560.18
801.27,9503.66
802.368,9450.78
803.467,9236.0
804.565,9080.22
805.664,9060.42
806.762,9082.08
807.86,8933.46
808.958,8865.42
810.056,8772.7
811.153,8656.78
812.251,8624.9
813.349,8445.88
814.446,8321.58
815.543,8330.98
816.64,8370.34
817.737,8108.6
818.834,8063.78
819.931,8010.84
821.028,7870.6
822.125,7874.36
823.221,7853.32
824.317,7763.34
825.414,7878.7
826.51,7749.14
827.606,7601.32
828.702,7446.7
829.797,7535.04
830.893,7600.78
831.988,7405.96
833.084,7318.04
834.179,7299.4
835.274,7243.94
836.369,7292.0
837.464,7275.28
838.559,7268.4
839.654,7217.68
840.748,7395.22
841.843,7624.72
842.937,7148.14
844.031,7039.82
845.125,6899.96
846.219,6742.52
847.313,6724.76
848.407,6689.3
849.5,6568.86
850.593,6553.2
851.687,6659.12
852.78,6518.04
853.873,6522.6
854.966,6484.08
856.059,6407.84
857.151,6342.32
858.244,6381.44
859.336,6568.58
860.428,6568.9
861.52,6310.02
862.612,6214.52
863.704,6231.04
864.796,6241.78
865.888,6123.74
866.979,6024.2
868.07,6005.74
869.162,6055.9
870.253,6024.84
871.344,6181.08
872.434,6419.26
873.525,6410.96
874.615,6151.82
875.706,5955.58
876.796,5847.54
877.886,5803.84
878.976,5833.72
880.066,5764.6
881.156,5726.74
882.245,5761.28
883.335,5696.88
884.424,5664.2
885.513,5723.24
886.602,5618.74
887.691,5604.64
888.78,5455.3
889.868,5511.88
890.957,5490.3
892.045,5483.8
893.133,5436.36
894.221,5383.02
895.309,5332.88
896.397,5401.12
897.484,5618.6
898.571,6112.8
899.659,5698.04
900.746,5226.46
901.833,5203.18
902.92,5133.36
904.006,5137.14
905.093,5087.86
906.179,5256.88
907.266,5619.74
908.352,5589.04
909.438,5280.88
910.523,4988.08
911.609,4918.78
912.695,4870.52
913.78,4838.58
914.865,4816.42
915.95,4774.8
917.035,4775.12
918.12,4743.5
919.204,4713.66
920.289,4670.4
921.373,4649.0
922.457,4608.96
923.541,4603.56
924.625,4583.84
925.709,4566.7
926.792,4511.86
927.876,4513.4
928.959,4455.58
930.042,4470.02
931.125,4406.98
932.208,4399.24
933.29,4401.72
934.373,4369.9
935.455,4361.74
936.537,4329.1
937.619,4308.04
938.701,4286.92
939.782,4266.68
940.864,4253.72
941.945,4255.58
943.026,4224.6
944.107,4211.36
945.188,4182.96
946.269,4185.44
947.349,4168.24
948.43,4151.02
949.51,4142.34
950.59,4135.42
951.67,4108.94
952.75,4096.96
953.829,4084.12
954.909,4082.04
955.988,4067.6
957.067,4070.76
958.146,4051.96
959.224,4032.14
960.303,4026.46
961.381,4018.36
962.459,3997.76
963.537,4004.2
964.615,3981.44
965.693,3986.32
966.771,3980.46
967.848,3969.52
968.925,3970.92
970.002,3954.06
971.079,3943.14
972.156,3945.24
973.232,3931.66
974.309,3927.72
975.385,3924.8
976.461,3910.52
977.537,3907.66
978.612,3906.36
979.688,3904.7
980.763,3890.82
981.838,3886.76
982.913,3888.92
983.988,3876.2
985.063,3875.92
986.137,3871.62
987.211,3869.44
988.285,3858.64
989.359,3858.0
990.433,3848.8
991.506,3848.72
992.58,3844.4
993.653,3834.9
994.726,3828.72
995.799,3832.74
996.872,3828.4
997.944,3823.02
999.016,3824.8
1000.09,3816.88
1001.16,3813.82
1002.23,3812.06
1003.3,3809.14
1004.38,3807.56
1005.45,3800.88
1006.52,3800.74
1007.59,3798.58
1008.66,3797.48
1009.73,3791.44
1010.8,3788.84
1011.87,3787.72
1012.94,3786.84
1014.01,3784.56
1015.08,3784.38
1016.15,3783.22
1017.22,3781.72
1018.29,3779.04
1019.36,3775.4
1020.42,3777.62
1021.49,3780.3
1022.56,3786.56
1023.63,3785.28
1024.7,3779.74
1025.76,3773.1
1026.83,3769.3
1027.9,3765.24
1028.97,3761.72
1030.03,3759.72
1031.1,3758.28
1032.17,3758.34
1033.23,3756.88
1034.3,3762.02
1035.36,3763.28
1036.43,3763.16
1037.5,3756.06
1038.56,3751.06
1039.63,3750.1
1040.69,3748.04
1041.76,3747.38
1042.82,3746.66
1043.89,3746.7
1044.95,3745.28
1046.01,3743.7
1047.08,3743.48
1048.14,3743.32
1049.2,3741.6
1050.27,3742.14
1051.33,3742.66
1052.39,3741.44
1053.46,3740.66
1054.52,3740.82
1055.58,3741.52
1056.64,3740.1
1057.7,3741.52
1058.77,3740.24
1059.83,3739.28
1060.89,3739.5
1061.95,3738.84
1063.01,3739.68
1064.07,3739.36
1065.13,3739.1
1066.19,3739.36
1067.25,3738.04
1068.05,3738.16

File: VLFR_07-PET_nobio_Raman_e6a0c62d.csv
nm,Intensity
791.377,12942.6
792.477,11646.7
793.576,11039.9
794.676,10610.6
795.775,10403.7
796.874,10348.5
797.973,10299.8
799.072,10468.7
800.171,10232.0
801.27,10364.0
802.368,10295.2
803.467,10190.6
804.565,10003.5
805.664,10030.8
806.762,9956.12
807.86,9847.34
808.958,9702.42
810.056,9515.96
811.153,9661.26
812.251,9466.68
813.349,9526.08
814.446,9167.64
815.543,9230.96
816.64,9102.54
817.737,9050.92
818.834,8894.24
819.931,8876.82
821.028,8817.6
822.125,8772.34
823.221,8592.32
824.317,8515.38
825.414,8646.84
826.51,8672.22
827.606,8392.32
828.702,8276.22
829.797,8363.96
830.893,8351.62
831.988,8107.82
833.084,8091.72
834.179,8111.92
835.274,8018.32
836.369,8056.82
837.464,7975.12
838.559,8070.22
839.654,7892.88
840.748,7977.02
841.843,8167.32
842.937,7790.32
844.031,7724.4
845.125,7554.42
846.219,7394.3
847.313,7304.36
848.407,7323.06
849.5,7254.96
850.593,7135.68
851.687,7136.22
852.78,7167.52
853.873,7149.1
854.966,7073.1
856.059,6965.0
857.151,6929.6
858.244,7002.46
859.336,7024.58
860.428,7063.82
861.52,6922.4
862.612,6745.9
863.704,6734.9
864.796,6772.92
865.888,6592.68
866.979,6537.2
868.07,6471.02
869.162,6470.1
870.253,6673.92
871.344,6640.78
872.434,6774.0
873.525,6867.84
874.615,6624.62
875.706,6438.0
876.796,6363.26
877.886,6319.82
878.976,6214.88
880.066,6204.4
881.156,6167.14
882.245,6164.0
883.335,6071.34
884.424,6117.28
885.513,6125.14
886.602,6013.48
887.691,5955.12
888.78,5944.68
889.868,5874.08
890.957,5850.56
892.045,5841.42
893.133,5780.18
894.221,5743.28
895.309,5703.74
896.397,5708.1
897.484,5829.26
898.571,6484.3
899.659,6072.7
900.746,5593.9
901.833,5475.46
902.92,5443.2
904.006,5431.42
905.093,5407.38
906.179,5478.46
907.266,5746.04
908.352,5931.66
909.438,5604.32
910.523,5357.28
911.609,5202.62
912.695,5143.5
913.78,5052.74
914.865,5118.14
915.95,4998.58
917.035,4992.86
918.12,4981.32
919.204,4940.56
920.289,4928.04
921.373,4871.86
922.457,4812.36
923.541,4821.6
924.625,4760.72
925.709,4754.2
926.792,4723.42
927.876,4696.0
928.959,4640.04
930.042,4620.0
931.125,4596.86
932.208,4541.22
933.29,4528.36
934.373,4517.68
935.455,4466.4
936.537,4457.08
937.619,4440.3
938.701,4415.76
939.782,4378.42
940.864,4384.08
941.945,4351.02
943.026,4326.22
944.107,4299.56
945.188,4283.04
946.269,4284.54
947.349,4258.16
948.43,4245.96
949.51,4219.8
950.59,4213.74
951.67,4192.84
952.75,4186.22
953.829,4164.48
954.909,4152.82
955.988,4120.22
957.067,4129.14
958.146,4109.4
959.224,4098.34
960.303,4080.96
961.381,4084.88
962.459,4064.2
963.537,4052.14
964.615,4051.22
965.693,4018.0
966.771,4033.3
967.848,4019.1
968.925,4017.52
970.002,3990.64
971.079,3991.66
972.156,3983.14
973.232,3968.48
974.309,3965.34
975.385,3957.38
976.461,3943.42
977.537,3941.66
978.612,3930.42
979.688,3933.3
980.763,3923.02
981.838,3907.88
982.913,3915.36
983.988,3908.18
985.063,3895.06
986.137,3889.92
987.211,3886.2
988.285,3883.84
989.359,3868.4
990.433,3870.62
991.506,3865.3
992.58,3861.1
993.653,3853.58
994.726,3848.88
995.799,3844.96
996.872,3840.44
997.944,3837.36
999.016,3830.5
1000.09,3828.46
1001.16,3820.94
1002.23,3818.34
1003.3,3812.68
1004.38,3813.76
1005.45,3807.02
1006.52,3802.64
1007.59,3798.1
1008.66,3796.52
1009.73,3790.46
1010.8,3790.88
1011.87,3788.24
1012.94,3785.32
1014.01,3785.34
1015.08,3779.18
1016.15,3777.84
1017.22,3776.94
1018.29,3773.94
1019.36,3770.78
1020.42,3769.16
1021.49,3772.68
1022.56,3776.1
1023.63,3777.8
1024.7,3769.58
1025.76,3764.16
1026.83,3758.62
1027.9,3757.44
1028.97,3753.44
1030.03,3749.84
1031.1,3745.74
1032.17,3745.44
1033.23,3747.04
1034.3,3748.56
1035.36,3750.24
1036.43,3748.94
1037.5,3746.66
1038.56,3740.12
1039.63,3735.8
1040.69,3735.44
1041.76,3733.26
1042.82,3733.72
1043.89,3732.72
1044.95,3730.68
1046.01,3729.56
1047.08,3729.7
1048.14,3728.28
1049.2,3728.34
1050.27,3727.4
1051.33,3727.84
1052.39,3727.2
1053.46,3726.72
1054.52,3725.48
1055.58,3726.26
1056.64,3725.52
1057.7,3724.8
1058.77,3723.44
1059.83,3725.1
1060.89,3723.42
1061.95,3724.54
1063.01,3723.44
1064.07,3723.62
1065.13,3723.28
1066.19,3722.48
1067.25,3722.18
1068.05,3722.14