Folder: MPX_specDB/spectra (part 162)

File: VLFR_09-PET_bio_Raman_02ad0209.csv
nm,Intensity
528.65,1846.65
529.155,1846.2
529.66,1845.2
530.165,1843.4
530.67,1846.2
531.175,1845.5
531.68,1875.7
532.185,3478.7
532.69,1848.8
533.194,1858.85
533.699,3240.5
534.204,7269.55
534.708,7242.8
535.213,7083.4
535.717,6989.9
536.222,6821.4
536.726,6822.8
537.231,6936.1
537.735,7072.75
538.239,7080.1
538.743,7226.9
539.247,7591.25
539.751,7749.0
540.255,7887.0
540.759,7698.1
541.263,7813.3
541.767,8075.85
542.271,8245.5
542.775,8501.1
543.279,8584.55
543.782,8616.75
544.286,8600.45
544.789,8926.55
545.293,8942.6
545.796,9105.3
546.3,9152.25
546.803,9298.4
547.306,9306.55
547.81,9449.65
548.313,9503.8
548.816,9726.15
549.319,9731.1
549.822,9830.65
550.325,9938.55
550.828,10411.6
551.331,10090.7
551.834,10345.3
552.337,10570.7
552.839,10652.3
553.342,10514.3
553.844,10936.0
554.347,10859.0
554.849,10996.5
555.352,11364.5
555.854,11367.3
556.357,11487.7
556.859,11665.7
557.361,12219.7
557.863,12489.2
558.365,12036.0
558.867,12159.3
559.369,12287.1
559.871,12246.0
560.373,12204.2
560.875,12564.9
561.377,12657.2
561.878,12952.2
562.38,12909.7
562.881,13142.3
563.383,13084.2
563.884,13187.9
564.386,13350.2
564.887,13658.4
565.388,14027.3
565.89,14227.2
566.391,13832.0
566.892,13817.3
567.393,13945.1
567.894,14293.7
568.395,14157.2
568.896,14261.9
569.396,14089.4
569.897,14908.2
570.398,14938.2
570.898,15085.0
571.399,16619.9
571.9,15833.5
572.4,15453.3
572.9,15336.8
573.401,15343.6
573.901,15415.3
574.401,15256.3
574.901,15384.5
575.401,16170.3
575.901,15693.8
576.401,15990.9
576.901,16293.4
577.401,15742.0
577.901,16140.9
578.4,15719.0
578.9,15848.4
579.399,16040.0
579.899,16835.9
580.398,16703.5
580.898,16391.8
581.397,16999.6
581.896,19844.6
582.395,19334.7
582.895,16868.6
583.394,16769.4
583.893,17247.3
584.391,16972.6
584.89,17304.7
585.389,17462.8
585.888,20495.6
586.386,19558.3
586.885,17592.3
587.384,17745.9
587.882,17522.9
588.38,17487.8
588.879,17455.3
589.377,17511.5
589.875,17412.8
590.373,17557.2
590.871,17402.7
591.369,17696.9
591.867,18053.7
592.365,17764.5
592.863,18107.2
593.361,17851.3
593.858,17928.8
594.356,17576.6
594.853,17989.8
595.351,17998.1
595.848,18203.4
596.345,18622.7
596.843,18496.1
597.34,18299.8
597.837,18442.1
598.334,18425.3
598.831,18340.9
599.328,18514.1
599.824,18892.9
600.321,18701.4
600.818,18913.6
601.314,19207.5
601.811,18971.1
602.307,18749.8
602.804,18946.4
603.3,19345.8
603.796,19177.8
604.293,19308.9
604.789,19502.1
605.285,19166.2
605.781,19298.8
606.277,19397.3
606.772,19715.9
607.268,20064.5
607.764,19546.2
608.259,20008.7
608.755,20141.1
609.25,20135.8
609.746,20093.3
610.241,20581.6
610.736,20184.0
611.231,20945.4
611.727,20880.1
612.222,21132.7
612.716,20753.8
613.211,20783.8
613.706,21354.8
614.201,21451.8
614.695,21456.8
615.19,22000.6
615.684,22126.3
616.179,21483.4
616.673,21876.1
617.168,22044.9
617.662,22951.9
618.156,22749.7
618.65,23046.1
619.144,23288.0
619.638,22890.6
620.131,23139.8
620.625,23454.5
621.119,23084.8
621.612,23270.8
622.106,23458.7
622.599,23632.5
623.093,24409.2
623.586,23873.8
624.079,24498.2
624.572,24580.5
625.065,24692.0
625.558,24359.7
626.051,24626.4
626.544,25417.4
627.037,24824.6
627.529,26096.4
628.022,25579.3
628.514,26006.7
629.007,26244.7
629.499,26141.2
629.991,25822.4
630.483,25977.1
630.976,26440.1
631.468,27380.8
631.959,27499.1
632.451,26736.6
632.943,27629.7
633.435,27653.0
633.926,27000.2
634.418,27516.3
634.909,26865.3
635.401,27001.0
635.892,27550.8
636.383,28938.1
636.874,27782.2
637.365,27799.3
637.856,27148.6
638.347,28220.6
638.838,27983.8
639.329,27956.3
639.819,27598.1
640.31,27882.9
640.8,28005.7
641.291,27651.8
641.781,27589.7
642.271,27610.1
642.761,27719.7
643.251,27725.7
643.741,27792.8
644.231,28971.3
644.721,27217.1
645.211,28292.3
645.7,27686.2
646.19,28269.8
646.679,27555.9
647.169,26891.9
647.658,27428.7
648.147,27220.8
648.636,26344.8
649.125,27069.8
649.614,26487.7
650.103,26501.3
650.592,26552.4
651.08,26359.3
651.569,26208.2
652.058,26405.3
652.546,26533.7
653.034,25467.1
653.523,26058.7
654.011,25213.8
654.499,24429.3
654.987,25364.7
655.475,24892.8
655.963,25239.3
656.45,24424.5
656.938,24384.8
657.425,25491.3
657.913,23438.5
658.4,23587.7
658.888,22877.2
659.375,23183.2
659.862,23131.3
660.349,22730.3
660.836,21854.4
661.079,22585.8

File: VLFR_09-PET_bio_Raman_02b7ccbb.csv
nm,Intensity
526.547,831.55
527.095,833.75
527.642,832.55
528.189,831.75
528.736,832.7
529.283,832.85
529.829,832.3
530.376,832.8
530.922,832.65
531.468,832.8
532.014,835.1
532.56,831.85
533.106,832.9
533.651,847.2
534.196,1879.95
534.742,1741.0
535.287,1588.2
535.832,1523.0
536.376,1471.5
536.921,1454.5
537.465,1448.95
538.01,1455.65
538.554,1455.1
539.098,1464.2
539.642,1500.45
540.186,1509.75
540.729,1495.8
541.273,1496.75
541.816,1508.8
542.36,1517.8
542.903,1519.2
543.446,1539.35
543.988,1554.45
544.531,1556.75
545.074,1571.25
545.616,1581.1
546.158,1593.35
546.701,1601.65
547.243,1608.45
547.785,1606.7
548.326,1625.3
548.868,1638.0
549.41,1648.4
549.951,1643.55
550.492,1683.15
551.034,1679.45
551.575,1684.0
552.116,1685.6
552.656,1702.65
553.197,1708.5
553.738,1725.7
554.278,1730.45
554.819,1736.95
555.359,1752.7
555.899,1774.2
556.439,1788.7
556.979,1804.85
557.519,1960.25
558.058,1844.45
558.598,1827.6
559.137,1815.1
559.677,1827.95
560.216,1831.35
560.755,1849.25
561.294,1859.3
561.833,1885.4
562.371,1900.05
562.91,1901.5
563.449,1919.75
563.987,1933.4
564.525,1970.6
565.064,2071.2
565.602,2040.4
566.14,2028.6
566.678,1987.15
567.216,1972.8
567.753,2023.05
568.291,2003.95
568.828,2022.25
569.366,2038.25
569.903,2056.7
570.44,2098.45
570.977,2230.0
571.514,2357.95
572.051,2184.55
572.588,2121.65
573.125,2119.65
573.661,2138.9
574.198,2147.15
574.734,2156.15
575.271,2188.05
575.807,2189.0
576.343,2190.5
576.879,2216.6
577.415,2219.65
577.951,2208.55
578.486,2209.15
579.022,2233.05
579.557,2230.8
580.093,2243.6
580.628,2261.95
581.164,2276.2
581.699,2396.7
582.234,3545.9
582.769,2346.25
583.304,2306.6
583.838,2326.05
584.373,2321.65
584.908,2337.6
585.442,2417.35
585.977,2951.8
586.511,2649.4
587.045,2423.95
587.58,2396.55
588.114,2386.85
588.648,2371.4
589.182,2372.8
589.715,2371.8
590.249,2389.7
590.783,2399.3
591.316,2410.9
591.85,2415.8
592.383,2418.6
592.917,2413.15
593.45,2415.95
593.983,2410.15
594.516,2440.75
595.049,2450.6
595.582,2467.9
596.115,2455.55
596.648,2459.55
597.18,2491.15
597.713,2481.5
598.245,2503.95
598.778,2520.15
599.31,2524.9
599.842,2534.75
600.375,2523.85
600.907,2527.35
601.439,2536.2
601.971,2524.85
602.503,2540.45
603.034,2561.5
603.566,2583.4
604.098,2586.6
604.629,2582.25
605.161,2569.5
605.692,2564.0
606.224,2563.45
606.755,2580.7
607.286,2599.75
607.817,2630.55
608.348,2641.4
608.879,2649.35
609.41,2671.8
609.941,2675.85
610.472,2679.45
611.002,2699.45
611.533,2722.05
612.063,2749.85
612.594,2794.85
613.124,2827.15
613.655,2862.35
614.185,2883.95
614.715,2893.2
615.245,2902.0
615.775,2906.3
616.305,2943.65
616.835,2973.2
617.365,3008.0
617.895,3030.7
618.425,3074.05
618.954,3069.8
619.484,3082.75
620.013,3112.45
620.543,3114.7
621.072,3151.2
621.602,3171.9
622.131,3199.2
622.66,3241.9
623.189,3274.8
623.718,3309.8
624.247,3330.05
624.776,3371.35
625.305,3387.35
625.834,3400.35
626.363,3416.9
626.891,3449.1
627.42,3452.55
627.949,3473.05
628.477,3521.05
629.006,3548.95
629.534,3600.9
630.062,3610.45
630.591,3636.4
631.119,3700.15
631.647,3775.0
632.175,3800.55
632.703,3759.75
633.231,3788.05
633.759,3783.1
634.287,3775.75
634.815,3789.0
635.343,3823.55
635.871,3890.9
636.398,4014.6
636.926,4002.0
637.454,3937.8
637.981,3945.9
638.509,3948.95
639.036,3975.6
639.564,3964.75
640.091,4003.55
640.618,4018.15
641.146,4053.05
641.673,4061.3
642.2,4080.45
642.727,4079.75
643.254,4057.9
643.781,4051.05
644.308,4070.15
644.835,4070.55
645.362,4060.45
645.889,4091.65
646.416,4091.8
646.942,4112.0
647.469,4122.1
647.996,4133.1
648.522,4119.6
649.049,4141.7
649.576,4140.2
650.102,4133.0
650.629,4120.35
651.155,4130.2
651.682,4164.45
652.208,4176.45
652.734,4176.8
653.261,4190.5
653.787,4173.15
654.313,4206.05
654.839,4195.95
655.365,4192.3
655.892,4197.55
656.418,4197.05
656.944,4224.1
657.47,4219.95
657.996,4214.5
658.522,4227.75
659.048,4221.25
659.574,4258.95
660.099,4261.8
660.625,4224.15
661.151,4214.75
661.677,4178.6
662.203,4165.5
662.728,4181.85
663.123,4173.7

File: VLFR_09-PET_bio_Raman_2b44f570.csv
nm,Intensity
528.65,1847.3
529.155,1848.9
529.66,1849.1
530.165,1849.75
530.67,1847.8
531.175,1850.2
531.68,1880.85
532.185,2902.45
532.69,1852.15
533.194,1857.7
533.699,2491.8
534.204,4429.1
534.708,4295.3
535.213,4276.4
535.717,4182.0
536.222,4089.05
536.726,4094.8
537.231,4198.5
537.735,4253.0
538.239,4337.9
538.743,4359.95
539.247,4382.5
539.751,4524.6
540.255,4559.05
540.759,4570.85
541.263,4568.85
541.767,4618.35
542.271,4726.7
542.775,4793.35
543.279,4841.35
543.782,4850.4
544.286,4902.6
544.789,4918.2
545.293,5063.75
545.796,5092.9
546.3,5137.5
546.803,5288.25
547.306,5273.55
547.81,5373.0
548.313,5461.0
548.816,5506.35
549.319,5532.8
549.822,5482.55
550.325,5522.5
550.828,5743.0
551.331,5793.8
551.834,5772.1
552.337,5759.45
552.839,5971.5
553.342,5872.0
553.844,6003.5
554.347,6014.75
554.849,6131.2
555.352,6136.25
555.854,6248.2
556.357,6258.7
556.859,6335.55
557.361,6707.5
557.863,6620.85
558.365,6424.5
558.867,6464.85
559.369,6439.7
559.871,6546.35
560.373,6554.85
560.875,6706.3
561.377,6787.75
561.878,6822.6
562.38,6892.6
562.881,6897.95
563.383,7000.85
563.884,6959.95
564.386,7253.8
564.887,7340.2
565.388,7502.0
565.89,7525.5
566.391,7385.55
566.892,7339.15
567.393,7469.3
567.894,7605.75
568.395,7588.5
568.896,7553.75
569.396,7716.4
569.897,7827.25
570.398,7964.6
570.898,8339.6
571.399,8741.45
571.9,8333.35
572.4,8017.85
572.9,8113.6
573.401,8091.25
573.901,8095.45
574.401,8032.9
574.901,8113.2
575.401,8475.25
575.901,8315.9
576.401,8426.9
576.901,8362.2
577.401,8310.45
577.901,8486.45
578.4,8325.8
578.9,8399.95
579.399,8461.3
579.899,8513.9
580.398,8667.85
580.898,8591.2
581.397,8806.75
581.896,10418.8
582.395,10020.8
582.895,8716.9
583.394,8806.0
583.893,8837.4
584.391,8866.8
584.89,8781.2
585.389,9315.7
585.888,10462.3
586.386,9606.35
586.885,9247.05
587.384,9147.75
587.882,9019.85
588.38,9098.1
588.879,9076.6
589.377,8874.5
589.875,8873.3
590.373,8877.4
590.871,8904.15
591.369,9161.5
591.867,9197.9
592.365,9037.95
592.863,9024.95
593.361,9187.4
593.858,9117.0
594.356,9085.75
594.853,9148.6
595.351,9305.7
595.848,9249.1
596.345,9358.9
596.843,9323.7
597.34,9258.45
597.837,9267.8
598.334,9420.2
598.831,9332.0
599.328,9666.8
599.824,9570.05
600.321,9557.2
600.818,9618.05
601.314,9690.1
601.811,9757.2
602.307,9647.75
602.804,9894.65
603.3,9880.35
603.796,9933.1
604.293,9846.2
604.789,9948.15
605.285,9981.45
605.781,9999.3
606.277,9943.1
606.772,10142.1
607.268,10011.0
607.764,10122.3
608.259,10366.8
608.755,10122.9
609.25,10351.2
609.746,10249.3
610.241,10519.6
610.736,10609.5
611.231,10804.3
611.727,10723.9
612.222,10868.7
612.716,10820.3
613.211,10683.8
613.706,10819.3
614.201,10888.9
614.695,10977.3
615.19,11068.9
615.684,11351.1
616.179,11131.3
616.673,11470.8
617.168,11549.8
617.662,11546.5
618.156,11924.7
618.65,11590.0
619.144,11684.4
619.638,11902.7
620.131,12122.0
620.625,12050.0
621.119,12287.3
621.612,12268.1
622.106,12247.4
622.599,12496.4
623.093,12371.8
623.586,12580.6
624.079,12676.7
624.572,12998.4
625.065,12927.5
625.558,13014.6
626.051,13026.5
626.544,13188.1
627.037,13257.8
627.529,13434.6
628.022,13141.1
628.514,13140.7
629.007,13567.3
629.499,14222.0
629.991,13522.7
630.483,14050.9
630.976,13916.2
631.468,14142.8
631.959,14284.5
632.451,14448.0
632.943,14620.3
633.435,14795.8
633.926,14246.8
634.418,14294.9
634.909,14229.7
635.401,14358.3
635.892,14570.8
636.383,15042.3
636.874,15072.2
637.365,14430.3
637.856,14695.6
638.347,14814.8
638.838,14387.7
639.329,14565.5
639.819,14282.5
640.31,14601.3
640.8,14177.6
641.291,14599.2
641.781,14381.8
642.271,14129.2
642.761,14631.2
643.251,14469.4
643.741,14372.3
644.231,14079.0
644.721,14361.8
645.211,14309.1
645.7,14578.7
646.19,14378.1
646.679,14179.2
647.169,13956.5
647.658,14447.3
648.147,14506.5
648.636,13846.7
649.125,13956.3
649.614,13833.8
650.103,14435.2
650.592,13875.9
651.08,14045.3
651.569,13853.3
652.058,13666.0
652.546,13646.5
653.034,13691.3
653.523,13373.2
654.011,13374.5
654.499,13131.2
654.987,13263.1
655.475,12892.3
655.963,13412.9
656.45,12991.2
656.938,12680.8
657.425,12870.8
657.913,13230.1
658.4,12393.2
658.888,12709.0
659.375,12022.4
659.862,12548.9
660.349,12309.1
660.836,11748.0
661.079,11572.8

File: VLFR_09-PET_bio_Raman_2baa8e0f.csv
nm,Intensity
526.486,831.0
527.033,830.7
527.579,830.6
528.126,829.8
528.672,830.2
529.219,830.3
529.765,830.9
530.311,831.6
530.857,829.5
531.403,829.4
531.948,831.7
532.494,832.8
533.039,831.9
533.585,834.6
534.13,1560.9
534.675,1524.0
535.22,1433.9
535.764,1402.3
536.309,1380.4
536.854,1365.6
537.398,1359.9
537.942,1370.0
538.486,1379.8
539.03,1379.2
539.574,1402.0
540.118,1418.9
540.662,1406.8
541.205,1417.9
541.749,1409.8
542.292,1428.1
542.835,1439.0
543.378,1450.9
543.921,1451.6
544.464,1466.2
545.006,1475.9
545.549,1494.6
546.091,1491.5
546.634,1500.5
547.176,1500.0
547.718,1505.4
548.26,1532.2
548.802,1540.1
549.343,1546.1
549.885,1540.7
550.426,1567.6
550.968,1586.4
551.509,1588.1
552.05,1594.7
552.591,1603.7
553.132,1615.5
553.673,1619.5
554.214,1630.1
554.754,1647.1
555.295,1659.9
555.835,1680.5
556.375,1693.6
556.915,1703.9
557.455,1808.8
557.995,1765.9
558.535,1711.8
559.075,1717.0
559.614,1729.9
560.154,1748.4
560.693,1755.0
561.232,1775.3
561.772,1796.7
562.311,1827.4
562.85,1811.0
563.388,1819.3
563.927,1839.5
564.466,1871.0
565.004,1964.8
565.543,1947.1
566.081,1946.8
566.619,1901.7
567.157,1899.2
567.695,1944.9
568.233,1933.5
568.771,1930.1
569.309,1957.9
569.846,1969.2
570.384,1998.7
570.921,2113.7
571.458,2270.2
571.995,2091.7
572.532,2049.5
573.069,2032.7
573.606,2051.3
574.143,2051.0
574.68,2061.6
575.216,2084.9
575.753,2112.5
576.289,2093.4
576.825,2122.1
577.361,2128.5
577.897,2114.6
578.433,2122.4
578.969,2120.5
579.505,2136.2
580.041,2143.5
580.576,2152.5
581.112,2175.7
581.647,2244.9
582.183,3282.6
582.718,2251.7
583.253,2200.6
583.788,2219.5
584.323,2204.3
584.858,2223.4
585.392,2278.6
585.927,2706.6
586.462,2547.9
586.996,2298.0
587.53,2267.8
588.065,2241.5
588.599,2245.3
589.133,2237.3
589.667,2247.7
590.201,2266.3
590.735,2256.9
591.268,2281.8
591.802,2264.7
592.335,2268.7
592.869,2272.9
593.402,2262.5
593.936,2267.3
594.469,2281.3
595.002,2295.0
595.535,2291.4
596.068,2322.0
596.601,2324.5
597.133,2313.5
597.666,2328.1
598.199,2338.3
598.731,2366.7
599.264,2349.0
599.796,2370.2
600.328,2368.3
600.86,2377.2
601.393,2371.1
601.925,2357.3
602.457,2370.3
602.988,2382.4
603.52,2396.9
604.052,2401.9
604.583,2381.9
605.115,2396.7
605.646,2383.9
606.178,2375.1
606.709,2386.0
607.24,2406.4
607.771,2423.8
608.302,2449.3
608.833,2459.8
609.364,2469.1
609.895,2480.9
610.426,2491.2
610.957,2492.1
611.487,2513.4
612.018,2551.8
612.548,2569.2
613.078,2600.9
613.609,2637.8
614.139,2653.0
614.669,2663.9
615.199,2698.0
615.729,2695.1
616.259,2698.8
616.789,2743.4
617.319,2749.4
617.849,2776.2
618.378,2819.1
618.908,2823.3
619.437,2830.1
619.967,2843.5
620.496,2870.0
621.025,2880.3
621.555,2891.4
622.084,2921.3
622.613,2949.0
623.142,2979.5
623.671,3019.9
624.2,3045.2
624.729,3071.2
625.258,3061.6
625.786,3082.5
626.315,3089.9
626.844,3109.7
627.372,3122.2
627.901,3139.4
628.429,3180.3
628.957,3178.0
629.486,3244.3
630.014,3244.0
630.542,3274.1
631.07,3313.2
631.598,3344.9
632.126,3377.1
632.654,3356.7
633.182,3356.1
633.71,3355.6
634.237,3351.3
634.765,3370.9
635.293,3377.6
635.82,3439.6
636.348,3518.4
636.875,3530.3
637.403,3464.0
637.93,3466.7
638.458,3482.1
638.985,3490.7
639.512,3511.7
640.039,3515.2
640.566,3515.3
641.093,3532.6
641.62,3533.7
642.147,3554.9
642.674,3546.3
643.201,3532.6
643.728,3528.5
644.255,3515.5
644.781,3543.8
645.308,3524.1
645.835,3539.4
646.361,3545.4
646.888,3555.1
647.414,3556.2
647.941,3574.2
648.467,3562.9
648.993,3563.7
649.52,3560.3
650.046,3560.7
650.572,3532.0
651.098,3553.6
651.625,3558.5
652.151,3577.7
652.677,3549.0
653.203,3555.3
653.729,3588.1
654.255,3584.4
654.78,3567.1
655.306,3569.8
655.832,3572.3
656.358,3551.1
656.884,3581.5
657.409,3566.3
657.935,3579.6
658.461,3583.3
658.986,3575.9
659.512,3594.5
660.037,3572.7
660.563,3573.9
661.088,3555.8
661.614,3542.3
662.139,3516.1
662.664,3529.7
663.058,3489.6

File: VLFR_09-PET_bio_Raman_2ce8dcd6.csv
nm,Intensity
526.549,831.95
527.096,831.6
527.643,831.45
528.19,831.35
528.737,833.1
529.283,831.9
529.83,832.1
530.376,833.15
530.922,831.65
531.468,832.65
532.014,844.0
532.559,832.55
533.105,832.05
533.65,838.35
534.196,1346.95
534.741,1347.3
535.286,1325.15
535.83,1348.05
536.375,1336.4
536.92,1344.85
537.464,1360.75
538.008,1367.2
538.553,1377.0
539.097,1380.3
539.641,1398.7
540.184,1411.3
540.728,1415.85
541.271,1424.05
541.815,1430.8
542.358,1434.8
542.901,1446.65
543.444,1464.05
543.987,1464.95
544.53,1480.25
545.072,1487.25
545.615,1494.85
546.157,1502.4
546.699,1509.95
547.242,1517.3
547.784,1522.2
548.325,1533.65
548.867,1541.25
549.409,1542.05
549.95,1552.05
550.492,1563.05
551.033,1566.2
551.574,1572.4
552.115,1586.9
552.656,1594.5
553.197,1601.05
553.737,1602.3
554.278,1617.3
554.818,1618.0
555.358,1621.8
555.899,1633.0
556.439,1645.5
556.979,1654.9
557.518,1681.65
558.058,1663.05
558.598,1668.1
559.137,1668.85
559.677,1678.75
560.216,1697.45
560.755,1699.8
561.294,1707.45
561.833,1723.95
562.372,1728.15
562.91,1728.4
563.449,1749.55
563.987,1768.6
564.526,1785.65
565.064,1804.6
565.602,1810.2
566.14,1809.8
566.678,1802.9
567.216,1809.4
567.754,1820.45
568.291,1818.3
568.829,1838.4
569.366,1851.45
569.904,1869.4
570.441,1869.9
570.978,1903.15
571.515,1915.35
572.052,1897.55
572.589,1897.3
573.125,1904.4
573.662,1920.3
574.199,1925.15
574.735,1934.8
575.271,1948.55
575.807,1949.65
576.344,1958.25
576.88,1968.3
577.415,1977.55
577.951,1965.65
578.487,1991.65
579.023,1983.65
579.558,1987.7
580.094,2011.1
580.629,2010.6
581.164,2000.45
581.699,2042.3
582.234,2232.55
582.769,2031.1
583.304,2049.35
583.839,2058.45
584.374,2047.5
584.908,2060.1
585.443,2072.75
585.977,2166.95
586.511,2139.1
587.046,2092.4
587.58,2100.6
588.114,2092.1
588.648,2079.05
589.182,2084.5
589.716,2085.5
590.249,2090.75
590.783,2092.9
591.316,2105.65
591.85,2090.9
592.383,2104.1
592.917,2094.95
593.45,2093.6
593.983,2099.4
594.516,2101.7
595.049,2110.55
595.582,2116.05
596.115,2118.8
596.647,2132.3
597.18,2134.45
597.712,2133.2
598.245,2153.7
598.777,2150.95
599.31,2166.85
599.842,2162.95
600.374,2151.8
600.906,2156.1
601.438,2151.55
601.97,2148.05
602.502,2162.85
603.034,2155.25
603.565,2185.45
604.097,2177.5
604.628,2174.0
605.16,2173.15
605.691,2154.8
606.223,2156.5
606.754,2155.25
607.285,2169.9
607.816,2198.9
608.347,2191.9
608.878,2221.2
609.409,2211.45
609.94,2213.4
610.47,2227.5
611.001,2222.65
611.532,2240.45
612.062,2266.3
612.593,2273.1
613.123,2322.2
613.653,2325.15
614.184,2337.2
614.714,2352.8
615.244,2342.85
615.774,2365.55
616.304,2364.0
616.834,2386.3
617.364,2388.3
617.894,2418.0
618.423,2437.75
618.953,2426.95
619.482,2452.7
620.012,2448.4
620.541,2467.4
621.071,2467.15
621.6,2481.35
622.13,2497.45
622.659,2504.3
623.188,2544.9
623.717,2538.15
624.246,2572.9
624.775,2566.2
625.304,2589.25
625.833,2589.65
626.362,2586.2
626.89,2612.15
627.419,2603.05
627.948,2609.65
628.476,2621.2
629.005,2642.7
629.533,2643.2
630.061,2660.1
630.59,2660.75
631.118,2678.55
631.646,2698.25
632.175,2701.15
632.703,2689.65
633.231,2679.8
633.759,2696.3
634.287,2674.35
634.815,2699.1
635.342,2687.1
635.87,2729.7
636.398,2736.9
636.926,2722.15
637.453,2713.35
637.981,2741.85
638.509,2733.6
639.036,2718.35
639.563,2734.85
640.091,2721.35
640.618,2742.55
641.146,2731.95
641.673,2744.8
642.2,2737.05
642.727,2728.2
643.254,2714.05
643.781,2703.85
644.309,2698.6
644.836,2683.1
645.362,2688.2
645.889,2681.35
646.416,2695.9
646.943,2691.75
647.47,2703.35
647.997,2686.85
648.523,2683.6
649.05,2682.0
649.577,2664.15
650.103,2658.6
650.63,2655.1
651.156,2654.85
651.683,2647.8
652.209,2653.55
652.735,2650.2
653.262,2642.45
653.788,2649.25
654.314,2644.0
654.841,2630.7
655.367,2615.75
655.893,2612.05
656.419,2614.15
656.945,2613.65
657.471,2619.5
657.997,2607.55
658.523,2613.05
659.049,2589.55
659.575,2603.6
660.101,2598.05
660.627,2602.6
661.153,2567.8
661.679,2553.4
662.205,2558.2
662.731,2555.05
663.125,2539.1

File: VLFR_09-PET_bio_Raman_3a16bb78.csv
nm,Intensity
526.547,831.9
527.095,832.3
527.642,833.0
528.189,833.4
528.736,832.3
529.283,831.95
529.829,832.6
530.376,832.85
530.922,833.3
531.468,832.25
532.014,835.7
532.56,832.1
533.106,832.85
533.651,855.75
534.196,2397.95
534.742,2155.9
535.287,1905.2
535.832,1786.6
536.376,1693.8
536.921,1669.9
537.465,1656.9
538.01,1659.5
538.554,1665.75
539.098,1672.1
539.642,1704.0
540.186,1733.5
540.729,1704.4
541.273,1713.95
541.816,1717.95
542.36,1735.35
542.903,1746.95
543.446,1764.1
543.988,1776.6
544.531,1780.05
545.074,1801.95
545.616,1808.3
546.158,1825.5
546.701,1835.65
547.243,1847.25
547.785,1853.2
548.326,1864.1
548.868,1889.7
549.41,1887.75
549.951,1894.1
550.492,1951.65
551.034,1931.4
551.575,1935.9
552.116,1962.75
552.656,1979.15
553.197,1978.7
553.738,1997.75
554.278,1998.95
554.819,2023.45
555.359,2032.6
555.899,2074.95
556.439,2098.3
556.979,2131.7
557.519,2375.4
558.058,2172.5
558.598,2137.6
559.137,2122.45
559.677,2117.5
560.216,2139.1
560.755,2153.5
561.294,2176.7
561.833,2213.95
562.371,2248.9
562.91,2232.85
563.449,2247.4
563.987,2274.2
564.525,2316.5
565.064,2491.0
565.602,2451.55
566.14,2428.7
566.678,2341.1
567.216,2340.4
567.753,2423.3
568.291,2379.65
568.828,2387.35
569.366,2406.25
569.903,2443.5
570.44,2503.4
570.977,2727.65
571.514,2945.55
572.051,2643.6
572.588,2522.15
573.125,2494.8
573.661,2529.5
574.198,2561.1
574.734,2556.9
575.271,2619.1
575.807,2624.15
576.343,2608.1
576.879,2661.05
577.415,2646.15
577.951,2623.3
578.486,2643.3
579.022,2656.5
579.557,2660.15
580.093,2665.3
580.628,2691.7
581.164,2722.5
581.699,2913.05
582.234,4890.1
582.769,2846.5
583.304,2770.9
583.838,2770.4
584.373,2799.2
584.908,2804.75
585.442,2948.1
585.977,3814.65
586.511,3326.85
587.045,2924.5
587.58,2878.85
588.114,2854.8
588.648,2857.1
589.182,2849.35
589.715,2847.55
590.249,2856.7
590.783,2883.55
591.316,2892.55
591.85,2881.05
592.383,2898.85
592.917,2882.65
593.45,2888.75
593.983,2904.75
594.516,2901.95
595.049,2930.0
595.582,2943.4
596.115,2960.75
596.648,2963.25
597.18,2983.35
597.713,2988.45
598.245,3017.95
598.778,3025.5
599.31,3048.25
599.842,3040.75
600.375,3039.25
600.907,3033.95
601.439,3040.4
601.971,3049.95
602.503,3072.35
603.034,3096.85
603.566,3110.15
604.098,3104.35
604.629,3107.7
605.161,3101.7
605.692,3090.85
606.224,3096.5
606.755,3088.55
607.286,3132.8
607.817,3151.35
608.348,3200.4
608.879,3217.55
609.41,3228.45
609.941,3236.1
610.472,3257.7
611.002,3258.25
611.533,3291.35
612.063,3342.55
612.594,3383.35
613.124,3438.7
613.655,3470.4
614.185,3505.5
614.715,3502.05
615.245,3533.45
615.775,3542.35
616.305,3564.6
616.835,3617.75
617.365,3667.0
617.895,3697.6
618.425,3720.7
618.954,3752.35
619.484,3753.4
620.013,3789.75
620.543,3808.95
621.072,3833.35
621.602,3871.25
622.131,3894.8
622.66,3958.1
623.189,3993.0
623.718,4042.25
624.247,4083.05
624.776,4109.95
625.305,4122.45
625.834,4158.35
626.363,4181.75
626.891,4219.65
627.42,4234.25
627.949,4261.65
628.477,4319.3
629.006,4389.0
629.534,4450.05
630.062,4456.5
630.591,4485.45
631.119,4537.95
631.647,4674.35
632.175,4720.05
632.703,4654.3
633.231,4673.9
633.759,4651.45
634.287,4651.45
634.815,4674.25
635.343,4724.6
635.871,4833.9
636.398,5014.8
636.926,4976.7
637.454,4871.15
637.981,4850.5
638.509,4870.6
639.036,4895.8
639.564,4916.5
640.091,4949.2
640.618,4972.05
641.146,5012.7
641.673,5028.75
642.2,5040.85
642.727,5054.05
643.254,5024.4
643.781,5017.75
644.308,5005.35
644.835,5021.5
645.362,5027.3
645.889,5041.6
646.416,5056.7
646.942,5111.7
647.469,5112.0
647.996,5124.55
648.522,5114.45
649.049,5114.9
649.576,5114.85
650.102,5109.0
650.629,5128.3
651.155,5108.35
651.682,5116.4
652.208,5166.1
652.734,5172.95
653.261,5185.65
653.787,5186.85
654.313,5177.25
654.839,5171.9
655.365,5200.15
655.892,5195.15
656.418,5185.25
656.944,5206.75
657.47,5229.2
657.996,5193.45
658.522,5267.6
659.048,5229.1
659.574,5234.35
660.099,5228.35
660.625,5234.0
661.151,5178.6
661.677,5167.3
662.203,5145.65
662.728,5170.6
663.123,5155.55