Folder: MPX_specDB/spectra (part 46)

File: VLFR_02-HDPE_bio_Raman_af3c26e0.csv
nm,Intensity
526.508,830.5
527.055,829.9
527.602,830.9
528.149,831.3
528.695,830.7
529.241,829.5
529.787,829.3
530.334,828.7
530.879,829.0
531.425,830.9
531.971,833.8
532.516,830.0
533.062,831.1
533.607,830.0
534.152,853.2
534.697,853.3
535.242,852.6
535.786,844.9
536.331,840.7
536.876,838.6
537.42,840.6
537.964,839.0
538.508,839.2
539.052,837.9
539.596,838.0
540.14,837.5
540.683,835.5
541.227,835.7
541.77,834.6
542.313,836.7
542.856,838.8
543.399,835.8
543.942,837.2
544.485,836.1
545.027,836.2
545.57,835.2
546.112,836.6
546.654,836.4
547.196,836.0
547.738,835.3
548.28,835.6
548.822,837.1
549.363,835.1
549.905,836.6
550.446,836.9
550.988,835.0
551.529,835.3
552.07,835.6
552.611,835.9
553.152,836.1
553.692,838.0
554.233,836.3
554.773,836.9
555.314,838.6
555.854,838.4
556.394,839.2
556.934,837.8
557.474,837.9
558.014,839.7
558.553,839.5
559.093,839.5
559.632,839.1
560.172,840.3
560.711,838.8
561.25,839.5
561.789,840.1
562.328,841.3
562.867,840.4
563.406,842.3
563.944,870.3
564.483,847.6
565.021,845.5
565.559,842.6
566.098,863.0
566.636,842.4
567.174,842.3
567.711,846.4
568.249,840.0
568.787,838.8
569.324,841.0
569.862,843.2
570.399,842.2
570.936,845.6
571.474,888.4
572.011,853.6
572.548,845.3
573.084,843.7
573.621,841.4
574.158,846.5
574.694,841.4
575.231,843.8
575.767,857.5
576.303,903.3
576.84,874.2
577.376,864.4
577.912,847.5
578.447,845.5
578.983,843.8
579.519,846.5
580.054,845.0
580.59,846.0
581.125,847.1
581.661,847.7
582.196,848.1
582.731,847.9
583.266,848.9
583.801,849.1
584.336,850.9
584.87,853.9
585.405,854.1
585.94,854.7
586.474,854.8
587.008,857.9
587.543,857.8
588.077,855.9
588.611,860.7
589.145,859.4
589.679,862.8
590.213,863.0
590.747,864.0
591.28,864.1
591.814,865.5
592.347,864.8
592.881,868.6
593.414,865.7
593.947,867.1
594.48,870.2
595.014,870.3
595.547,873.3
596.079,872.6
596.612,876.2
597.145,873.1
597.678,874.5
598.21,876.0
598.743,881.4
599.275,883.0
599.807,885.2
600.34,881.5
600.872,882.8
601.404,884.4
601.936,884.2
602.468,885.3
603.0,886.5
603.532,881.7
604.063,886.2
604.595,883.1
605.126,879.9
605.658,881.8
606.189,876.5
606.721,877.2
607.252,878.9
607.783,873.1
608.314,874.5
608.845,875.7
609.376,875.7
609.907,873.8
610.438,870.4
610.968,870.4
611.499,868.3
612.03,867.9
612.56,868.8
613.091,866.9
613.621,869.6
614.151,869.7
614.681,867.6
615.212,865.4
615.742,866.3
616.272,866.3
616.802,866.3
617.332,870.1
617.861,871.2
618.391,871.4
618.921,869.6
619.45,870.4
619.98,869.6
620.509,870.0
621.039,873.5
621.568,881.7
622.097,899.0
622.627,893.3
623.156,875.5
623.685,869.4
624.214,867.4
624.743,865.0
625.272,870.4
625.801,873.2
626.33,894.2
626.858,1068.0
627.387,1359.9
627.916,1141.8
628.444,1293.6
628.973,1138.9
629.501,1076.6
630.029,999.5
630.558,989.6
631.086,917.3
631.614,880.1
632.142,869.1
632.67,865.5
633.198,863.3
633.726,862.7
634.254,860.6
634.782,860.3
635.31,859.2
635.838,855.9
636.365,856.0
636.893,856.1
637.421,856.3
637.948,856.0
638.476,854.4
639.003,855.4
639.531,853.5
640.058,853.0
640.585,853.0
641.113,855.8
641.64,854.5
642.167,856.1
642.694,854.8
643.221,855.0
643.748,855.7
644.275,857.1
644.802,853.8
645.329,855.3
645.856,856.3
646.382,857.0
646.909,855.1
647.436,856.3
647.962,856.0
648.489,857.4
649.016,857.6
649.542,856.7
650.069,857.3
650.595,857.0
651.121,855.6
651.648,856.9
652.174,856.9
652.7,857.5
653.227,858.5
653.753,856.7
654.279,857.6
654.805,856.7
655.331,858.6
655.857,858.0
656.383,857.1
656.909,859.6
657.435,858.3
657.961,856.2
658.487,859.8
659.013,857.0
659.538,853.6
660.064,856.7
660.59,856.8
661.116,855.1
661.641,854.2
662.167,854.5
662.692,852.9
663.087,852.9

File: VLFR_02-HDPE_bio_Raman_b5a98155.csv
nm,Intensity
526.494,834.5
527.041,834.3
527.588,834.2
528.135,835.1
528.682,833.1
529.229,834.4
529.775,833.3
530.321,833.8
530.868,834.3
531.414,834.5
531.96,847.7
532.506,837.1
533.051,833.0
533.597,835.0
534.142,918.0
534.687,914.2
535.232,913.0
535.777,880.1
536.322,872.1
536.867,869.2
537.411,867.2
537.956,868.0
538.5,865.8
539.044,861.3
539.588,862.4
540.132,858.3
540.676,858.9
541.22,855.6
541.763,857.4
542.306,860.1
542.85,857.4
543.393,857.6
543.936,858.4
544.479,856.0
545.021,859.9
545.564,858.4
546.106,858.0
546.649,859.3
547.191,856.4
547.733,859.5
548.275,859.3
548.817,861.8
549.359,861.1
549.9,859.6
550.442,859.3
550.983,860.7
551.524,859.0
552.066,863.1
552.607,861.8
553.148,861.5
553.688,862.6
554.229,864.5
554.77,863.7
555.31,864.5
555.85,866.1
556.39,866.2
556.931,865.2
557.471,868.5
558.01,870.8
558.55,872.7
559.09,867.4
559.629,869.5
560.169,871.9
560.708,870.3
561.247,870.3
561.786,875.3
562.325,873.0
562.864,873.2
563.403,877.0
563.941,960.1
564.48,894.3
565.018,889.1
565.557,885.1
566.095,944.4
566.633,886.2
567.171,882.3
567.709,891.6
568.247,882.0
568.784,881.4
569.322,882.9
569.859,888.1
570.397,892.7
570.934,898.8
571.471,1020.1
572.008,918.5
572.545,898.2
573.082,896.9
573.619,902.7
574.155,914.7
574.692,909.0
575.228,914.8
575.765,960.5
576.301,1078.4
576.837,1014.6
577.373,999.8
577.909,959.1
578.445,965.1
578.981,975.0
579.516,987.0
580.052,999.8
580.587,1012.8
581.123,1030.7
581.658,1039.6
582.193,1061.0
582.728,1075.4
583.263,1080.1
583.798,1094.8
584.333,1103.4
584.868,1119.1
585.402,1120.9
585.937,1131.7
586.471,1146.9
587.005,1142.5
587.54,1153.0
588.074,1147.2
588.608,1154.2
589.142,1158.3
589.676,1156.5
590.21,1167.8
590.743,1173.1
591.277,1172.4
591.81,1173.8
592.344,1180.6
592.877,1177.9
593.411,1182.8
593.944,1187.3
594.477,1183.5
595.01,1199.7
595.543,1201.7
596.076,1200.2
596.608,1211.4
597.141,1211.2
597.674,1203.0
598.206,1211.7
598.739,1211.3
599.271,1223.2
599.803,1219.1
600.335,1216.8
600.868,1210.4
601.4,1208.0
601.931,1220.5
602.463,1218.7
602.995,1205.4
603.527,1209.3
604.058,1199.6
604.59,1187.1
605.121,1184.3
605.653,1168.6
606.184,1162.9
606.715,1159.4
607.246,1147.4
607.778,1143.8
608.309,1144.8
608.839,1138.2
609.37,1126.0
609.901,1124.6
610.432,1116.1
610.962,1113.1
611.493,1111.2
612.023,1099.2
612.554,1103.9
613.084,1102.9
613.614,1097.5
614.145,1097.7
614.675,1083.7
615.205,1088.9
615.735,1078.6
616.265,1074.4
616.795,1076.0
617.324,1088.7
617.854,1069.7
618.384,1076.5
618.913,1074.5
619.443,1069.7
619.972,1066.9
620.502,1073.6
621.031,1069.9
621.56,1082.4
622.089,1121.8
622.618,1111.6
623.147,1070.8
623.676,1058.4
624.205,1057.6
624.734,1059.6
625.263,1059.1
625.792,1065.6
626.32,1114.4
626.849,1530.0
627.377,2150.7
627.906,1678.0
628.434,2100.8
628.963,1624.4
629.491,1487.7
630.019,1346.1
630.547,1315.3
631.076,1169.3
631.604,1080.8
632.132,1065.0
632.66,1058.7
633.188,1062.9
633.715,1052.7
634.243,1043.7
634.771,1045.4
635.299,1047.9
635.826,1046.9
636.354,1047.9
636.881,1048.0
637.409,1038.5
637.936,1038.4
638.464,1036.8
638.991,1045.6
639.518,1036.1
640.045,1045.7
640.573,1035.8
641.1,1033.1
641.627,1030.8
642.154,1033.9
642.681,1038.0
643.208,1033.9
643.735,1028.8
644.261,1030.5
644.788,1027.4
645.315,1026.2
645.842,1029.8
646.368,1029.7
646.895,1028.9
647.421,1027.3
647.948,1026.9
648.474,1030.2
649.001,1026.4
649.527,1021.6
650.054,1021.5
650.58,1024.5
651.106,1020.5
651.633,1022.4
652.159,1018.9
652.685,1018.7
653.211,1014.0
653.737,1013.0
654.263,1013.2
654.789,1010.3
655.315,1010.5
655.841,1005.2
656.367,1008.7
656.893,1005.0
657.419,1000.3
657.945,997.5
658.47,998.8
658.996,995.5
659.522,991.8
660.047,992.8
660.573,984.6
661.099,982.3
661.624,974.7
662.15,971.0
662.675,964.1
663.07,965.0

File: VLFR_02-HDPE_bio_Raman_b8d9b01d.csv
nm,Intensity
526.547,832.15
527.095,831.55
527.642,832.85
528.189,831.55
528.736,832.55
529.283,832.5
529.829,831.95
530.376,831.6
530.922,831.9
531.468,832.7
532.014,844.05
532.56,832.4
533.106,831.9
533.651,832.45
534.196,927.55
534.742,921.7
535.287,916.8
535.832,912.8
536.376,910.8
536.921,906.85
537.465,906.0
538.01,902.7
538.554,903.2
539.098,902.0
539.642,902.1
540.186,898.25
540.729,897.55
541.273,898.0
541.816,900.4
542.36,904.75
542.903,901.75
543.446,904.85
543.988,904.75
544.531,905.65
545.074,905.8
545.616,902.85
546.158,905.4
546.701,903.4
547.243,903.9
547.785,905.05
548.326,904.25
548.868,908.4
549.41,909.4
549.951,909.2
550.492,910.05
551.034,908.5
551.575,909.35
552.116,909.5
552.656,909.45
553.197,910.75
553.738,912.95
554.278,912.65
554.819,914.35
555.359,913.3
555.899,913.85
556.439,915.95
556.979,915.1
557.519,913.5
558.058,916.05
558.598,911.9
559.137,915.6
559.677,915.25
560.216,915.65
560.755,916.7
561.294,919.2
561.833,923.15
562.371,915.75
562.91,918.2
563.449,919.25
563.987,937.65
564.525,926.25
565.064,925.45
565.602,924.4
566.14,947.85
566.678,923.25
567.216,925.3
567.753,927.65
568.291,924.3
568.828,925.3
569.366,929.15
569.903,929.25
570.44,929.2
570.977,928.25
571.514,958.45
572.051,934.75
572.588,934.4
573.125,935.6
573.661,936.0
574.198,940.25
574.734,935.3
575.271,940.15
575.807,950.45
576.343,957.6
576.879,951.45
577.415,948.45
577.951,949.5
578.486,949.4
579.022,949.7
579.557,953.5
580.093,952.25
580.628,957.35
581.164,953.35
581.699,958.35
582.234,960.85
582.769,965.0
583.304,966.1
583.838,967.55
584.373,965.65
584.908,967.6
585.442,970.25
585.977,969.1
586.511,968.45
587.045,971.75
587.58,969.75
588.114,975.5
588.648,973.75
589.182,973.75
589.715,978.75
590.249,976.85
590.783,980.3
591.316,980.9
591.85,983.15
592.383,981.6
592.917,980.4
593.45,983.65
593.983,985.55
594.516,988.7
595.049,990.6
595.582,990.35
596.115,996.2
596.648,990.45
597.18,998.2
597.713,996.3
598.245,997.6
598.778,1002.85
599.31,998.7
599.842,1004.05
600.375,1002.25
600.907,997.4
601.439,1007.0
601.971,1001.05
602.503,1000.6
603.034,999.7
603.566,1001.75
604.098,996.65
604.629,995.1
605.161,991.45
605.692,986.5
606.224,985.3
606.755,981.25
607.286,986.75
607.817,983.8
608.348,984.25
608.879,985.45
609.41,980.75
609.941,982.45
610.472,978.35
611.002,976.4
611.533,975.9
612.063,978.05
612.594,980.1
613.124,976.35
613.655,980.3
614.185,978.95
614.715,979.2
615.245,976.25
615.775,975.45
616.305,975.0
616.835,975.55
617.365,973.8
617.895,975.45
618.425,977.95
618.954,975.4
619.484,974.1
620.013,973.75
620.543,972.0
621.072,970.75
621.602,974.15
622.131,974.15
622.66,973.5
623.189,972.55
623.718,973.3
624.247,972.95
624.776,971.6
625.305,970.25
625.834,968.65
626.363,969.2
626.891,1000.85
627.42,1040.7
627.949,1007.8
628.477,1034.3
629.006,1015.75
629.534,1006.15
630.062,994.45
630.591,992.35
631.119,979.95
631.647,972.55
632.175,967.1
632.703,971.85
633.231,966.15
633.759,969.6
634.287,966.3
634.815,965.1
635.343,965.45
635.871,963.9
636.398,968.3
636.926,968.1
637.454,967.1
637.981,966.95
638.509,968.65
639.036,967.0
639.564,968.2
640.091,967.5
640.618,970.35
641.146,974.45
641.673,975.0
642.2,973.2
642.727,974.75
643.254,975.0
643.781,975.8
644.308,974.85
644.835,977.15
645.362,974.05
645.889,979.25
646.416,978.25
646.942,981.95
647.469,983.7
647.996,984.3
648.522,987.2
649.049,984.9
649.576,984.55
650.102,989.05
650.629,987.85
651.155,987.95
651.682,985.8
652.208,986.5
652.734,986.55
653.261,982.75
653.787,974.75
654.313,976.7
654.839,973.8
655.365,969.1
655.892,965.9
656.418,962.3
656.944,961.75
657.47,959.0
657.996,954.45
658.522,954.2
659.048,951.7
659.574,950.1
660.099,945.85
660.625,942.55
661.151,938.4
661.677,940.4
662.203,938.75
662.728,937.8
663.123,933.45

File: VLFR_02-HDPE_bio_Raman_b32f3c52.csv
nm,Intensity
528.626,1863.3
529.132,1863.1
529.637,1863.1
530.143,1864.2
530.648,1865.8
531.153,1865.8
531.658,1892.0
532.164,3650.2
532.669,1865.6
533.174,1874.0
533.679,2901.1
534.184,6442.0
534.689,5195.6
535.194,4378.9
535.699,4093.0
536.203,4452.4
536.708,2950.1
537.213,2779.8
537.717,2699.1
538.222,2636.6
538.726,2619.8
539.231,2635.7
539.735,2812.4
540.239,2965.1
540.744,2620.3
541.248,2562.5
541.752,2529.2
542.256,2539.0
542.76,2545.6
543.264,2566.7
543.768,2627.2
544.272,2556.6
544.776,2535.7
545.28,2524.7
545.784,2545.5
546.287,2568.5
546.791,2585.0
547.294,2602.1
547.798,2580.3
548.301,2593.5
548.805,2657.8
549.308,2583.6
549.811,2580.7
550.315,2769.5
550.818,3295.2
551.321,2679.5
551.824,2639.4
552.327,2635.5
552.83,2969.7
553.333,2612.1
553.835,2613.8
554.338,2642.6
554.841,2665.3
555.343,2785.4
555.846,2944.0
556.349,2942.5
556.851,2979.3
557.353,3992.8
557.856,3858.2
558.358,3007.0
558.86,2851.2
559.362,2771.1
559.864,2744.1
560.366,2745.3
560.868,2785.9
561.37,2906.7
561.872,3361.7
562.374,3123.8
562.876,2930.1
563.377,2921.0
563.879,2948.4
564.38,3030.6
564.882,3898.4
565.383,3831.1
565.885,3811.2
566.386,3258.6
566.887,2984.4
567.388,3070.0
567.889,3416.3
568.391,3122.2
568.892,3000.6
569.392,3054.0
569.893,3154.6
570.394,3528.4
570.895,5012.0
571.395,6558.9
571.896,4356.3
572.397,3576.1
572.897,3203.2
573.397,3184.0
573.898,3231.7
574.398,3179.5
574.898,3297.4
575.398,3858.5
575.898,3452.4
576.398,3495.7
576.898,3654.7
577.398,3408.5
577.898,3267.6
578.398,3259.4
578.897,3267.3
579.397,3261.0
579.896,3312.1
580.396,3398.8
580.895,3576.0
581.395,3924.5
581.894,9470.8
582.393,9490.7
582.892,3803.5
583.391,3546.4
583.89,3463.0
584.389,3597.0
584.888,3630.7
585.387,4416.1
585.886,8978.6
586.384,6528.2
586.883,4098.8
587.381,3726.8
587.88,3624.2
588.378,3564.3
588.876,3543.7
589.375,3572.4
589.873,3606.9
590.371,3593.4
590.869,3582.7
591.367,3617.6
591.865,3635.3
592.363,3611.3
592.86,3638.2
593.358,3681.0
593.856,3688.7
594.353,3699.1
594.851,3735.1
595.348,3786.2
595.845,3795.9
596.342,3802.5
596.84,3803.8
597.337,3860.9
597.834,3852.8
598.331,3900.5
598.828,3937.0
599.324,3928.2
599.821,3966.3
600.318,3958.3
600.814,3982.1
601.311,3944.5
601.807,3985.0
602.304,4014.3
602.8,4058.5
603.296,3996.2
603.792,4017.7
604.288,4022.4
604.784,4067.9
605.28,4067.1
605.776,4066.1
606.272,4088.0
606.767,4073.5
607.263,4148.1
607.759,4113.6
608.254,4156.9
608.749,4162.5
609.245,4157.2
609.74,4214.9
610.235,4157.8
610.73,4208.1
611.225,4259.9
611.72,4287.0
612.215,4251.8
612.71,4302.2
613.204,4396.9
613.699,4411.8
614.194,4494.8
614.688,4444.7
615.182,4550.3
615.677,4634.2
616.171,4658.1
616.665,4589.3
617.159,4760.8
617.653,4744.9
618.147,4814.5
618.641,4853.3
619.135,4860.0
619.628,4857.4
620.122,4852.4
620.615,4990.3
621.109,4914.5
621.602,4964.3
622.095,5045.6
622.589,5053.0
623.082,5014.4
623.575,5054.3
624.068,5128.1
624.561,5139.2
625.053,5160.4
625.546,5121.3
626.039,5210.8
626.531,5273.8
627.024,5590.2
627.516,5563.5
628.008,5537.8
628.501,5807.1
628.993,5664.3
629.485,5722.8
629.977,5555.7
630.469,5465.1
630.96,5634.9
631.452,5856.1
631.944,6164.3
632.435,5789.0
632.927,5677.5
633.418,5609.5
633.91,5345.0
634.401,5170.7
634.892,5125.9
635.383,5237.4
635.874,5488.2
636.365,6277.7
636.856,5776.8
637.346,5130.9
637.837,4947.6
638.327,4935.8
638.818,4811.3
639.308,4879.1
639.799,4723.2
640.289,4687.6
640.779,4695.1
641.269,4656.0
641.759,4567.8
642.249,4667.0
642.738,4543.1
643.228,4592.3
643.718,4409.0
644.207,4446.5
644.697,4310.7
645.186,4390.3
645.675,4347.3
646.164,4330.8
646.653,4311.9
647.142,4205.1
647.631,4165.2
648.12,4130.2
648.609,4118.2
649.098,4101.3
649.586,4006.5
650.075,3996.9
650.563,3975.2
651.051,3939.5
651.539,3844.7
652.027,3825.3
652.515,3801.5
653.003,3783.6
653.491,3758.2
653.979,3672.7
654.467,3662.5
654.954,3677.0
655.442,3602.9
655.929,3630.0
656.416,3527.0
656.904,3537.1
657.391,3525.7
657.878,3484.7
658.365,3417.9
658.851,3458.2
659.338,3352.8
659.825,3327.8
660.311,3300.1
660.798,3273.0
661.041,3335.5

File: VLFR_02-HDPE_bio_Raman_bb327efc.csv
nm,Intensity
528.635,1837.7
529.14,1836.2
529.645,1838.0
530.151,1837.3
530.656,1838.2
531.161,1839.9
531.666,1878.1
532.171,4593.4
532.676,1839.5
533.181,1837.7
533.686,1984.7
534.191,2345.9
534.696,2352.1
535.201,2314.6
535.705,2133.9
536.21,2069.7
536.715,2041.3
537.219,2046.9
537.724,2043.8
538.228,2027.8
538.733,2006.4
539.237,1987.0
539.741,1973.8
540.246,1973.1
540.75,1967.9
541.254,1964.1
541.758,1974.0
542.262,1960.0
542.766,1959.8
543.27,1962.7
543.774,1957.7
544.278,1949.3
544.781,1962.7
545.285,1957.2
545.789,1954.0
546.292,1948.8
546.796,1951.8
547.299,1949.6
547.803,1957.6
548.306,1947.6
548.809,1946.4
549.313,1946.0
549.816,1948.6
550.319,1951.6
550.822,1941.7
551.325,1952.0
551.828,1952.4
552.331,1946.9
552.834,1957.0
553.337,1981.8
553.839,1975.1
554.342,1984.6
554.845,1980.0
555.347,1982.9
555.85,1994.2
556.352,2001.9
556.854,2014.1
557.357,2032.6
557.859,2042.4
558.361,2056.6
558.863,2037.5
559.365,2031.2
559.867,2030.2
560.369,2020.9
560.871,2024.0
561.373,2029.9
561.875,2036.4
562.377,2056.6
562.878,2077.4
563.38,2106.6
563.881,3017.4
564.383,2306.8
564.884,2229.7
565.386,2169.4
565.887,2630.1
566.388,2707.4
566.889,2123.4
567.391,2282.6
567.892,2085.0
568.393,2082.0
568.893,2086.2
569.394,2081.5
569.895,2086.2
570.396,2123.5
570.897,2181.6
571.397,3543.8
571.898,2439.9
572.398,2160.4
572.899,2089.5
573.399,2076.6
573.899,2184.1
574.399,2068.1
574.9,2071.8
575.4,2789.5
575.9,2650.2
576.4,3401.5
576.899,2946.8
577.399,2481.8
577.899,2122.4
578.399,2086.0
578.898,2070.0
579.398,2061.8
579.897,2049.8
580.397,2051.5
580.896,2034.2
581.396,2039.2
581.895,2037.1
582.394,2024.2
582.893,2021.6
583.392,2018.8
583.891,2015.3
584.39,2016.7
584.889,2009.8
585.387,2024.5
585.886,2017.7
586.385,2017.6
586.883,2029.5
587.382,2023.1
587.88,2024.9
588.379,2024.6
588.877,2023.5
589.375,2024.7
589.873,2018.7
590.371,2025.3
590.869,2027.2
591.367,2021.0
591.865,2021.8
592.363,2017.6
592.86,2025.0
593.358,2035.8
593.856,2030.1
594.353,2031.2
594.851,2043.0
595.348,2045.9
595.845,2054.5
596.342,2062.4
596.84,2060.1
597.337,2074.1
597.834,2082.3
598.331,2092.4
598.827,2079.7
599.324,2111.6
599.821,2121.6
600.318,2101.9
600.814,2116.1
601.311,2111.2
601.807,2138.6
602.303,2142.3
602.8,2110.4
603.296,2097.9
603.792,2122.3
604.288,2114.4
604.784,2106.4
605.28,2083.3
605.776,2092.0
606.272,2075.5
606.767,2077.6
607.263,2078.2
607.758,2071.1
608.254,2061.2
608.749,2065.1
609.244,2065.0
609.74,2060.8
610.235,2064.4
610.73,2085.5
611.225,2105.1
611.72,2053.1
612.215,2053.7
612.709,2053.9
613.204,2052.0
613.699,2055.2
614.193,2061.7
614.688,2048.5
615.182,2068.9
615.676,2075.1
616.171,2078.6
616.665,2123.3
617.159,2162.6
617.653,2162.1
618.147,2158.7
618.641,2136.5
619.134,2172.0
619.628,2207.1
620.122,2180.7
620.615,2218.4
621.109,2300.9
621.602,2505.4
622.095,2784.1
622.588,2605.4
623.082,2308.5
623.575,2216.7
624.068,2194.2
624.56,2200.8
625.053,2234.0
625.546,2318.7
626.039,2496.9
626.531,3862.5
627.024,9841.5
627.516,8811.9
628.008,7094.7
628.501,11426.9
628.993,6777.7
629.485,5635.4
629.977,4708.2
630.469,4424.4
630.961,3170.9
631.452,2447.2
631.944,2268.8
632.436,2205.8
632.927,2169.9
633.418,2149.6
633.91,2110.6
634.401,2087.4
634.892,2054.6
635.383,2045.1
635.874,2041.3
636.365,2041.3
636.856,2023.7
637.347,1997.6
637.837,1991.0
638.328,1990.1
638.818,1976.7
639.309,1965.2
639.799,1962.1
640.289,1972.2
640.78,1947.8
641.27,1959.0
641.76,1961.3
642.249,1955.0
642.739,1947.8
643.229,1949.2
643.719,1949.0
644.208,1951.4
644.698,1953.1
645.187,1947.7
645.676,1949.0
646.165,1947.4
646.655,1945.7
647.144,1947.7
647.633,1948.2
648.121,1952.7
648.61,1943.7
649.099,1943.5
649.587,1942.1
650.076,1950.9
650.564,1960.0
651.053,1945.3
651.541,1949.8
652.029,1945.4
652.517,1944.5
653.005,1949.0
653.493,1941.9
653.981,1943.5
654.468,1940.0
654.956,1946.0
655.444,1934.5
655.931,1943.5
656.418,1935.1
656.906,1936.7
657.393,1939.5
657.88,1934.2
658.367,1932.3
658.854,1935.8
659.341,1934.5
659.827,1945.3
660.314,1941.0
660.8,1933.6
661.044,1932.6

File: VLFR_02-HDPE_bio_Raman_c00a4588.csv
nm,Intensity
526.549,831.65
527.096,832.95
527.643,832.45
528.19,831.15
528.737,831.5
529.283,831.25
529.83,832.95
530.376,832.4
530.922,831.25
531.468,832.7
532.014,847.6
532.559,832.55
533.105,832.0
533.65,833.8
534.196,928.7
534.741,922.95
535.286,913.4
535.83,886.1
536.375,877.2
536.92,872.05
537.464,873.2
538.008,870.5
538.553,867.9
539.097,862.7
539.641,859.3
540.184,859.0
540.728,858.4
541.271,858.45
541.815,858.1
542.358,858.6
542.901,858.15
543.444,855.45
543.987,858.0
544.53,858.4
545.072,857.0
545.615,858.0
546.157,856.85
546.699,856.9
547.242,858.85
547.784,856.2
548.325,858.0
548.867,857.0
549.409,857.5
549.95,859.0
550.492,858.35
551.033,858.25
551.574,858.65
552.115,859.75
552.656,856.8
553.197,859.55
553.737,861.95
554.278,861.8
554.818,862.8
555.358,860.1
555.899,863.3
556.439,864.1
556.979,867.4
557.518,869.8
558.058,868.4
558.598,867.95
559.137,868.85
559.677,866.35
560.216,865.4
560.755,867.35
561.294,867.9
561.833,870.95
562.372,869.15
562.91,874.9
563.449,876.85
563.987,994.95
564.526,898.4
565.064,888.3
565.602,883.85
566.14,1008.5
566.678,882.55
567.216,879.2
567.754,881.05
568.291,873.45
568.829,875.95
569.366,876.15
569.904,878.65
570.441,884.45
570.978,889.35
571.515,1094.9
572.052,910.05
572.589,889.0
573.125,884.35
573.662,888.45
574.199,895.0
574.735,885.8
575.271,897.45
575.807,945.8
576.344,1079.7
576.88,990.55
577.415,956.65
577.951,917.4
578.487,909.75
579.023,914.2
579.558,918.9
580.094,918.45
580.629,926.65
581.164,932.35
581.699,936.25
582.234,938.4
582.769,945.8
583.304,955.0
583.839,960.05
584.374,965.85
584.908,971.35
585.443,978.1
585.977,990.15
586.511,997.05
587.046,1004.6
587.58,1011.9
588.114,1021.55
588.648,1031.05
589.182,1032.45
589.716,1046.35
590.249,1054.5
590.783,1059.05
591.316,1065.5
591.85,1071.05
592.383,1080.25
592.917,1075.85
593.45,1087.85
593.983,1085.3
594.516,1085.4
595.049,1090.0
595.582,1088.0
596.115,1093.4
596.647,1094.15
597.18,1094.6
597.712,1094.75
598.245,1096.95
598.777,1095.25
599.31,1100.35
599.842,1094.75
600.374,1093.2
600.906,1090.9
601.438,1085.75
601.97,1085.85
602.502,1085.0
603.034,1075.85
603.565,1080.35
604.097,1069.4
604.628,1065.45
605.16,1053.3
605.691,1047.55
606.223,1044.4
606.754,1034.5
607.285,1029.9
607.816,1026.05
608.347,1023.2
608.878,1019.1
609.409,1013.5
609.94,1011.8
610.47,1005.1
611.001,1002.05
611.532,998.9
612.062,998.2
612.593,994.4
613.123,992.3
613.653,992.2
614.184,988.5
614.714,989.35
615.244,985.5
615.774,981.55
616.304,979.0
616.834,983.1
617.364,985.5
617.894,984.85
618.423,984.55
618.953,982.9
619.482,985.05
620.012,984.05
620.541,981.65
621.071,988.65
621.6,1008.3
622.13,1040.0
622.659,1035.15
623.188,990.6
623.717,978.35
624.246,975.35
624.775,980.35
625.304,980.2
625.833,994.25
626.362,1044.55
626.89,1500.05
627.419,2053.75
627.948,1593.95
628.476,2088.4
629.005,1582.1
629.533,1441.7
630.061,1292.25
630.59,1254.1
631.118,1091.6
631.646,1012.9
632.175,992.8
632.703,983.7
633.231,982.5
633.759,982.4
634.287,977.45
634.815,976.7
635.342,978.65
635.87,977.35
636.398,977.3
636.926,981.1
637.453,976.55
637.981,979.55
638.509,980.3
639.036,983.05
639.563,983.0
640.091,983.95
640.618,987.65
641.146,990.25
641.673,989.05
642.2,992.0
642.727,992.25
643.254,996.3
643.781,991.4
644.309,992.95
644.836,994.55
645.362,993.2
645.889,994.55
646.416,993.05
646.943,991.25
647.47,994.0
647.997,993.8
648.523,992.55
649.05,990.0
649.577,987.05
650.103,988.65
650.63,984.0
651.156,984.85
651.683,983.4
652.209,980.75
652.735,978.35
653.262,975.65
653.788,978.55
654.314,974.5
654.841,969.0
655.367,970.05
655.893,966.9
656.419,964.9
656.945,963.5
657.471,958.95
657.997,957.65
658.523,955.25
659.049,950.5
659.575,950.15
660.101,951.9
660.627,945.0
661.153,944.5
661.679,937.5
662.205,934.85
662.731,933.0
663.125,932.7