Folder: MPX_specDB/spectra (part 63)

File: VLFR_02-HDPE_nobio_Raman_beca73c5.csv
nm,Intensity
526.508,830.6
527.055,830.3
527.602,830.3
528.149,829.8
528.695,829.8
529.241,831.0
529.787,830.9
530.334,830.6
530.879,829.6
531.425,830.1
531.971,833.3
532.516,830.7
533.062,831.6
533.607,830.1
534.152,965.3
534.697,955.9
535.242,941.0
535.786,923.4
536.331,914.0
536.876,910.1
537.42,907.5
537.964,906.5
538.508,904.4
539.052,903.1
539.596,905.0
540.14,900.2
540.683,900.3
541.227,902.2
541.77,902.3
542.313,903.8
542.856,907.3
543.399,907.4
543.942,907.3
544.485,907.8
545.027,910.8
545.57,909.9
546.112,912.9
546.654,914.8
547.196,918.3
547.738,915.7
548.28,919.9
548.822,915.1
549.363,919.0
549.905,922.7
550.446,923.7
550.988,923.4
551.529,926.1
552.07,924.4
552.611,925.9
553.152,930.3
553.692,930.9
554.233,934.7
554.773,935.6
555.314,932.6
555.854,931.3
556.394,934.0
556.934,942.9
557.474,943.0
558.014,944.8
558.553,947.8
559.093,948.0
559.632,947.2
560.172,949.6
560.711,951.3
561.25,950.9
561.789,947.1
562.328,957.4
562.867,958.8
563.406,965.3
563.944,1004.2
564.483,983.4
565.021,969.9
565.559,976.3
566.098,1028.7
566.636,977.0
567.174,979.9
567.711,974.9
568.249,975.2
568.787,977.1
569.324,987.4
569.862,992.2
570.399,992.9
570.936,1003.1
571.474,1084.2
572.011,1023.7
572.548,1015.1
573.084,1014.7
573.621,1016.1
574.158,1032.9
574.694,1039.3
575.231,1041.6
575.767,1087.5
576.303,1169.1
576.84,1132.9
577.376,1123.8
577.912,1112.3
578.447,1128.7
578.983,1133.6
579.519,1166.4
580.054,1181.2
580.59,1199.0
581.125,1225.7
581.661,1250.1
582.196,1272.8
582.731,1302.7
583.266,1335.8
583.801,1364.1
584.336,1393.8
584.87,1413.2
585.405,1435.7
585.94,1467.0
586.474,1500.1
587.008,1536.1
587.543,1572.2
588.077,1598.7
588.611,1630.0
589.145,1652.9
589.679,1693.4
590.213,1725.9
590.747,1768.4
591.28,1802.5
591.814,1835.5
592.347,1859.2
592.881,1873.2
593.414,1890.7
593.947,1913.7
594.48,1928.9
595.014,1962.5
595.547,1999.0
596.079,2022.0
596.612,2052.6
597.145,2070.9
597.678,2087.2
598.21,2132.2
598.743,2158.2
599.275,2179.5
599.807,2189.1
600.34,2182.2
600.872,2188.2
601.404,2200.5
601.936,2191.7
602.468,2178.8
603.0,2165.5
603.532,2138.2
604.063,2111.0
604.595,2080.9
605.126,2024.4
605.658,1989.2
606.189,1947.1
606.721,1916.7
607.252,1900.5
607.783,1872.1
608.314,1844.2
608.845,1817.4
609.376,1796.1
609.907,1780.4
610.438,1761.5
610.968,1735.1
611.499,1730.4
612.03,1716.9
612.56,1706.4
613.091,1697.0
613.621,1690.1
614.151,1670.3
614.681,1659.0
615.212,1644.0
615.742,1625.6
616.272,1609.2
616.802,1598.4
617.332,1600.7
617.861,1593.2
618.391,1575.9
618.921,1564.6
619.45,1552.7
619.98,1542.2
620.509,1531.5
621.039,1521.1
621.568,1515.2
622.097,1534.1
622.627,1522.7
623.156,1505.4
623.685,1484.3
624.214,1483.0
624.743,1482.3
625.272,1470.0
625.801,1463.1
626.33,1478.9
626.858,1638.6
627.387,1945.0
627.916,1736.2
628.444,1898.3
628.973,1796.4
629.501,1699.3
630.029,1626.0
630.558,1616.5
631.086,1530.5
631.614,1457.0
632.142,1451.3
632.67,1452.4
633.198,1439.3
633.726,1436.4
634.254,1438.1
634.782,1437.4
635.31,1448.8
635.838,1444.0
636.365,1454.7
636.893,1456.6
637.421,1460.9
637.948,1467.3
638.476,1468.2
639.003,1475.6
639.531,1482.6
640.058,1478.5
640.585,1486.4
641.113,1491.6
641.64,1496.6
642.167,1496.5
642.694,1501.9
643.221,1494.8
643.748,1516.8
644.275,1514.7
644.802,1514.7
645.329,1514.2
645.856,1502.2
646.382,1527.3
646.909,1528.4
647.436,1529.5
647.962,1531.2
648.489,1529.1
649.016,1528.7
649.542,1531.1
650.069,1528.5
650.595,1535.0
651.121,1532.9
651.648,1542.6
652.174,1554.4
652.7,1552.5
653.227,1547.2
653.753,1548.8
654.279,1549.7
654.805,1547.2
655.331,1558.4
655.857,1552.3
656.383,1546.4
656.909,1545.1
657.435,1539.3
657.961,1529.5
658.487,1526.8
659.013,1514.1
659.538,1511.4
660.064,1505.0
660.59,1486.3
661.116,1486.1
661.641,1478.3
662.167,1456.1
662.692,1444.7
663.087,1450.2

File: VLFR_02-HDPE_nobio_Raman_c0c2440b.csv
nm,Intensity
526.532,833.45
527.079,833.0
527.625,833.55
528.172,833.1
528.718,832.4
529.265,833.5
529.811,832.6
530.357,833.75
530.903,833.25
531.449,833.2
531.994,836.9
532.54,834.45
533.085,833.3
533.63,835.35
534.176,927.0
534.721,924.55
535.266,916.8
535.81,905.2
536.355,906.55
536.9,897.35
537.444,895.9
537.988,895.45
538.533,895.7
539.077,896.1
539.621,892.25
540.165,894.35
540.708,893.15
541.252,897.35
541.795,897.6
542.339,895.95
542.882,896.65
543.425,899.15
543.968,901.0
544.511,902.8
545.054,899.6
545.597,906.1
546.139,906.7
546.682,906.45
547.224,906.05
547.766,906.9
548.308,907.35
548.85,909.0
549.392,908.55
549.934,909.3
550.475,908.95
551.017,911.15
551.558,911.35
552.1,911.5
552.641,908.85
553.182,911.3
553.723,915.0
554.264,913.15
554.804,913.15
555.345,912.1
555.885,912.45
556.426,913.65
556.966,918.15
557.506,918.9
558.046,917.35
558.586,918.25
559.126,917.9
559.665,917.75
560.205,918.8
560.745,920.65
561.284,918.8
561.823,921.35
562.362,920.6
562.901,921.65
563.44,926.15
563.979,980.35
564.518,938.9
565.056,934.85
565.595,932.6
566.133,986.2
566.671,937.55
567.21,935.85
567.748,934.95
568.285,933.3
568.823,937.2
569.361,939.6
569.899,939.75
570.436,945.95
570.974,950.15
571.511,1048.35
572.048,963.35
572.585,958.8
573.122,956.75
573.659,960.2
574.196,968.4
574.733,966.2
575.269,979.4
575.806,1002.95
576.342,1081.05
576.878,1045.05
577.414,1037.55
577.951,1016.0
578.486,1025.55
579.022,1041.6
579.558,1051.2
580.094,1058.4
580.629,1070.6
581.165,1083.55
581.7,1097.3
582.236,1112.55
582.771,1122.35
583.306,1149.8
583.841,1156.35
584.376,1174.85
584.911,1190.05
585.445,1211.15
585.98,1229.4
586.514,1245.7
587.049,1265.45
587.583,1282.3
588.117,1302.75
588.651,1317.55
589.186,1334.85
589.72,1350.8
590.253,1366.15
590.787,1391.05
591.321,1405.2
591.854,1415.2
592.388,1429.05
592.921,1449.25
593.455,1457.3
593.988,1463.85
594.521,1480.0
595.054,1490.2
595.587,1506.0
596.12,1517.9
596.653,1533.1
597.186,1543.9
597.718,1557.8
598.251,1567.75
598.783,1579.2
599.316,1586.85
599.848,1586.25
600.38,1583.6
600.912,1577.35
601.444,1570.55
601.976,1570.0
602.508,1554.8
603.04,1544.05
603.572,1527.4
604.103,1512.8
604.635,1482.45
605.167,1454.0
605.698,1435.15
606.229,1412.6
606.761,1387.9
607.292,1380.15
607.823,1358.3
608.354,1350.65
608.885,1330.0
609.416,1315.0
609.947,1296.6
610.477,1289.15
611.008,1278.95
611.539,1265.5
612.069,1264.65
612.6,1257.25
613.13,1252.05
613.66,1239.1
614.19,1231.15
614.721,1224.6
615.251,1206.9
615.781,1205.15
616.311,1196.4
616.841,1191.7
617.37,1189.75
617.9,1182.15
618.43,1169.85
618.96,1167.75
619.489,1161.45
620.019,1156.7
620.548,1147.9
621.077,1147.65
621.607,1151.5
622.136,1164.7
622.665,1158.7
623.194,1136.6
623.723,1126.25
624.252,1119.05
624.781,1122.7
625.31,1123.2
625.839,1120.45
626.368,1135.3
626.896,1334.25
627.425,1569.05
627.953,1370.45
628.482,1578.35
629.01,1373.25
629.539,1302.85
630.067,1246.75
630.596,1231.35
631.124,1156.5
631.652,1114.3
632.18,1109.0
632.708,1109.8
633.236,1105.05
633.764,1102.15
634.292,1102.75
634.82,1097.35
635.348,1104.15
635.876,1106.05
636.403,1105.7
636.931,1105.4
637.459,1108.6
637.986,1109.5
638.514,1110.6
639.041,1118.7
639.568,1115.55
640.096,1121.8
640.623,1125.2
641.15,1128.05
641.678,1127.25
642.205,1127.85
642.732,1131.05
643.259,1132.1
643.786,1132.9
644.313,1131.3
644.84,1134.55
645.367,1129.15
645.894,1135.9
646.421,1139.2
646.948,1135.55
647.474,1137.55
648.001,1136.25
648.528,1138.2
649.054,1132.95
649.581,1133.6
650.108,1132.95
650.634,1135.75
651.161,1131.95
651.687,1125.4
652.214,1129.95
652.74,1130.85
653.266,1126.85
653.793,1124.65
654.319,1122.75
654.845,1120.5
655.371,1116.6
655.897,1116.85
656.424,1110.55
656.95,1110.1
657.476,1103.0
658.002,1097.75
658.528,1091.9
659.054,1089.0
659.58,1079.3
660.106,1072.65
660.631,1066.45
661.157,1060.95
661.683,1052.3
662.209,1044.75
662.735,1038.45
663.129,1036.1

File: VLFR_02-HDPE_nobio_Raman_c1bff439.csv
nm,Intensity
526.486,830.4
527.033,831.4
527.579,829.3
528.126,830.7
528.672,830.2
529.219,829.5
529.765,831.0
530.311,831.6
530.857,830.8
531.403,830.3
531.948,832.0
532.494,831.4
533.039,828.4
533.585,829.2
534.13,888.6
534.675,882.5
535.22,878.3
535.764,863.4
536.309,857.0
536.854,855.8
537.398,856.0
537.942,854.9
538.486,853.2
539.03,849.6
539.574,850.3
540.118,848.8
540.662,847.6
541.205,846.8
541.749,845.3
542.292,848.4
542.835,847.5
543.378,845.2
543.921,847.5
544.464,845.8
545.006,846.4
545.549,846.1
546.091,845.4
546.634,843.5
547.176,845.6
547.718,847.0
548.26,846.5
548.802,846.7
549.343,848.0
549.885,846.0
550.426,846.1
550.968,846.6
551.509,848.0
552.05,845.9
552.591,848.2
553.132,845.4
553.673,848.8
554.214,849.9
554.754,852.1
555.295,851.7
555.835,853.0
556.375,851.8
556.915,853.3
557.455,854.2
557.995,855.4
558.535,858.1
559.075,855.1
559.614,854.4
560.154,855.2
560.693,853.5
561.232,852.3
561.772,856.7
562.311,856.6
562.85,860.4
563.388,860.5
563.927,909.0
564.466,880.7
565.004,874.4
565.543,866.1
566.081,932.2
566.619,871.0
567.157,867.6
567.695,868.1
568.233,861.3
568.771,860.7
569.309,860.2
569.846,861.9
570.384,865.9
570.921,873.1
571.458,956.8
571.995,894.4
572.532,872.3
573.069,868.5
573.606,869.2
574.143,880.7
574.68,871.0
575.216,871.7
575.753,918.8
576.289,1014.6
576.825,957.3
577.361,940.5
577.897,893.9
578.433,889.7
578.969,890.0
579.505,898.4
580.041,898.7
580.576,902.3
581.112,902.4
581.647,911.5
582.183,914.7
582.718,923.0
583.253,927.7
583.788,933.4
584.323,936.6
584.858,945.9
585.392,949.1
585.927,960.1
586.462,968.7
586.996,975.1
587.53,977.9
588.065,994.6
588.599,992.6
589.133,1002.2
589.667,1018.4
590.201,1017.9
590.735,1024.6
591.268,1021.8
591.802,1034.9
592.335,1033.5
592.869,1033.4
593.402,1036.0
593.936,1044.2
594.469,1042.0
595.002,1047.1
595.535,1055.2
596.068,1048.9
596.601,1053.5
597.133,1061.9
597.666,1056.6
598.199,1065.3
598.731,1069.5
599.264,1069.4
599.796,1066.5
600.328,1069.2
600.86,1065.7
601.393,1068.5
601.925,1060.0
602.457,1061.6
602.988,1054.6
603.52,1051.8
604.052,1049.0
604.583,1035.0
605.115,1028.2
605.646,1020.0
606.178,1012.8
606.709,1004.1
607.24,1000.5
607.771,998.9
608.302,995.3
608.833,989.4
609.364,986.4
609.895,981.1
610.426,981.7
610.957,976.5
611.487,972.9
612.018,969.8
612.548,962.0
613.078,965.8
613.609,965.1
614.139,960.1
614.669,956.0
615.199,955.6
615.729,957.8
616.259,953.9
616.789,951.0
617.319,952.9
617.849,950.3
618.378,954.0
618.908,944.6
619.437,949.6
619.967,946.9
620.496,946.2
621.025,948.5
621.555,964.5
622.084,984.6
622.613,984.4
623.142,950.2
623.671,941.5
624.2,940.2
624.729,937.8
625.258,942.1
625.786,944.7
626.315,977.4
626.844,1217.8
627.372,1726.2
627.901,1391.0
628.429,1602.4
628.957,1459.2
629.486,1315.9
630.014,1192.4
630.542,1158.0
631.07,1037.0
631.598,963.4
632.126,944.5
632.654,936.4
633.182,931.9
633.71,927.1
634.237,932.5
634.765,930.4
635.293,930.1
635.82,923.8
636.348,927.1
636.875,925.3
637.403,925.2
637.93,922.0
638.458,920.8
638.985,923.8
639.512,924.1
640.039,925.4
640.566,923.2
641.093,924.2
641.62,928.8
642.147,928.4
642.674,927.5
643.201,927.2
643.728,925.5
644.255,924.2
644.781,925.1
645.308,925.6
645.835,924.8
646.361,922.0
646.888,923.2
647.414,924.0
647.941,926.1
648.467,923.3
648.993,918.9
649.52,924.1
650.046,921.0
650.572,919.3
651.098,917.1
651.625,920.5
652.151,919.4
652.677,914.8
653.203,916.5
653.729,917.4
654.255,914.9
654.78,916.0
655.306,916.1
655.832,910.9
656.358,912.8
656.884,905.5
657.409,908.2
657.935,910.1
658.461,908.1
658.986,905.4
659.512,900.5
660.037,902.9
660.563,897.3
661.088,897.0
661.614,896.4
662.139,894.7
662.664,890.9
663.058,889.8

File: VLFR_02-HDPE_nobio_Raman_c20ef9c5.csv
nm,Intensity
526.508,831.0
527.055,830.3
527.602,829.4
528.149,830.5
528.695,830.5
529.241,830.5
529.787,830.9
530.334,829.9
530.879,830.7
531.425,830.1
531.971,834.2
532.516,830.5
533.062,829.9
533.607,831.2
534.152,903.6
534.697,910.3
535.242,906.8
535.786,869.3
536.331,858.5
536.876,855.4
537.42,853.9
537.964,852.5
538.508,849.1
539.052,848.9
539.596,846.5
540.14,844.0
540.683,842.9
541.227,844.7
541.77,843.9
542.313,843.1
542.856,842.7
543.399,844.1
543.942,842.7
544.485,841.9
545.027,841.9
545.57,841.8
546.112,841.9
546.654,844.0
547.196,842.3
547.738,845.1
548.28,843.2
548.822,842.1
549.363,841.9
549.905,842.1
550.446,842.8
550.988,843.0
551.529,843.2
552.07,843.4
552.611,844.0
553.152,845.8
553.692,845.4
554.233,845.6
554.773,847.8
555.314,848.1
555.854,849.1
556.394,848.2
556.934,849.2
557.474,851.6
558.014,855.3
558.553,854.9
559.093,849.1
559.632,852.3
560.172,848.8
560.711,848.7
561.25,851.1
561.789,851.0
562.328,852.2
562.867,854.5
563.406,857.0
563.944,951.8
564.483,875.7
565.021,870.1
565.559,861.9
566.098,921.2
566.636,863.1
567.174,858.6
567.711,869.3
568.249,854.6
568.787,852.6
569.324,855.2
569.862,855.1
570.399,857.5
570.936,867.1
571.474,997.8
572.011,885.5
572.548,865.3
573.084,863.0
573.621,860.2
574.158,872.6
574.694,857.7
575.231,863.4
575.767,906.1
576.303,1039.1
576.84,956.9
577.376,928.1
577.912,875.3
578.447,866.5
578.983,863.5
579.519,864.6
580.054,864.8
580.59,865.6
581.125,861.3
581.661,866.7
582.196,869.4
582.731,867.2
583.266,865.8
583.801,869.1
584.336,870.9
584.87,867.6
585.405,869.5
585.94,871.4
586.474,872.6
587.008,874.6
587.543,878.0
588.077,877.8
588.611,878.3
589.145,878.6
589.679,879.6
590.213,879.1
590.747,881.0
591.28,879.4
591.814,880.9
592.347,881.6
592.881,880.2
593.414,883.6
593.947,883.6
594.48,878.9
595.014,883.0
595.547,885.5
596.079,882.8
596.612,880.9
597.145,881.8
597.678,886.0
598.21,882.2
598.743,884.6
599.275,886.4
599.807,888.7
600.34,884.2
600.872,887.0
601.404,884.5
601.936,891.4
602.468,889.4
603.0,885.2
603.532,885.8
604.063,884.4
604.595,887.6
605.126,881.4
605.658,882.1
606.189,878.2
606.721,877.2
607.252,879.0
607.783,875.8
608.314,875.9
608.845,876.3
609.376,876.3
609.907,876.2
610.438,874.1
610.968,874.5
611.499,874.9
612.03,874.2
612.56,875.5
613.091,872.1
613.621,875.4
614.151,870.5
614.681,875.8
615.212,874.6
615.742,871.7
616.272,873.8
616.802,879.0
617.332,886.4
617.861,887.4
618.391,888.2
618.921,885.5
619.45,893.9
619.98,894.8
620.509,892.0
621.039,901.2
621.568,924.4
622.097,969.0
622.627,967.2
623.156,909.8
623.685,896.3
624.214,894.6
624.743,897.4
625.272,897.2
625.801,911.5
626.33,965.2
626.858,1416.0
627.387,2167.8
627.916,1609.9
628.444,2046.0
628.973,1542.7
629.501,1383.9
630.029,1222.1
630.558,1187.3
631.086,1016.9
631.614,918.3
632.142,902.3
632.67,890.4
633.198,890.5
633.726,883.3
634.254,877.5
634.782,877.1
635.31,875.0
635.838,873.2
636.365,873.0
636.893,871.4
637.421,866.6
637.948,865.8
638.476,861.9
639.003,863.9
639.531,864.5
640.058,864.7
640.585,862.7
641.113,863.5
641.64,861.2
642.167,861.2
642.694,861.7
643.221,862.6
643.748,863.1
644.275,861.4
644.802,861.8
645.329,861.6
645.856,860.4
646.382,859.1
646.909,862.4
647.436,861.1
647.962,859.7
648.489,859.5
649.016,860.2
649.542,859.6
650.069,860.0
650.595,857.8
651.121,860.9
651.648,858.3
652.174,857.5
652.7,856.5
653.227,857.0
653.753,858.1
654.279,859.2
654.805,857.2
655.331,857.1
655.857,857.1
656.383,856.4
656.909,857.5
657.435,853.7
657.961,854.9
658.487,857.6
659.013,856.2
659.538,857.0
660.064,858.1
660.59,856.8
661.116,853.8
661.641,854.8
662.167,854.6
662.692,853.1
663.087,854.2

File: VLFR_02-HDPE_nobio_Raman_c87db9e2.csv
nm,Intensity
526.5,828.6
527.047,829.1
527.594,828.1
528.14,828.6
528.687,829.4
529.233,829.7
529.779,830.2
530.325,827.6
530.871,828.4
531.417,829.5
531.962,835.2
532.508,831.3
533.053,829.8
533.599,829.3
534.144,913.6
534.689,894.9
535.234,884.7
535.778,869.1
536.323,863.1
536.867,857.8
537.412,856.9
537.956,857.0
538.5,853.3
539.044,851.4
539.588,849.3
540.132,844.3
540.675,844.7
541.219,846.2
541.762,845.0
542.305,844.9
542.848,844.4
543.391,844.3
543.934,842.9
544.477,844.8
545.02,843.3
545.562,842.5
546.105,841.8
546.647,843.1
547.189,844.2
547.731,842.5
548.273,843.5
548.815,843.1
549.356,841.3
549.898,841.5
550.439,841.6
550.981,842.4
551.522,841.8
552.063,842.3
552.604,845.0
553.145,845.8
553.686,847.0
554.226,849.4
554.767,845.5
555.307,849.4
555.848,847.9
556.388,851.2
556.928,850.3
557.468,854.9
558.008,856.9
558.547,858.7
559.087,857.3
559.626,857.6
560.166,853.5
560.705,852.5
561.244,856.5
561.783,856.1
562.322,857.0
562.861,862.7
563.4,869.5
563.939,981.3
564.477,888.3
565.015,883.1
565.554,877.7
566.092,1092.8
566.63,883.7
567.168,866.5
567.706,866.0
568.244,860.4
568.781,860.4
569.319,861.4
569.857,863.6
570.394,866.5
570.931,873.7
571.468,1041.1
572.005,895.9
572.542,869.0
573.079,859.4
573.616,864.3
574.153,872.3
574.689,859.2
575.226,869.6
575.762,979.4
576.298,983.5
576.834,943.3
577.371,906.2
577.907,867.6
578.442,861.6
578.978,860.4
579.514,856.8
580.049,859.0
580.585,861.3
581.12,857.8
581.656,860.3
582.191,858.0
582.726,858.1
583.261,859.0
583.796,858.3
584.331,859.0
584.865,858.2
585.4,861.5
585.935,859.9
586.469,861.1
587.004,863.2
587.538,862.9
588.072,863.4
588.606,866.8
589.14,862.1
589.674,864.0
590.208,864.0
590.742,867.6
591.275,866.7
591.809,868.8
592.342,872.4
592.876,871.2
593.409,870.5
593.942,871.6
594.476,874.7
595.009,874.1
595.542,870.9
596.075,874.7
596.607,876.2
597.14,877.3
597.673,879.6
598.205,881.0
598.738,882.4
599.27,882.7
599.803,887.0
600.335,886.4
600.867,884.2
601.399,882.8
601.931,885.8
602.463,888.3
602.995,887.0
603.527,881.6
604.058,882.5
604.59,885.8
605.122,881.0
605.653,883.1
606.184,882.5
606.716,880.8
607.247,880.8
607.778,882.3
608.309,879.0
608.84,881.3
609.371,883.3
609.902,883.3
610.433,881.8
610.964,889.2
611.494,887.0
612.025,881.5
612.556,881.4
613.086,881.8
613.616,883.8
614.147,880.0
614.677,878.1
615.207,881.6
615.737,878.8
616.267,880.9
616.797,880.7
617.327,884.3
617.857,885.2
618.387,884.1
618.917,881.0
619.446,885.0
619.976,884.3
620.505,883.0
621.035,886.4
621.564,893.2
622.093,912.3
622.623,908.1
623.152,887.9
623.681,882.9
624.21,880.2
624.739,882.7
625.268,886.3
625.797,890.3
626.326,915.6
626.855,1116.6
627.383,1580.8
627.912,1276.0
628.441,1398.2
628.969,1330.3
629.498,1232.6
630.026,1132.6
630.554,1111.5
631.083,976.9
631.611,905.4
632.139,891.7
632.667,880.7
633.195,874.3
633.724,872.2
634.252,872.8
634.779,869.8
635.307,870.7
635.835,866.7
636.363,866.1
636.891,863.9
637.418,863.9
637.946,863.5
638.474,861.6
639.001,862.2
639.529,862.1
640.056,861.1
640.583,860.7
641.111,861.8
641.638,861.2
642.165,859.3
642.692,858.1
643.22,861.2
643.747,861.1
644.274,857.3
644.801,862.7
645.328,862.5
645.854,863.8
646.381,860.6
646.908,860.2
647.435,857.8
647.962,860.8
648.488,859.4
649.015,863.3
649.542,861.0
650.068,856.7
650.595,860.2
651.121,855.8
651.648,859.2
652.174,858.1
652.7,858.3
653.227,859.2
653.753,860.8
654.279,858.0
654.805,859.3
655.331,858.8
655.858,859.7
656.384,855.4
656.91,857.9
657.436,858.6
657.962,856.0
658.488,857.2
659.013,858.3
659.539,857.3
660.065,860.9
660.591,857.2
661.117,855.0
661.642,858.2
662.168,855.3
662.694,855.6
663.088,856.2

File: VLFR_02-HDPE_nobio_Raman_c6518ede.csv
nm,Intensity
526.532,830.567
527.079,830.0
527.625,829.6
528.172,830.1
528.718,830.267
529.265,830.2
529.811,829.567
530.357,829.467
530.903,830.6
531.449,829.9
531.994,837.2
532.54,830.333
533.085,829.733
533.63,830.833
534.176,873.767
534.721,866.733
535.266,859.867
535.81,856.067
536.355,852.967
536.9,851.1
537.444,851.367
537.988,850.367
538.533,849.6
539.077,850.033
539.621,847.967
540.165,846.533
540.708,845.533
541.252,845.733
541.795,844.533
542.339,844.9
542.882,847.5
543.425,844.3
543.968,845.433
544.511,843.733
545.054,844.667
545.597,844.667
546.139,845.767
546.682,845.133
547.224,845.6
547.766,845.667
548.308,844.5
548.85,844.5
549.392,844.833
549.934,846.033
550.475,845.8
551.017,846.667
551.558,845.7
552.1,845.067
552.641,845.067
553.182,846.133
553.723,846.2
554.264,847.733
554.804,847.367
555.345,847.133
555.885,848.1
556.426,846.3
556.966,849.633
557.506,850.267
558.046,851.033
558.586,852.267
559.126,850.433
559.665,850.167
560.205,850.0
560.745,849.0
561.284,848.767
561.823,849.5
562.362,852.4
562.901,852.733
563.44,855.433
563.979,915.067
564.518,865.467
565.056,863.0
565.595,860.833
566.133,981.867
566.671,860.967
567.21,854.533
567.748,855.467
568.285,851.5
568.823,852.833
569.361,854.133
569.899,854.233
570.436,857.0
570.974,861.9
571.511,971.1
572.048,874.0
572.585,860.833
573.122,857.767
573.659,860.367
574.196,863.433
574.733,859.6
575.269,866.167
575.806,908.0
576.342,925.667
576.878,904.067
577.414,885.1
577.951,867.6
578.486,867.067
579.022,867.567
579.558,868.9
580.094,871.333
580.629,870.567
581.165,873.533
581.7,874.9
582.236,876.967
582.771,876.733
583.306,877.4
583.841,879.067
584.376,880.767
584.911,882.367
585.445,883.1
585.98,883.8
586.514,886.433
587.049,889.933
587.583,889.567
588.117,891.667
588.651,893.967
589.186,895.133
589.72,898.167
590.253,901.667
590.787,902.633
591.321,904.533
591.854,907.567
592.388,908.9
592.921,910.867
593.455,912.367
593.988,916.4
594.521,916.6
595.054,917.733
595.587,920.5
596.12,921.767
596.653,923.967
597.186,927.633
597.718,927.567
598.251,930.767
598.783,931.7
599.316,933.833
599.848,933.5
600.38,933.9
600.912,933.333
601.444,932.733
601.976,932.367
602.508,933.733
603.04,930.533
603.572,927.2
604.103,925.967
604.635,921.267
605.167,919.533
605.698,914.967
606.229,912.3
606.761,913.067
607.292,909.133
607.823,905.667
608.354,904.567
608.885,901.567
609.416,901.5
609.947,899.633
610.477,899.6
611.008,900.667
611.539,898.067
612.069,896.033
612.6,894.933
613.13,894.733
613.66,895.767
614.19,892.067
614.721,890.967
615.251,891.933
615.781,890.4
616.311,891.133
616.841,888.967
617.37,891.7
617.9,892.167
618.43,889.333
618.96,887.967
619.489,889.267
620.019,887.367
620.548,887.9
621.077,890.433
621.607,894.533
622.136,906.367
622.665,902.1
623.194,891.033
623.723,886.333
624.252,886.8
624.781,887.933
625.31,889.1
625.839,893.3
626.368,906.033
626.896,1024.1
627.425,1219.93
627.953,1075.8
628.482,1180.5
629.01,1113.73
629.539,1064.8
630.067,1015.6
630.596,1001.87
631.124,933.9
631.652,904.633
632.18,894.8
632.708,887.567
633.236,887.867
633.764,885.7
634.292,884.6
634.82,884.7
635.348,884.4
635.876,885.067
636.403,884.833
636.931,883.033
637.459,884.633
637.986,881.9
638.514,884.533
639.041,883.133
639.568,884.433
640.096,882.867
640.623,885.133
641.15,883.767
641.678,883.233
642.205,883.633
642.732,882.4
643.259,884.7
643.786,884.467
644.313,884.767
644.84,884.567
645.367,885.2
645.894,883.967
646.421,884.533
646.948,884.567
647.474,884.533
648.001,885.233
648.528,884.833
649.054,887.033
649.581,885.467
650.108,884.9
650.634,885.933
651.161,885.567
651.687,884.133
652.214,885.467
652.74,885.8
653.266,884.333
653.793,885.4
654.319,887.3
654.845,884.5
655.371,884.767
655.897,880.367
656.424,881.667
656.95,883.0
657.476,880.667
658.002,882.133
658.528,877.7
659.054,879.467
659.58,879.167
660.106,880.133
660.631,877.0
661.157,873.8
661.683,874.567
662.209,872.567
662.735,870.967
663.129,871.467