Folder: MPX_specDB/spectra (part 167)

File: VLFR_09-PET_bio_Raman_180125c7.csv
nm,Intensity
528.635,1851.3
529.14,1848.7
529.645,1852.0
530.151,1850.7
530.656,1850.6
531.161,1856.6
531.666,1889.8
532.171,4226.5
532.676,1857.8
533.181,1874.4
533.686,3927.9
534.191,9820.5
534.696,8392.1
535.201,7411.7
535.705,6834.4
536.21,6150.6
536.715,5942.7
537.219,5791.4
537.724,5791.6
538.228,5776.3
538.733,5895.1
539.237,5905.4
539.741,6261.7
540.246,6287.7
540.75,6298.7
541.254,6131.4
541.758,6199.8
542.262,6314.7
542.766,6445.2
543.27,6382.3
543.774,6542.7
544.278,6555.1
544.781,6641.6
545.285,6675.0
545.789,6758.8
546.292,6981.9
546.796,6866.1
547.299,7013.7
547.803,7037.4
548.306,7312.8
548.809,7264.4
549.313,7237.6
549.816,7203.7
550.319,7642.2
550.822,8245.7
551.325,7687.1
551.828,7569.2
552.331,7752.6
552.834,8139.2
553.337,7808.5
553.839,7853.9
554.342,8029.6
554.845,8184.6
555.347,8428.8
555.85,8852.4
556.352,8719.3
556.854,9011.4
557.357,10425.4
557.859,10269.5
558.361,9343.1
558.863,9285.8
559.365,9075.4
559.867,9136.0
560.369,9044.1
560.871,9198.0
561.373,9494.4
561.875,10028.7
562.377,9834.6
562.878,9799.2
563.38,9800.7
563.881,9747.2
564.383,9868.9
564.884,11205.7
565.386,11385.1
565.887,11516.1
566.388,10622.9
566.889,10192.6
567.391,10529.1
567.892,10961.3
568.393,10510.0
568.893,10381.6
569.394,10655.9
569.895,10900.2
570.396,11460.4
570.897,13514.6
571.397,15048.5
571.898,12870.7
572.398,11627.1
572.899,11259.6
573.399,11216.6
573.899,11373.2
574.399,11240.6
574.9,11482.1
575.4,12336.4
575.9,11711.9
576.4,11679.1
576.899,12092.7
577.399,11935.4
577.899,11714.1
578.399,11820.8
578.898,11526.6
579.398,12020.1
579.897,11870.5
580.397,12154.6
580.896,12499.6
581.396,13052.3
581.895,20704.0
582.394,19172.5
582.893,12769.3
583.392,12432.9
583.891,12573.6
584.39,12512.9
584.889,12690.2
585.387,13947.0
585.886,19957.1
586.385,16954.5
586.883,13246.5
587.382,13003.0
587.88,13022.3
588.379,12921.3
588.877,12817.4
589.375,12589.3
589.873,12604.2
590.371,12640.6
590.869,12700.3
591.367,12736.5
591.865,12858.2
592.363,12760.0
592.86,12807.7
593.358,12775.0
593.856,12825.8
594.353,12860.6
594.851,13087.5
595.348,13114.0
595.845,13095.2
596.342,13046.6
596.84,13180.1
597.337,13365.2
597.834,13271.4
598.331,13422.9
598.827,13196.5
599.324,13192.4
599.821,13400.2
600.318,13477.2
600.814,13225.9
601.311,13541.6
601.807,13653.2
602.303,13426.7
602.8,13817.9
603.296,13731.4
603.792,13719.6
604.288,13947.1
604.784,13992.5
605.28,13597.4
605.776,14200.2
606.272,13815.2
606.767,14498.6
607.263,14118.4
607.758,14365.3
608.254,14562.3
608.749,14279.4
609.244,14789.3
609.74,14592.6
610.235,14659.8
610.73,14706.9
611.225,14706.2
611.72,15071.2
612.215,14719.5
612.709,14977.5
613.204,15423.2
613.699,15536.6
614.193,15661.3
614.688,15681.5
615.182,15713.1
615.676,15774.3
616.171,16220.2
616.665,16083.1
617.159,16230.6
617.653,16485.0
618.147,16354.5
618.641,16681.9
619.134,16577.8
619.628,17107.8
620.122,17194.0
620.615,17240.4
621.109,17421.7
621.602,17648.0
622.095,17457.7
622.588,18029.1
623.082,18044.7
623.575,18067.2
624.068,17853.6
624.56,18308.8
625.053,18926.0
625.546,18674.3
626.039,18672.7
626.531,18529.2
627.024,19105.6
627.516,19284.0
628.008,19325.8
628.501,19455.0
628.993,19881.7
629.485,20060.2
629.977,19603.8
630.469,20226.6
630.961,20862.2
631.452,21034.8
631.944,21748.2
632.436,21293.8
632.927,21146.4
633.418,21313.5
633.91,21196.4
634.401,20745.0
634.892,21014.3
635.383,21314.2
635.874,21984.5
636.365,23459.3
636.856,22408.5
637.347,21614.1
637.837,21123.3
638.328,21409.1
638.818,21867.8
639.309,21519.0
639.799,21468.2
640.289,21395.0
640.78,21179.0
641.27,21932.4
641.76,21241.5
642.249,21312.9
642.739,21305.4
643.229,20971.3
643.719,20517.4
644.208,21813.9
644.698,21251.6
645.187,21232.9
645.676,21113.5
646.165,21433.3
646.655,21487.4
647.144,20725.4
647.633,20495.4
648.121,21232.4
648.61,21364.4
649.099,20903.0
649.587,21119.2
650.076,20442.1
650.564,20920.4
651.053,19764.5
651.541,20143.7
652.029,21092.0
652.517,19817.6
653.005,20045.3
653.493,19263.6
653.981,19485.4
654.468,19393.8
654.956,19550.9
655.444,19745.3
655.931,19653.8
656.418,18735.8
656.906,19157.2
657.393,18262.3
657.88,18233.6
658.367,18156.3
658.854,18241.1
659.341,17924.2
659.827,17492.3
660.314,17330.4
660.8,16933.2
661.044,17554.8

File: VLFR_09-PET_bio_Raman_05321540.csv
nm,Intensity
526.547,832.75
527.095,832.8
527.642,833.3
528.189,833.25
528.736,832.95
529.283,832.7
529.829,832.25
530.376,832.7
530.922,831.85
531.468,832.5
532.014,836.4
532.56,833.15
533.106,832.65
533.651,843.65
534.196,1572.7
534.742,1505.15
535.287,1421.0
535.832,1402.25
536.376,1377.55
536.921,1367.2
537.465,1365.1
538.01,1370.05
538.554,1376.7
539.098,1380.85
539.642,1396.0
540.186,1410.3
540.729,1405.2
541.273,1414.2
541.816,1424.55
542.36,1431.95
542.903,1442.85
543.446,1457.05
543.988,1473.55
544.531,1487.15
545.074,1489.6
545.616,1501.3
546.158,1517.5
546.701,1544.35
547.243,1528.55
547.785,1533.2
548.326,1544.9
548.868,1561.85
549.41,1576.15
549.951,1581.0
550.492,1613.65
551.034,1599.1
551.575,1608.85
552.116,1615.2
552.656,1622.25
553.197,1634.85
553.738,1648.35
554.278,1653.2
554.819,1660.1
555.359,1665.55
555.899,1685.25
556.439,1693.5
556.979,1700.95
557.519,1809.7
558.058,1736.4
558.598,1708.1
559.137,1712.95
559.677,1717.8
560.216,1725.6
560.755,1733.6
561.294,1744.15
561.833,1748.7
562.371,1912.3
562.91,1773.5
563.449,1772.8
563.987,1794.3
564.525,1814.1
565.064,1873.65
565.602,1856.85
566.14,1851.45
566.678,1819.4
567.216,1811.45
567.753,1840.05
568.291,1838.05
568.828,1828.6
569.366,1847.95
569.903,1856.6
570.44,1880.05
570.977,1945.75
571.514,2039.1
572.051,1942.05
572.588,1903.65
573.125,1905.25
573.661,1914.35
574.198,1928.2
574.734,1933.95
575.271,1957.9
575.807,1946.2
576.343,1956.35
576.879,1981.35
577.415,1987.0
577.951,1980.85
578.486,1989.05
579.022,2000.35
579.557,2018.55
580.093,2018.65
580.628,2023.8
581.164,2050.9
581.699,2112.5
582.234,2777.3
582.769,2106.4
583.304,2094.35
583.838,2104.1
584.373,2096.8
584.908,2114.9
585.442,2178.4
585.977,2494.55
586.511,2346.35
587.045,2191.25
587.58,2178.7
588.114,2164.1
588.648,2166.15
589.182,2159.05
589.715,2169.55
590.249,2167.2
590.783,2172.9
591.316,2188.4
591.85,2201.75
592.383,2186.6
592.917,2179.85
593.45,2183.85
593.983,2185.75
594.516,2193.75
595.049,2202.5
595.582,2212.25
596.115,2208.35
596.648,2219.05
597.18,2222.95
597.713,2216.15
598.245,2235.25
598.778,2243.35
599.31,2253.1
599.842,2238.3
600.375,2231.55
600.907,2221.0
601.439,2233.5
601.971,2217.35
602.503,2220.5
603.034,2235.55
603.566,2243.7
604.098,2243.0
604.629,2220.65
605.161,2215.25
605.692,2212.55
606.224,2200.85
606.755,2203.0
607.286,2207.65
607.817,2223.9
608.348,2246.8
608.879,2239.7
609.41,2251.7
609.941,2264.15
610.472,2264.3
611.002,2273.8
611.533,2276.05
612.063,2307.3
612.594,2329.7
613.124,2365.4
613.655,2379.9
614.185,2385.8
614.715,2394.55
615.245,2403.0
615.775,2415.35
616.305,2423.45
616.835,2448.65
617.365,2481.5
617.895,2489.05
618.425,2518.2
618.954,2523.65
619.484,2527.85
620.013,2548.8
620.543,2558.35
621.072,2568.45
621.602,2597.2
622.131,2627.4
622.66,2637.0
623.189,2667.5
623.718,2685.0
624.247,2706.15
624.776,2741.05
625.305,2745.6
625.834,2770.4
626.363,2761.5
626.891,2802.0
627.42,2804.5
627.949,2821.6
628.477,2848.35
629.006,2864.05
629.534,2900.9
630.062,2917.05
630.591,2918.7
631.119,2963.9
631.647,3002.6
632.175,3004.1
632.703,2999.55
633.231,3016.8
633.759,3007.85
634.287,2999.2
634.815,3010.65
635.343,3029.75
635.871,3076.4
636.398,3180.15
636.926,3165.9
637.454,3100.5
637.981,3097.95
638.509,3095.45
639.036,3111.4
639.564,3107.1
640.091,3112.5
640.618,3114.45
641.146,3130.1
641.673,3134.9
642.2,3143.3
642.727,3118.3
643.254,3120.15
643.781,3096.5
644.308,3084.45
644.835,3084.45
645.362,3074.45
645.889,3072.65
646.416,3072.4
646.942,3091.1
647.469,3098.65
647.996,3077.8
648.522,3064.85
649.049,3068.75
649.576,3066.25
650.102,3065.25
650.629,3049.85
651.155,3039.2
651.682,3044.2
652.208,3046.5
652.734,3047.1
653.261,3029.95
653.787,3040.1
654.313,3026.0
654.839,3018.25
655.365,3005.7
655.892,3021.25
656.418,3002.85
656.944,3017.8
657.47,2990.15
657.996,2996.75
658.522,3013.25
659.048,3004.8
659.574,2999.95
660.099,3012.4
660.625,2984.2
661.151,2967.25
661.677,2947.8
662.203,2942.85
662.728,2956.9
663.123,2942.65