Folder: MPX_specDB/spectra (part 9)

File: VLFR_01-LDPE_bio_Raman_1445115d.csv
nm,Intensity
526.508,828.2
527.055,832.0
527.602,830.0
528.149,831.1
528.695,830.2
529.241,830.6
529.787,829.0
530.334,830.0
530.879,828.9
531.425,830.9
531.971,835.9
532.516,829.8
533.062,829.9
533.607,829.8
534.152,858.9
534.697,855.7
535.242,852.7
535.786,851.4
536.331,849.0
536.876,850.4
537.42,847.1
537.964,849.7
538.508,848.2
539.052,846.7
539.596,846.1
540.14,847.0
540.683,845.7
541.227,844.7
541.77,844.4
542.313,845.8
542.856,845.0
543.399,843.7
543.942,842.9
544.485,842.1
545.027,843.0
545.57,841.0
546.112,842.3
546.654,841.1
547.196,842.3
547.738,840.7
548.28,840.8
548.822,840.2
549.363,841.5
549.905,841.9
550.446,840.2
550.988,843.2
551.529,841.6
552.07,842.8
552.611,840.9
553.152,841.0
553.692,841.0
554.233,841.5
554.773,840.6
555.314,843.3
555.854,842.5
556.394,842.9
556.934,843.8
557.474,844.3
558.014,841.7
558.553,844.6
559.093,845.0
559.632,844.6
560.172,844.3
560.711,845.2
561.25,842.9
561.789,844.2
562.328,847.6
562.867,848.6
563.406,847.8
563.944,857.0
564.483,851.4
565.021,850.5
565.559,851.0
566.098,862.2
566.636,851.2
567.174,850.4
567.711,850.7
568.249,851.0
568.787,850.1
569.324,850.0
569.862,851.8
570.399,852.4
570.936,852.1
571.474,871.3
572.011,860.9
572.548,853.6
573.084,855.2
573.621,853.9
574.158,854.2
574.694,853.8
575.231,855.6
575.767,860.3
576.303,881.3
576.84,873.1
577.376,864.8
577.912,859.1
578.447,863.9
578.983,860.8
579.519,864.6
580.054,865.5
580.59,868.6
581.125,871.2
581.661,870.4
582.196,871.1
582.731,873.5
583.266,875.8
583.801,880.2
584.336,879.8
584.87,885.2
585.405,889.9
585.94,889.0
586.474,897.5
587.008,899.4
587.543,907.2
588.077,908.5
588.611,911.9
589.145,917.0
589.679,923.8
590.213,927.2
590.747,931.5
591.28,942.3
591.814,939.7
592.347,946.9
592.881,949.3
593.414,958.1
593.947,971.2
594.48,973.2
595.014,985.5
595.547,995.6
596.079,1000.6
596.612,1018.6
597.145,1027.5
597.678,1038.3
598.21,1053.2
598.743,1065.9
599.275,1079.3
599.807,1077.1
600.34,1083.6
600.872,1087.1
601.404,1083.0
601.936,1083.0
602.468,1081.7
603.0,1076.5
603.532,1070.3
604.063,1061.7
604.595,1050.8
605.126,1036.1
605.658,1024.3
606.189,1019.8
606.721,1009.4
607.252,1001.3
607.783,989.6
608.314,993.1
608.845,984.8
609.376,982.0
609.907,974.1
610.438,969.5
610.968,970.8
611.499,963.4
612.03,961.1
612.56,954.5
613.091,953.9
613.621,955.6
614.151,949.3
614.681,949.6
615.212,946.2
615.742,938.7
616.272,941.4
616.802,933.2
617.332,936.5
617.861,936.5
618.391,937.4
618.921,929.3
619.45,927.7
619.98,926.2
620.509,926.6
621.039,920.4
621.568,923.9
622.097,931.1
622.627,927.0
623.156,925.1
623.685,918.5
624.214,911.2
624.743,914.9
625.272,913.7
625.801,917.6
626.33,920.0
626.858,971.1
627.387,1062.7
627.916,1000.9
628.444,1047.7
628.973,1003.9
629.501,989.7
630.029,967.5
630.558,959.1
631.086,929.5
631.614,912.5
632.142,906.3
632.67,903.4
633.198,902.8
633.726,904.3
634.254,900.2
634.782,902.1
635.31,901.7
635.838,900.8
636.365,903.5
636.893,905.1
637.421,905.0
637.948,905.7
638.476,908.4
639.003,906.0
639.531,908.0
640.058,907.6
640.585,912.0
641.113,911.5
641.64,915.2
642.167,919.3
642.694,919.3
643.221,919.1
643.748,922.5
644.275,925.0
644.802,925.5
645.329,923.9
645.856,926.5
646.382,932.4
646.909,933.3
647.436,937.5
647.962,938.7
648.489,940.8
649.016,943.5
649.542,944.5
650.069,944.3
650.595,945.1
651.121,950.8
651.648,953.1
652.174,956.0
652.7,956.3
653.227,959.1
653.753,962.4
654.279,962.5
654.805,960.7
655.331,961.4
655.857,959.3
656.383,955.6
656.909,958.4
657.435,954.8
657.961,955.1
658.487,951.1
659.013,946.5
659.538,939.4
660.064,938.3
660.59,932.3
661.116,930.3
661.641,927.3
662.167,923.8
662.692,915.4
663.087,919.2

File: VLFR_01-LDPE_bio_Raman_1605469c.csv
nm,Intensity
528.635,1834.6
529.14,1834.4
529.645,1834.2
530.151,1834.0
530.656,1835.6
531.161,1837.7
531.666,1873.1
532.171,4376.8
532.676,1837.7
533.181,1836.4
533.686,2013.3
534.191,2380.2
534.696,2312.9
535.201,2235.5
535.705,2150.9
536.21,2112.5
536.715,2112.4
537.219,2088.8
537.724,2075.5
538.228,2082.0
538.733,2059.9
539.237,2046.6
539.741,2029.1
540.246,2021.4
540.75,2006.8
541.254,2005.3
541.758,2009.4
542.262,2002.2
542.766,2000.0
543.27,2009.6
543.774,2008.5
544.278,2001.0
544.781,1991.2
545.285,1985.3
545.789,1992.0
546.292,1986.5
546.796,1997.1
547.299,1990.0
547.803,1994.6
548.306,1980.5
548.809,1979.3
549.313,1979.5
549.816,1987.5
550.319,1981.7
550.822,1977.3
551.325,1988.5
551.828,1988.8
552.331,1991.3
552.834,1985.9
553.337,2018.5
553.839,2015.1
554.342,2021.5
554.845,2026.3
555.347,2040.5
555.85,2051.8
556.352,2071.2
556.854,2089.9
557.357,2093.8
557.859,2127.6
558.361,2142.5
558.863,2130.4
559.365,2088.5
559.867,2089.1
560.369,2089.6
560.871,2077.0
561.373,2092.9
561.875,2106.8
562.377,2133.0
562.878,2153.6
563.38,2200.1
563.881,2791.7
564.383,2415.2
564.884,2315.4
565.386,2244.5
565.887,2584.2
566.388,2527.0
566.889,2205.1
567.391,2270.6
567.892,2166.6
568.393,2144.2
568.893,2154.9
569.394,2176.9
569.895,2187.5
570.396,2227.4
570.897,2308.1
571.397,3210.7
571.898,2635.7
572.398,2366.7
572.899,2280.5
573.399,2274.1
573.899,2350.0
574.399,2283.1
574.9,2302.8
575.4,2617.1
575.9,2928.4
576.4,3605.0
576.899,3227.2
577.399,2798.3
577.899,2533.4
578.399,2548.2
578.898,2579.5
579.398,2597.8
579.897,2646.4
580.397,2723.9
580.896,2764.3
581.396,2780.5
581.895,2815.3
582.394,2817.6
582.893,2805.3
583.392,2839.2
583.891,2890.2
584.39,2878.2
584.889,2910.4
585.387,2934.5
585.886,2956.3
586.385,3004.5
586.883,3029.9
587.382,3092.0
587.88,3147.8
588.379,3226.0
588.877,3224.4
589.375,3233.8
589.873,3328.4
590.371,3408.1
590.869,3482.3
591.367,3512.7
591.865,3607.1
592.363,3588.5
592.86,3706.2
593.358,3751.0
593.856,3766.9
594.353,3833.8
594.851,3874.5
595.348,3904.0
595.845,4025.4
596.342,4025.1
596.84,4138.4
597.337,4169.3
597.834,4246.7
598.331,4278.4
598.827,4344.0
599.324,4381.8
599.821,4386.0
600.318,4392.2
600.814,4429.9
601.311,4451.8
601.807,4467.4
602.303,4281.9
602.8,4170.6
603.296,4197.2
603.792,4079.1
604.288,4004.6
604.784,3916.3
605.28,3831.5
605.776,3732.4
606.272,3684.7
606.767,3607.4
607.263,3580.6
607.758,3460.4
608.254,3408.2
608.749,3353.1
609.244,3355.5
609.74,3306.0
610.235,3278.5
610.73,3237.6
611.225,3221.9
611.72,3195.9
612.215,3140.2
612.709,3109.9
613.204,3091.8
613.699,3084.3
614.193,3041.4
614.688,3028.7
615.182,3005.0
615.676,3009.2
616.171,2970.7
616.665,2973.2
617.159,3011.9
617.653,2970.7
618.147,2966.3
618.641,2946.3
619.134,2914.4
619.628,2989.9
620.122,2946.3
620.615,2978.1
621.109,3005.1
621.602,3090.5
622.095,3318.2
622.588,3188.3
623.082,3000.9
623.575,2903.0
624.068,2906.6
624.56,2903.7
625.053,2905.3
625.546,2973.3
626.039,3035.9
626.531,3905.0
627.024,8072.2
627.516,7706.2
628.008,6785.6
628.501,9640.8
628.993,7155.6
629.485,6188.7
629.977,5426.5
630.469,5070.8
630.961,3974.5
631.452,3298.7
631.944,3024.0
632.436,2939.1
632.927,2899.9
633.418,2809.2
633.91,2796.3
634.401,2744.7
634.892,2760.1
635.383,2730.8
635.874,2741.9
636.365,2694.6
636.856,2663.4
637.347,2666.4
637.837,2665.6
638.328,2703.7
638.818,2642.1
639.309,2674.8
639.799,2682.3
640.289,2656.0
640.78,2732.3
641.27,2611.4
641.76,2675.2
642.249,2683.0
642.739,2639.2
643.229,2685.9
643.719,2669.1
644.208,2701.6
644.698,2668.7
645.187,2682.4
645.676,2719.1
646.165,2711.7
646.655,2712.5
647.144,2704.7
647.633,2659.7
648.121,2737.9
648.61,2690.8
649.099,2656.2
649.587,2656.4
650.076,2642.8
650.564,2691.2
651.053,2655.3
651.541,2644.9
652.029,2626.0
652.517,2625.8
653.005,2655.4
653.493,2638.5
653.981,2622.8
654.468,2626.0
654.956,2583.4
655.444,2576.7
655.931,2574.6
656.418,2571.8
656.906,2484.7
657.393,2522.8
657.88,2451.6
658.367,2461.1
658.854,2445.7
659.341,2421.2
659.827,2393.9
660.314,2332.4
660.8,2353.9
661.044,2347.7

File: VLFR_01-LDPE_bio_Raman_2096398d.csv
nm,Intensity
526.508,828.6
527.055,829.6
527.602,830.0
528.149,830.3
528.695,829.3
529.241,829.8
529.787,830.8
530.334,829.5
530.879,830.9
531.425,829.6
531.971,833.3
532.516,830.2
533.062,829.9
533.607,830.1
534.152,900.3
534.697,884.8
535.242,874.8
535.786,866.4
536.331,858.8
536.876,859.4
537.42,856.1
537.964,857.2
538.508,857.8
539.052,858.5
539.596,854.0
540.14,849.4
540.683,847.9
541.227,849.1
541.77,848.3
542.313,846.4
542.856,848.4
543.399,847.8
543.942,847.2
544.485,845.7
545.027,845.9
545.57,844.9
546.112,845.6
546.654,846.5
547.196,845.8
547.738,845.2
548.28,844.6
548.822,844.7
549.363,844.6
549.905,844.5
550.446,844.5
550.988,845.1
551.529,847.3
552.07,845.4
552.611,845.4
553.152,844.7
553.692,847.4
554.233,848.1
554.773,849.0
555.314,849.6
555.854,850.3
556.394,851.9
556.934,852.5
557.474,854.3
558.014,858.0
558.553,861.3
559.093,857.3
559.632,855.7
560.172,854.4
560.711,854.6
561.25,854.5
561.789,855.4
562.328,857.7
562.867,861.3
563.406,866.0
563.944,913.6
564.483,889.2
565.021,883.8
565.559,875.1
566.098,947.3
566.636,881.0
567.174,869.7
567.711,872.8
568.249,870.2
568.787,873.5
569.324,875.5
569.862,880.5
570.399,886.9
570.936,891.5
571.474,978.8
572.011,926.9
572.548,906.5
573.084,904.1
573.621,909.9
574.158,922.2
574.694,915.2
575.231,929.8
575.767,986.9
576.303,1051.1
576.84,1028.3
577.376,1011.4
577.912,999.4
578.447,1012.4
578.983,1023.3
579.519,1040.1
580.054,1064.6
580.59,1077.2
581.125,1105.4
581.661,1122.2
582.196,1135.4
582.731,1155.6
583.266,1169.1
583.801,1184.4
584.336,1195.3
584.87,1207.7
585.405,1222.1
585.94,1238.8
586.474,1259.5
587.008,1274.4
587.543,1293.2
588.077,1308.1
588.611,1325.2
589.145,1337.0
589.679,1356.8
590.213,1379.9
590.747,1391.6
591.28,1419.7
591.814,1428.0
592.347,1438.2
592.881,1445.4
593.414,1448.3
593.947,1463.8
594.48,1466.9
595.014,1482.5
595.547,1489.1
596.079,1503.0
596.612,1510.2
597.145,1529.7
597.678,1536.2
598.21,1554.1
598.743,1558.2
599.275,1572.4
599.807,1571.0
600.34,1572.8
600.872,1570.2
601.404,1560.8
601.936,1544.9
602.468,1544.3
603.0,1530.1
603.532,1510.1
604.063,1484.3
604.595,1464.9
605.126,1428.9
605.658,1396.7
606.189,1375.4
606.721,1350.0
607.252,1343.7
607.783,1315.4
608.314,1300.7
608.845,1285.5
609.376,1270.2
609.907,1260.6
610.438,1246.1
610.968,1230.3
611.499,1223.3
612.03,1214.9
612.56,1202.7
613.091,1205.7
613.621,1198.1
614.151,1189.4
614.681,1181.2
615.212,1171.1
615.742,1158.7
616.272,1150.1
616.802,1153.0
617.332,1146.8
617.861,1142.5
618.391,1143.5
618.921,1126.4
619.45,1129.9
619.98,1126.4
620.509,1123.0
621.039,1132.7
621.568,1132.3
622.097,1148.0
622.627,1143.5
623.156,1126.1
623.685,1115.0
624.214,1118.5
624.743,1123.3
625.272,1121.2
625.801,1135.9
626.33,1151.0
626.858,1306.4
627.387,1694.3
627.916,1479.4
628.444,1603.0
628.973,1572.7
629.501,1481.4
630.029,1405.2
630.558,1386.1
631.086,1274.4
631.614,1202.5
632.142,1186.1
632.67,1171.0
633.198,1164.0
633.726,1161.8
634.254,1167.5
634.782,1175.7
635.31,1179.6
635.838,1188.6
636.365,1187.3
636.893,1180.6
637.421,1190.8
637.948,1186.4
638.476,1197.6
639.003,1193.7
639.531,1195.8
640.058,1203.4
640.585,1208.5
641.113,1209.8
641.64,1222.1
642.167,1217.2
642.694,1227.7
643.221,1224.0
643.748,1216.9
644.275,1232.6
644.802,1228.0
645.329,1228.5
645.856,1224.3
646.382,1232.7
646.909,1243.0
647.436,1236.1
647.962,1230.6
648.489,1235.6
649.016,1227.2
649.542,1223.2
650.069,1224.2
650.595,1225.1
651.121,1220.8
651.648,1219.9
652.174,1224.1
652.7,1219.7
653.227,1223.8
653.753,1222.4
654.279,1217.1
654.805,1210.8
655.331,1210.7
655.857,1205.5
656.383,1205.0
656.909,1193.8
657.435,1189.7
657.961,1178.0
658.487,1170.0
659.013,1160.0
659.538,1158.3
660.064,1149.5
660.59,1137.4
661.116,1127.5
661.641,1104.7
662.167,1106.5
662.692,1088.8
663.087,1083.7

File: VLFR_01-LDPE_bio_Raman_4301509b.csv
nm,Intensity
526.495,829.1
527.042,828.0
527.589,829.0
528.136,830.1
528.682,829.5
529.229,829.0
529.775,829.0
530.321,829.3
530.867,829.7
531.413,829.3
531.959,833.1
532.505,830.4
533.051,829.9
533.596,830.5
534.141,958.7
534.687,942.3
535.232,927.1
535.777,919.4
536.321,910.7
536.866,910.5
537.41,907.5
537.955,910.7
538.499,905.9
539.043,905.0
539.587,903.0
540.131,899.6
540.675,899.4
541.219,902.5
541.762,899.3
542.305,897.7
542.849,899.8
543.392,896.9
543.935,896.6
544.478,898.1
545.02,898.6
545.563,899.1
546.106,900.1
546.648,898.9
547.19,899.4
547.732,899.2
548.274,902.0
548.816,898.6
549.358,901.5
549.9,902.2
550.441,903.7
550.983,902.6
551.524,905.2
552.065,904.2
552.606,900.8
553.147,906.3
553.688,906.0
554.229,912.8
554.769,911.1
555.31,910.7
555.85,913.1
556.391,916.6
556.931,918.4
557.471,917.1
558.011,924.0
558.551,922.7
559.09,917.4
559.63,917.9
560.169,920.3
560.709,920.9
561.248,917.5
561.787,916.3
562.326,921.0
562.865,921.6
563.404,932.5
563.943,977.4
564.481,954.9
565.02,949.9
565.558,938.3
566.096,992.5
566.634,948.6
567.172,941.2
567.71,940.3
568.248,937.1
568.786,942.5
569.324,935.9
569.861,944.7
570.399,949.1
570.936,956.3
571.473,1036.8
572.01,990.6
572.547,959.5
573.084,959.8
573.621,963.4
574.158,963.3
574.694,957.5
575.231,960.3
575.767,999.8
576.303,1092.7
576.84,1049.0
577.376,1018.3
577.912,992.1
578.448,991.0
578.984,993.0
579.519,1007.5
580.055,1008.4
580.59,1008.3
581.126,1014.3
581.661,1018.3
582.196,1019.9
582.731,1017.8
583.267,1027.0
583.801,1023.8
584.336,1026.3
584.871,1030.1
585.406,1038.7
585.94,1045.8
586.475,1055.4
587.009,1072.1
587.543,1075.2
588.078,1087.0
588.612,1094.7
589.146,1104.6
589.68,1106.2
590.214,1114.9
590.747,1127.9
591.281,1137.4
591.815,1140.7
592.348,1145.5
592.881,1152.1
593.415,1150.7
593.948,1152.3
594.481,1155.4
595.014,1160.5
595.547,1170.5
596.08,1178.1
596.613,1184.5
597.146,1190.8
597.678,1200.2
598.211,1206.2
598.743,1210.7
599.276,1218.6
599.808,1231.0
600.34,1218.9
600.872,1224.3
601.404,1224.7
601.936,1224.2
602.468,1214.2
603.0,1208.4
603.532,1204.0
604.064,1189.3
604.595,1177.8
605.127,1162.8
605.658,1148.8
606.189,1136.1
606.721,1133.0
607.252,1120.7
607.783,1106.6
608.314,1109.3
608.845,1099.0
609.376,1088.7
609.907,1086.8
610.438,1077.7
610.968,1080.9
611.499,1071.8
612.029,1074.8
612.56,1066.1
613.09,1071.0
613.621,1066.6
614.151,1062.5
614.681,1056.9
615.211,1046.8
615.741,1043.4
616.271,1045.4
616.801,1037.2
617.331,1042.0
617.861,1037.0
618.39,1041.3
618.92,1040.2
619.45,1038.8
619.979,1042.3
620.509,1033.0
621.038,1040.5
621.567,1045.3
622.096,1060.6
622.626,1054.0
623.155,1031.4
623.684,1021.4
624.213,1023.6
624.742,1026.9
625.271,1028.9
625.799,1032.0
626.328,1052.6
626.857,1224.6
627.386,1661.5
627.914,1405.7
628.443,1568.6
628.971,1530.1
629.5,1426.6
630.028,1330.1
630.556,1305.0
631.084,1149.0
631.613,1078.3
632.141,1042.4
632.669,1027.6
633.197,1024.8
633.725,1017.7
634.253,1017.2
634.781,1015.3
635.308,1019.9
635.836,1017.8
636.364,1013.9
636.891,1018.2
637.419,1015.6
637.947,1014.8
638.474,1017.3
639.002,1018.9
639.529,1028.3
640.056,1025.4
640.584,1025.1
641.111,1027.0
641.638,1027.7
642.165,1028.1
642.692,1028.3
643.219,1029.4
643.746,1031.8
644.273,1028.6
644.8,1035.4
645.327,1027.0
645.854,1026.4
646.381,1028.0
646.908,1033.1
647.434,1028.6
647.961,1033.3
648.488,1030.3
649.014,1029.0
649.541,1025.5
650.067,1026.9
650.594,1024.8
651.12,1026.9
651.646,1020.4
652.173,1034.6
652.699,1023.9
653.225,1019.3
653.752,1025.6
654.278,1024.8
654.804,1021.2
655.33,1023.4
655.856,1022.9
656.382,1018.1
656.908,1014.9
657.434,1010.5
657.96,1014.5
658.486,1008.7
659.012,1010.5
659.538,997.4
660.064,997.1
660.589,989.7
661.115,984.7
661.641,982.6
662.166,976.8
662.692,971.7
663.086,967.6

File: VLFR_01-LDPE_bio_Raman_4651917c.csv
nm,Intensity
528.626,1867.2
529.132,1868.2
529.637,1868.5
530.143,1867.8
530.648,1867.7
531.153,1868.9
531.658,1892.0
532.164,3459.7
532.669,1868.9
533.174,1869.1
533.679,1919.5
534.184,2136.4
534.689,2103.2
535.194,2083.4
535.699,2071.5
536.203,2044.1
536.708,2048.6
537.213,2042.5
537.717,2046.1
538.222,2034.1
538.726,2031.6
539.231,2036.1
539.735,2030.5
540.239,2013.7
540.744,2022.8
541.248,2017.9
541.752,2031.8
542.256,2029.3
542.76,2026.7
543.264,2016.2
543.768,2020.9
544.272,2025.4
544.776,2032.4
545.28,2020.4
545.784,2028.3
546.287,2020.3
546.791,2024.8
547.294,2023.0
547.798,2018.2
548.301,2033.0
548.805,2025.6
549.308,2023.8
549.811,2024.4
550.315,2021.1
550.818,2018.3
551.321,2016.9
551.824,2036.3
552.327,2033.3
552.83,2035.7
553.333,2033.6
553.835,2048.4
554.338,2047.4
554.841,2046.9
555.343,2054.3
555.846,2055.8
556.349,2061.2
556.851,2056.6
557.353,2073.1
557.856,2083.1
558.358,2078.8
558.86,2088.9
559.362,2078.4
559.864,2076.0
560.366,2065.5
560.868,2076.7
561.37,2082.0
561.872,2091.2
562.374,2084.8
562.876,2100.0
563.377,2109.2
563.879,2284.9
564.38,2192.1
564.882,2159.5
565.383,2139.2
565.885,2242.2
566.386,2237.7
566.887,2137.5
567.388,2137.8
567.889,2121.7
568.391,2113.6
568.892,2117.3
569.392,2122.8
569.893,2139.4
570.394,2147.7
570.895,2167.0
571.395,2462.3
571.896,2306.1
572.397,2209.3
572.897,2171.6
573.397,2176.4
573.898,2205.1
574.398,2184.8
574.898,2199.6
575.398,2275.7
575.898,2403.7
576.398,2651.2
576.898,2527.0
577.398,2376.7
577.898,2289.0
578.398,2303.0
578.897,2318.8
579.397,2317.1
579.896,2355.3
580.396,2384.9
580.895,2420.9
581.395,2443.3
581.894,2463.2
582.393,2499.7
582.892,2551.4
583.391,2587.5
583.89,2642.8
584.389,2679.5
584.888,2727.3
585.387,2761.6
585.886,2853.8
586.384,2879.9
586.883,2951.8
587.381,3021.6
587.88,3102.1
588.378,3180.6
588.876,3246.5
589.375,3307.6
589.873,3371.6
590.371,3425.6
590.869,3516.5
591.367,3606.1
591.865,3651.9
592.363,3717.7
592.86,3764.9
593.358,3736.4
593.856,3801.2
594.353,3872.3
594.851,3891.5
595.348,3952.4
595.845,3926.8
596.342,4074.7
596.84,4103.6
597.337,4078.7
597.834,4186.5
598.331,4170.3
598.828,4158.7
599.324,4187.1
599.821,4229.1
600.318,4236.0
600.814,4257.3
601.311,4272.1
601.807,4240.9
602.304,4112.7
602.8,4072.1
603.296,4052.8
603.792,4004.5
604.288,3896.6
604.784,3823.1
605.28,3769.9
605.776,3725.8
606.272,3660.6
606.767,3633.5
607.263,3572.7
607.759,3520.5
608.254,3480.6
608.749,3341.0
609.245,3324.2
609.74,3304.9
610.235,3302.2
610.73,3256.8
611.225,3253.3
611.72,3191.9
612.215,3169.0
612.71,3137.5
613.204,3139.3
613.699,3095.5
614.194,3085.9
614.688,3018.4
615.182,3007.3
615.677,2984.2
616.171,2954.4
616.665,2961.8
617.159,2914.6
617.653,2897.2
618.147,2891.6
618.641,2850.9
619.135,2855.7
619.628,2853.5
620.122,2862.6
620.615,2844.9
621.109,2823.0
621.602,2856.4
622.095,2895.1
622.589,2890.6
623.082,2793.9
623.575,2736.8
624.068,2758.2
624.561,2715.7
625.053,2728.5
625.546,2710.0
626.039,2798.4
626.531,3048.8
627.024,4729.4
627.516,4809.8
628.008,4209.3
628.501,5225.3
628.993,4365.1
629.485,4031.4
629.977,3657.0
630.469,3562.3
630.96,3221.2
631.452,2897.3
631.944,2756.7
632.435,2747.9
632.927,2713.2
633.418,2698.3
633.91,2681.7
634.401,2695.8
634.892,2704.7
635.383,2693.5
635.874,2694.3
636.365,2706.2
636.856,2701.9
637.346,2728.9
637.837,2735.0
638.327,2776.4
638.818,2775.8
639.308,2778.5
639.799,2762.0
640.289,2791.2
640.779,2772.1
641.269,2833.1
641.759,2843.3
642.249,2874.8
642.738,2901.9
643.228,2843.0
643.718,2883.9
644.207,2868.6
644.697,2873.7
645.186,2900.4
645.675,2863.7
646.164,2851.3
646.653,2863.1
647.142,2873.4
647.631,2882.2
648.12,2852.9
648.609,2852.3
649.098,2838.4
649.586,2830.9
650.075,2843.3
650.563,2827.3
651.051,2820.6
651.539,2812.4
652.027,2812.5
652.515,2783.3
653.003,2763.2
653.491,2761.0
653.979,2737.0
654.467,2735.2
654.954,2695.9
655.442,2724.0
655.929,2730.2
656.416,2676.6
656.904,2683.2
657.391,2634.3
657.878,2619.1
658.365,2564.6
658.851,2570.5
659.338,2538.7
659.825,2522.8
660.311,2492.2
660.798,2483.1
661.041,2458.3

File: VLFR_01-LDPE_bio_Raman_06634192.csv
nm,Intensity
528.635,1835.3
529.14,1835.3
529.645,1834.5
530.151,1835.5
530.656,1835.8
531.161,1836.6
531.666,1883.7
532.171,3785.4
532.676,1838.6
533.181,1838.2
533.686,2029.8
534.191,2413.2
534.696,2370.9
535.201,2286.9
535.705,2182.5
536.21,2128.6
536.715,2140.9
537.219,2110.1
537.724,2114.6
538.228,2092.5
538.733,2067.2
539.237,2052.6
539.741,2039.2
540.246,2031.9
540.75,2028.4
541.254,2032.6
541.758,2022.9
542.262,2023.4
542.766,2006.6
543.27,2006.7
543.774,2012.2
544.278,2012.1
544.781,2009.6
545.285,2004.5
545.789,1999.4
546.292,2009.0
546.796,1999.2
547.299,1993.7
547.803,1999.0
548.306,1993.4
548.809,1995.6
549.313,1986.4
549.816,1988.4
550.319,1978.9
550.822,1992.4
551.325,1994.1
551.828,1989.5
552.331,1999.8
552.834,2005.4
553.337,2029.6
553.839,2022.0
554.342,2042.4
554.845,2044.2
555.347,2048.1
555.85,2065.4
556.352,2085.5
556.854,2114.3
557.357,2119.7
557.859,2158.9
558.361,2180.3
558.863,2155.4
559.365,2126.3
559.867,2116.0
560.369,2105.7
560.871,2099.9
561.373,2133.6
561.875,2131.1
562.377,2162.9
562.878,2195.8
563.38,2265.4
563.881,2849.2
564.383,2488.8
564.884,2407.0
565.386,2319.8
565.887,2671.7
566.388,2596.0
566.889,2295.9
567.391,2348.4
567.892,2250.1
568.393,2247.1
568.893,2247.6
569.394,2260.5
569.895,2269.2
570.396,2329.1
570.897,2392.9
571.397,3346.0
571.898,2749.6
572.398,2476.8
572.899,2374.7
573.399,2361.7
573.899,2458.5
574.399,2386.5
574.9,2405.0
575.4,2757.1
575.9,3041.9
576.4,3774.4
576.899,3400.8
577.399,2994.9
577.899,2716.5
578.399,2768.1
578.898,2808.8
579.398,2870.7
579.897,2938.8
580.397,3017.4
580.896,3191.2
581.396,3263.1
581.895,3322.8
582.394,3449.0
582.893,3484.4
583.392,3526.1
583.891,3546.7
584.39,3644.6
584.889,3720.4
585.387,3692.3
585.886,3683.8
586.385,3723.5
586.883,3766.9
587.382,3760.3
587.88,3750.5
588.379,3817.1
588.877,3835.5
589.375,3823.2
589.873,3896.8
590.371,3919.4
590.869,4064.1
591.367,4051.9
591.865,4092.5
592.363,4037.0
592.86,4047.5
593.358,4061.7
593.856,4096.1
594.353,4099.7
594.851,4107.4
595.348,4094.6
595.845,4081.7
596.342,4100.8
596.84,4123.4
597.337,4115.9
597.834,4201.0
598.331,4205.4
598.827,4250.2
599.324,4271.3
599.821,4293.0
600.318,4225.2
600.814,4348.3
601.311,4341.9
601.807,4306.2
602.303,4279.2
602.8,4238.9
603.296,4234.0
603.792,4129.6
604.288,4047.0
604.784,3945.3
605.28,3906.7
605.776,3766.4
606.272,3783.7
606.767,3661.3
607.263,3645.1
607.758,3558.3
608.254,3486.4
608.749,3392.4
609.244,3383.6
609.74,3336.2
610.235,3306.1
610.73,3255.1
611.225,3226.5
611.72,3188.1
612.215,3105.6
612.709,3078.1
613.204,3058.9
613.699,3021.3
614.193,3003.7
614.688,2964.0
615.182,2994.3
615.676,2981.0
616.171,2919.4
616.665,2921.7
617.159,2943.9
617.653,2930.2
618.147,2921.4
618.641,2929.0
619.134,2877.6
619.628,2923.2
620.122,2888.4
620.615,2912.5
621.109,2961.5
621.602,3057.4
622.095,3224.4
622.588,3172.0
623.082,2959.2
623.575,2864.6
624.068,2865.9
624.56,2910.0
625.053,2888.6
625.546,2976.3
626.039,3061.5
626.531,3922.0
627.024,8079.3
627.516,7888.5
628.008,6866.0
628.501,9927.6
628.993,7377.9
629.485,6427.5
629.977,5638.3
630.469,5342.5
630.961,4192.5
631.452,3432.5
631.944,3207.5
632.436,3113.0
632.927,3103.8
633.418,2991.6
633.91,2966.4
634.401,2977.2
634.892,2954.1
635.383,2931.3
635.874,2936.4
636.365,2936.0
636.856,2891.8
637.347,2887.4
637.837,2879.5
638.328,2857.8
638.818,2799.4
639.309,2822.1
639.799,2837.9
640.289,2822.7
640.78,2808.7
641.27,2771.1
641.76,2763.7
642.249,2791.0
642.739,2782.6
643.229,2745.4
643.719,2800.1
644.208,2792.4
644.698,2780.4
645.187,2757.8
645.676,2779.7
646.165,2753.0
646.655,2763.4
647.144,2748.2
647.633,2712.6
648.121,2754.8
648.61,2711.5
649.099,2670.6
649.587,2667.3
650.076,2674.8
650.564,2647.9
651.053,2628.5
651.541,2651.7
652.029,2640.6
652.517,2598.5
653.005,2644.9
653.493,2602.1
653.981,2607.6
654.468,2586.2
654.956,2596.5
655.444,2575.7
655.931,2570.6
656.418,2553.2
656.906,2504.6
657.393,2511.1
657.88,2458.0
658.367,2440.8
658.854,2448.8
659.341,2409.8
659.827,2421.3
660.314,2345.5
660.8,2348.6
661.044,2332.5