Folder: MPX_specDB/spectra (part 56)

File: VLFR_02-HDPE_nobio_Raman_7cd69a73.csv
nm,Intensity
526.532,833.25
527.079,833.3
527.625,832.75
528.172,833.65
528.718,832.95
529.265,833.4
529.811,833.15
530.357,833.05
530.903,832.6
531.449,834.2
531.994,843.05
532.54,833.95
533.085,832.3
533.63,835.85
534.176,927.15
534.721,928.15
535.266,919.5
535.81,890.6
536.355,882.2
536.9,879.35
537.444,878.4
537.988,878.15
538.533,876.25
539.077,873.7
539.621,868.5
540.165,867.05
540.708,867.25
541.252,868.3
541.795,865.7
542.339,868.2
542.882,867.25
543.425,869.0
543.968,868.6
544.511,869.75
545.054,867.3
545.597,867.6
546.139,869.05
546.682,870.35
547.224,869.4
547.766,869.7
548.308,869.75
548.85,867.85
549.392,869.2
549.934,871.55
550.475,870.2
551.017,871.3
551.558,870.35
552.1,869.75
552.641,869.5
553.182,872.75
553.723,872.25
554.264,874.65
554.804,873.15
555.345,873.7
555.885,876.9
556.426,875.1
556.966,878.45
557.506,880.75
558.046,880.8
558.586,883.5
559.126,882.35
559.665,880.35
560.205,881.35
560.745,883.1
561.284,881.9
561.823,883.3
562.362,885.95
562.901,891.15
563.44,896.85
563.979,1019.35
564.518,917.45
565.056,908.05
565.595,903.5
566.133,1027.9
566.671,901.45
567.21,898.25
567.748,904.65
568.285,894.05
568.823,893.5
569.361,897.15
569.899,895.8
570.436,903.95
570.974,909.35
571.511,1132.45
572.048,931.65
572.585,909.3
573.122,902.5
573.659,906.85
574.196,917.1
574.733,908.55
575.269,919.2
575.806,968.6
576.342,1148.05
576.878,1033.65
577.414,996.0
577.951,947.7
578.486,948.2
579.022,948.7
579.558,957.75
580.094,968.8
580.629,971.7
581.165,981.75
581.7,986.7
582.236,990.75
582.771,1001.3
583.306,1009.05
583.841,1009.7
584.376,1018.25
584.911,1022.85
585.445,1029.25
585.98,1036.95
586.514,1041.75
587.049,1048.15
587.583,1056.5
588.117,1062.05
588.651,1068.4
589.186,1073.6
589.72,1082.9
590.253,1092.15
590.787,1097.15
591.321,1104.7
591.854,1111.05
592.388,1111.2
592.921,1114.7
593.455,1113.25
593.988,1114.4
594.521,1118.3
595.054,1123.1
595.587,1121.6
596.12,1128.05
596.653,1131.1
597.186,1132.6
597.718,1134.5
598.251,1149.1
598.783,1153.35
599.316,1155.7
599.848,1160.55
600.38,1159.7
600.912,1157.45
601.444,1162.6
601.976,1164.75
602.508,1151.95
603.04,1154.25
603.572,1144.6
604.103,1134.55
604.635,1127.4
605.167,1110.65
605.698,1100.65
606.229,1088.0
606.761,1074.85
607.292,1068.55
607.823,1063.4
608.354,1058.8
608.885,1049.3
609.416,1043.0
609.947,1040.4
610.477,1031.25
611.008,1026.9
611.539,1022.3
612.069,1022.45
612.6,1016.6
613.13,1016.4
613.66,1010.6
614.19,1006.95
614.721,1005.85
615.251,999.25
615.781,994.1
616.311,992.75
616.841,996.5
617.37,997.55
617.9,999.9
618.43,997.1
618.96,989.3
619.489,992.6
620.019,988.0
620.548,990.2
621.077,994.85
621.607,1017.8
622.136,1056.25
622.665,1040.35
623.194,998.2
623.723,988.25
624.252,986.55
624.781,986.3
625.31,991.15
625.839,1003.85
626.368,1051.75
626.896,1499.7
627.425,2015.35
627.953,1578.75
628.482,2116.65
629.01,1599.7
629.539,1440.0
630.067,1293.95
630.596,1260.0
631.124,1087.55
631.652,1012.0
632.18,997.9
632.708,992.65
633.236,987.85
633.764,982.65
634.292,980.75
634.82,977.95
635.348,976.8
635.876,979.3
636.403,979.4
636.931,979.35
637.459,976.1
637.986,973.65
638.514,973.1
639.041,974.5
639.568,976.25
640.096,977.5
640.623,979.05
641.15,983.55
641.678,981.2
642.205,983.0
642.732,983.95
643.259,982.7
643.786,983.0
644.313,984.95
644.84,984.35
645.367,982.5
645.894,983.6
646.421,985.25
646.948,982.3
647.474,982.2
648.001,987.0
648.528,983.6
649.054,983.25
649.581,980.9
650.108,981.2
650.634,978.35
651.161,976.3
651.687,979.4
652.214,976.5
652.74,975.2
653.266,978.1
653.793,979.25
654.319,977.15
654.845,978.65
655.371,974.85
655.897,973.6
656.424,971.05
656.95,970.8
657.476,969.3
658.002,963.95
658.528,962.1
659.054,958.6
659.58,958.8
660.106,955.1
660.631,948.9
661.157,943.3
661.683,941.75
662.209,938.05
662.735,935.0
663.129,930.8

File: VLFR_02-HDPE_nobio_Raman_7e5fd823.csv
nm,Intensity
526.532,830.5
527.079,830.4
527.625,830.5
528.172,830.4
528.718,829.733
529.265,830.233
529.811,830.667
530.357,830.3
530.903,830.233
531.449,829.8
531.994,839.833
532.54,830.733
533.085,828.8
533.63,830.8
534.176,891.633
534.721,881.4
535.266,870.533
535.81,861.9
536.355,857.433
536.9,855.7
537.444,856.0
537.988,855.867
538.533,854.7
539.077,850.667
539.621,849.767
540.165,848.233
540.708,847.7
541.252,847.233
541.795,846.8
542.339,847.233
542.882,845.967
543.425,846.3
543.968,847.567
544.511,845.633
545.054,845.867
545.597,845.9
546.139,845.267
546.682,845.8
547.224,846.2
547.766,845.667
548.308,845.667
548.85,844.567
549.392,845.233
549.934,845.833
550.475,846.067
551.017,847.333
551.558,845.0
552.1,845.367
552.641,846.0
553.182,847.133
553.723,848.5
554.264,847.967
554.804,848.967
555.345,849.633
555.885,851.6
556.426,851.1
556.966,852.6
557.506,854.2
558.046,856.0
558.586,860.167
559.126,856.2
559.665,855.733
560.205,855.9
560.745,854.733
561.284,854.833
561.823,855.867
562.362,859.733
562.901,861.7
563.44,863.567
563.979,966.3
564.518,881.133
565.056,876.2
565.595,874.667
566.133,1069.37
566.671,876.767
567.21,866.233
567.748,864.6
568.285,861.633
568.823,862.333
569.361,865.567
569.899,865.033
570.436,868.967
570.974,874.2
571.511,1053.2
572.048,893.5
572.585,873.167
573.122,869.467
573.659,873.0
574.196,879.5
574.733,871.667
575.269,888.733
575.806,949.4
576.342,984.867
576.878,944.833
577.414,917.3
577.951,896.733
578.486,894.7
579.022,899.467
579.558,902.467
580.094,905.167
580.629,909.4
581.165,916.567
581.7,921.067
582.236,926.733
582.771,931.267
583.306,934.967
583.841,940.933
584.376,947.6
584.911,951.4
585.445,956.067
585.98,958.567
586.514,966.6
587.049,972.7
587.583,979.533
588.117,984.033
588.651,990.433
589.186,996.833
589.72,1006.8
590.253,1015.07
590.787,1021.23
591.321,1028.33
591.854,1031.23
592.388,1039.7
592.921,1039.37
593.455,1041.23
593.988,1044.6
594.521,1046.53
595.054,1048.5
595.587,1050.67
596.12,1055.27
596.653,1055.4
597.186,1062.1
597.718,1064.17
598.251,1069.4
598.783,1079.43
599.316,1079.07
599.848,1085.93
600.38,1079.5
600.912,1082.9
601.444,1083.47
601.976,1079.33
602.508,1082.9
603.04,1074.8
603.572,1075.17
604.103,1068.27
604.635,1061.0
605.167,1050.77
605.698,1044.03
606.229,1036.53
606.761,1029.17
607.292,1026.03
607.823,1023.13
608.354,1018.97
608.885,1011.93
609.416,1005.63
609.947,1004.8
610.477,999.467
611.008,1002.57
611.539,996.733
612.069,997.433
612.6,990.667
613.13,991.233
613.66,989.033
614.19,986.467
614.721,982.967
615.251,981.4
615.781,978.7
616.311,972.633
616.841,974.267
617.37,973.533
617.9,973.433
618.43,972.3
618.96,968.4
619.489,971.333
620.019,965.667
620.548,968.167
621.077,968.8
621.607,974.767
622.136,993.967
622.665,985.2
623.194,965.5
623.723,961.333
624.252,959.533
624.781,958.6
625.31,959.733
625.839,967.733
626.368,992.067
626.896,1197.4
627.425,1536.27
627.953,1282.8
628.482,1478.83
629.01,1375.37
629.539,1275.3
630.067,1182.17
630.596,1157.27
631.124,1043.07
631.652,989.6
632.18,971.333
632.708,966.1
633.236,963.033
633.764,959.433
634.292,960.133
634.82,960.367
635.348,956.333
635.876,960.067
636.403,961.467
636.931,960.1
637.459,960.967
637.986,960.867
638.514,959.033
639.041,963.533
639.568,962.933
640.096,963.367
640.623,968.867
641.15,970.2
641.678,968.6
642.205,972.467
642.732,973.367
643.259,973.0
643.786,973.333
644.313,973.133
644.84,973.533
645.367,974.6
645.894,972.467
646.421,973.867
646.948,973.633
647.474,973.4
648.001,975.467
648.528,972.733
649.054,971.267
649.581,972.667
650.108,969.667
650.634,967.467
651.161,966.933
651.687,967.567
652.214,969.9
652.74,966.733
653.266,966.333
653.793,965.3
654.319,967.233
654.845,968.433
655.371,966.767
655.897,965.667
656.424,961.667
656.95,962.0
657.476,959.767
658.002,958.333
658.528,957.133
659.054,955.1
659.58,951.7
660.106,949.933
660.631,945.6
661.157,942.9
661.683,936.233
662.209,935.367
662.735,929.7
663.129,928.267

File: VLFR_02-HDPE_nobio_Raman_8bf85f21.csv
nm,Intensity
526.5,827.9
527.047,828.7
527.594,829.6
528.14,829.8
528.687,829.9
529.233,830.3
529.779,831.0
530.325,830.3
530.871,830.0
531.417,828.3
531.962,832.4
532.508,828.2
533.053,828.6
533.599,830.0
534.144,933.7
534.689,923.8
535.234,915.0
535.778,911.9
536.323,907.6
536.867,903.2
537.412,897.5
537.956,902.1
538.5,897.4
539.044,892.9
539.588,893.2
540.132,893.7
540.675,890.3
541.219,892.6
541.762,891.6
542.305,891.8
542.848,893.1
543.391,890.0
543.934,892.2
544.477,894.8
545.02,891.8
545.562,891.1
546.105,891.4
546.647,892.1
547.189,892.2
547.731,893.9
548.273,892.6
548.815,892.5
549.356,893.7
549.898,892.3
550.439,894.3
550.981,895.0
551.522,895.0
552.063,894.6
552.604,893.2
553.145,895.8
553.686,897.2
554.226,893.8
554.767,897.2
555.307,897.2
555.848,898.8
556.388,901.3
556.928,904.3
557.468,908.1
558.008,909.4
558.547,916.2
559.087,916.1
559.626,917.1
560.166,916.9
560.705,921.2
561.244,924.6
561.783,928.7
562.322,933.9
562.861,939.0
563.4,950.3
563.939,1010.2
564.477,967.5
565.015,974.7
565.554,977.4
566.092,1081.7
566.63,994.3
567.168,985.7
567.706,988.2
568.244,989.4
568.781,1007.5
569.319,1021.8
569.857,1029.3
570.394,1043.3
570.931,1057.2
571.468,1162.5
572.005,1096.7
572.542,1109.8
573.079,1120.7
573.616,1145.4
574.153,1181.8
574.689,1210.5
575.226,1245.1
575.762,1348.2
576.298,1391.2
576.834,1419.2
577.371,1477.2
577.907,1533.2
578.442,1603.9
578.978,1699.1
579.514,1782.4
580.049,1906.0
580.585,2002.1
581.12,2102.6
581.656,2191.2
582.191,2294.8
582.726,2400.5
583.261,2495.5
583.796,2572.8
584.331,2657.4
584.865,2704.6
585.4,2751.7
585.935,2801.0
586.469,2849.6
587.004,2875.3
587.538,2900.0
588.072,2913.8
588.606,2921.0
589.14,2918.9
589.674,2983.7
590.208,3019.8
590.742,3076.8
591.275,3086.5
591.809,3114.8
592.342,3110.7
592.876,3115.8
593.409,3124.8
593.942,3103.0
594.476,3100.5
595.009,3089.3
595.542,3077.9
596.075,3038.2
596.607,3035.7
597.14,3023.2
597.673,2992.3
598.205,2995.1
598.738,2957.9
599.27,2956.9
599.803,2911.4
600.335,2905.1
600.867,2866.7
601.399,2839.1
601.931,2789.0
602.463,2777.9
602.995,2751.7
603.527,2714.3
604.058,2661.0
604.59,2611.5
605.122,2538.6
605.653,2466.2
606.184,2417.0
606.716,2346.2
607.247,2305.3
607.778,2286.2
608.309,2242.8
608.84,2207.6
609.371,2167.6
609.902,2136.3
610.433,2097.6
610.964,2039.1
611.494,2029.6
612.025,2017.2
612.556,1985.6
613.086,1970.3
613.616,1958.0
614.147,1934.1
614.677,1899.0
615.207,1866.8
615.737,1842.5
616.267,1824.7
616.797,1823.4
617.327,1799.4
617.857,1784.8
618.387,1778.9
618.917,1751.7
619.446,1732.3
619.976,1740.0
620.505,1718.0
621.035,1711.8
621.564,1702.6
622.093,1718.8
622.623,1710.4
623.152,1707.4
623.681,1725.2
624.21,1729.7
624.739,1731.8
625.268,1743.8
625.797,1746.2
626.326,1782.1
626.855,1905.1
627.383,2140.7
627.912,2010.7
628.441,2097.2
628.969,2089.4
629.498,2071.2
630.026,2043.1
630.554,2051.2
631.083,2012.0
631.611,2013.3
632.139,1999.8
632.667,2023.9
633.195,2053.1
633.724,2065.2
634.252,2072.9
634.779,2088.8
635.307,2105.3
635.835,2126.8
636.363,2143.1
636.891,2145.2
637.418,2135.0
637.946,2129.9
638.474,2141.0
639.001,2137.1
639.529,2133.3
640.056,2110.1
640.583,2117.6
641.111,2115.0
641.638,2107.7
642.165,2099.6
642.692,2077.9
643.22,2074.9
643.747,2061.9
644.274,2049.7
644.801,2049.5
645.328,2036.3
645.854,2019.0
646.381,2015.1
646.908,1997.7
647.435,1992.3
647.962,1965.6
648.488,1945.3
649.015,1929.9
649.542,1899.4
650.068,1885.1
650.595,1863.5
651.121,1847.1
651.648,1835.5
652.174,1808.5
652.7,1803.5
653.227,1780.6
653.753,1778.8
654.279,1761.0
654.805,1725.1
655.331,1723.3
655.858,1697.7
656.384,1690.5
656.91,1686.2
657.436,1666.8
657.962,1636.3
658.488,1626.6
659.013,1613.3
659.539,1597.1
660.065,1566.5
660.591,1550.7
661.117,1522.5
661.642,1511.7
662.168,1494.6
662.694,1475.3
663.088,1461.0

File: VLFR_02-HDPE_nobio_Raman_8c85ae45.csv
nm,Intensity
526.547,832.3
527.094,833.0
527.641,833.9
528.188,832.7
528.734,832.9
529.281,833.6
529.827,830.6
530.373,832.3
530.92,831.8
531.466,833.4
532.011,840.3
532.557,834.1
533.103,831.7
533.648,833.0
534.193,888.9
534.738,881.5
535.283,875.3
535.828,870.1
536.373,867.1
536.917,867.4
537.462,864.1
538.006,866.5
538.55,863.2
539.094,863.7
539.638,861.1
540.182,860.4
540.726,859.1
541.269,860.2
541.812,860.5
542.356,857.7
542.899,861.8
543.442,860.5
543.985,861.4
544.527,861.5
545.07,859.9
545.612,861.1
546.155,863.7
546.697,859.3
547.239,861.3
547.781,859.7
548.323,860.4
548.865,859.8
549.406,860.4
549.948,861.9
550.489,862.5
551.03,859.9
551.572,861.9
552.113,865.0
552.654,864.0
553.194,863.3
553.735,864.0
554.276,864.1
554.816,867.8
555.356,866.3
555.896,867.2
556.437,866.3
556.977,866.9
557.516,867.7
558.056,870.9
558.596,871.1
559.135,871.9
559.675,870.7
560.214,871.4
560.753,875.9
561.292,876.0
561.831,876.7
562.37,878.0
562.909,880.7
563.448,884.1
563.986,928.8
564.525,893.2
565.063,892.0
565.601,893.5
566.139,971.7
566.677,890.1
567.215,895.8
567.753,899.7
568.291,895.1
568.828,898.5
569.366,904.5
569.903,905.3
570.441,912.3
570.978,915.7
571.515,1001.5
572.052,931.8
572.589,927.3
573.126,935.6
573.662,939.1
574.199,943.7
574.735,958.3
575.272,968.1
575.808,1008.6
576.344,1045.9
576.88,1034.8
577.416,1036.6
577.952,1041.6
578.488,1055.8
579.024,1077.9
579.559,1098.6
580.095,1113.9
580.63,1138.8
581.166,1159.3
581.701,1186.5
582.236,1200.3
582.771,1220.8
583.306,1239.0
583.841,1252.3
584.376,1275.8
584.911,1295.9
585.445,1309.9
585.98,1336.4
586.514,1353.3
587.048,1380.9
587.583,1405.0
588.117,1415.5
588.651,1443.1
589.185,1461.9
589.719,1489.6
590.253,1510.0
590.786,1529.1
591.32,1553.3
591.853,1556.3
592.387,1580.6
592.92,1575.6
593.454,1589.8
593.987,1584.2
594.52,1579.3
595.053,1596.8
595.586,1591.4
596.119,1603.4
596.651,1586.6
597.184,1603.4
597.717,1598.2
598.249,1609.5
598.782,1619.7
599.314,1623.9
599.846,1632.0
600.379,1619.6
600.911,1608.6
601.443,1610.1
601.975,1612.7
602.507,1604.1
603.038,1577.4
603.57,1563.7
604.102,1543.1
604.633,1516.3
605.165,1491.9
605.696,1466.3
606.228,1442.9
606.759,1424.0
607.29,1407.2
607.821,1389.9
608.352,1372.4
608.883,1360.8
609.414,1335.7
609.945,1327.1
610.476,1316.4
611.006,1303.2
611.537,1294.8
612.067,1290.9
612.598,1277.5
613.128,1264.5
613.659,1267.3
614.189,1255.4
614.719,1236.1
615.249,1235.0
615.779,1218.1
616.309,1208.2
616.839,1212.5
617.369,1202.1
617.899,1200.1
618.428,1181.2
618.958,1175.0
619.487,1163.7
620.017,1172.7
620.546,1165.0
621.076,1156.4
621.605,1157.3
622.134,1161.3
622.663,1158.4
623.193,1150.9
623.722,1148.2
624.251,1150.1
624.78,1143.0
625.308,1135.7
625.837,1151.8
626.366,1154.4
626.895,1266.5
627.423,1402.4
627.952,1292.7
628.48,1412.7
629.009,1357.6
629.537,1295.9
630.065,1271.4
630.594,1248.9
631.122,1191.1
631.65,1169.8
632.178,1169.3
632.706,1167.4
633.234,1162.0
633.762,1163.5
634.29,1166.5
634.818,1166.3
635.346,1175.3
635.873,1167.0
636.401,1180.6
636.929,1175.4
637.456,1175.7
637.984,1185.2
638.511,1177.6
639.039,1183.2
639.566,1183.9
640.093,1184.5
640.62,1197.7
641.148,1194.4
641.675,1194.6
642.202,1208.1
642.729,1206.3
643.256,1203.1
643.783,1192.5
644.31,1199.4
644.837,1204.6
645.364,1196.3
645.891,1197.7
646.417,1191.4
646.944,1204.2
647.471,1189.7
647.997,1182.4
648.524,1185.1
649.051,1185.8
649.577,1186.2
650.104,1176.7
650.63,1171.4
651.157,1165.5
651.683,1167.3
652.209,1162.0
652.736,1164.8
653.262,1165.7
653.788,1164.2
654.314,1156.7
654.84,1155.8
655.366,1154.8
655.893,1144.4
656.419,1144.1
656.945,1141.4
657.471,1134.3
657.997,1121.6
658.522,1123.9
659.048,1117.2
659.574,1108.2
660.1,1099.7
660.626,1088.2
661.152,1085.2
661.677,1069.3
662.203,1063.6
662.729,1062.2
663.123,1049.2

File: VLFR_02-HDPE_nobio_Raman_8da6476b.csv
nm,Intensity
526.486,829.3
527.033,827.6
527.579,828.3
528.126,827.7
528.672,829.7
529.219,828.6
529.765,829.6
530.311,829.0
530.857,830.1
531.403,828.7
531.948,831.6
532.494,830.0
533.039,829.8
533.585,829.3
534.13,882.7
534.675,874.9
535.22,870.0
535.764,857.8
536.309,852.9
536.854,852.1
537.398,850.4
537.942,849.8
538.486,849.7
539.03,848.1
539.574,844.7
540.118,845.2
540.662,843.7
541.205,843.3
541.749,843.1
542.292,845.7
542.835,845.3
543.378,843.5
543.921,842.7
544.464,842.8
545.006,844.1
545.549,840.4
546.091,844.3
546.634,843.6
547.176,842.4
547.718,842.2
548.26,843.8
548.802,844.1
549.343,844.4
549.885,844.6
550.426,845.0
550.968,842.4
551.509,842.3
552.05,843.6
552.591,842.8
553.132,843.5
553.673,844.4
554.214,844.6
554.754,844.8
555.295,845.8
555.835,847.8
556.375,846.3
556.915,849.3
557.455,849.6
557.995,850.3
558.535,851.8
559.075,849.7
559.614,850.0
560.154,848.3
560.693,846.3
561.232,847.6
561.772,849.8
562.311,852.2
562.85,852.5
563.388,855.3
563.927,913.1
564.466,875.2
565.004,867.3
565.543,863.6
566.081,972.1
566.619,870.3
567.157,857.4
567.695,855.5
568.233,852.0
568.771,852.8
569.309,851.6
569.846,855.6
570.384,856.6
570.921,862.7
571.458,952.4
571.995,876.6
572.532,859.4
573.069,851.2
573.606,856.6
574.143,863.1
574.68,854.4
575.216,861.5
575.753,941.9
576.289,939.1
576.825,907.7
577.361,888.1
577.897,864.3
578.433,857.1
578.969,860.4
579.505,856.0
580.041,855.5
580.576,857.5
581.112,855.1
581.647,856.3
582.183,857.6
582.718,857.4
583.253,853.2
583.788,856.0
584.323,853.4
584.858,856.2
585.392,855.2
585.927,855.3
586.462,855.5
586.996,856.0
587.53,857.5
588.065,857.2
588.599,856.6
589.133,854.7
589.667,856.0
590.201,853.7
590.735,855.9
591.268,854.9
591.802,855.1
592.335,855.4
592.869,856.6
593.402,854.8
593.936,854.8
594.469,853.7
595.002,856.5
595.535,856.5
596.068,854.7
596.601,857.1
597.133,855.7
597.666,856.2
598.199,859.4
598.731,856.8
599.264,858.4
599.796,862.0
600.328,857.7
600.86,859.4
601.393,858.1
601.925,860.9
602.457,858.5
602.988,860.6
603.52,857.1
604.052,857.3
604.583,858.4
605.115,857.0
605.646,853.2
606.178,855.5
606.709,853.3
607.24,854.2
607.771,851.1
608.302,855.1
608.833,853.7
609.364,854.9
609.895,853.6
610.426,853.4
610.957,858.4
611.487,855.8
612.018,852.8
612.548,854.0
613.078,853.6
613.609,852.5
614.139,852.9
614.669,851.4
615.199,854.9
615.729,852.2
616.259,856.3
616.789,856.7
617.319,859.9
617.849,860.3
618.378,862.0
618.908,860.3
619.437,859.6
619.967,859.2
620.496,862.1
621.025,865.1
621.555,871.6
622.084,885.5
622.613,886.9
623.142,869.3
623.671,864.9
624.2,862.7
624.729,860.3
625.258,867.0
625.786,868.4
626.315,886.5
626.844,1046.2
627.372,1411.0
627.901,1184.5
628.429,1275.3
628.957,1231.6
629.486,1142.6
630.014,1052.5
630.542,1033.5
631.07,945.0
631.598,888.7
632.126,869.4
632.654,864.9
633.182,863.5
633.71,860.5
634.237,857.7
634.765,855.8
635.293,853.3
635.82,851.2
636.348,854.8
636.875,853.7
637.403,848.3
637.93,849.6
638.458,848.8
638.985,847.8
639.512,848.7
640.039,848.8
640.566,850.5
641.093,847.8
641.62,846.9
642.147,848.2
642.674,847.3
643.201,846.6
643.728,847.4
644.255,847.8
644.781,849.1
645.308,846.3
645.835,847.0
646.361,844.8
646.888,844.6
647.414,844.9
647.941,848.9
648.467,845.9
648.993,846.7
649.52,844.8
650.046,845.6
650.572,843.1
651.098,842.3
651.625,846.2
652.151,847.1
652.677,843.6
653.203,847.0
653.729,845.6
654.255,845.2
654.78,843.8
655.306,844.3
655.832,845.1
656.358,843.7
656.884,846.1
657.409,845.8
657.935,846.3
658.461,845.8
658.986,845.9
659.512,844.8
660.037,846.1
660.563,845.5
661.088,844.2
661.614,845.3
662.139,843.3
662.664,842.5
663.058,842.2

File: VLFR_02-HDPE_nobio_Raman_08dae773.csv
nm,Intensity
528.65,1832.93
529.155,1833.37
529.66,1833.8
530.165,1833.41
530.67,1833.57
531.175,1834.17
531.68,1846.71
532.185,2452.57
532.69,1833.85
533.194,1833.69
533.699,1857.9
534.204,1923.83
534.708,1921.32
535.213,1921.69
535.717,1917.13
536.222,1908.97
536.726,1907.97
537.231,1909.11
537.735,1913.49
538.239,1907.17
538.743,1907.74
539.247,1908.32
539.751,1907.45
540.255,1909.15
540.759,1909.6
541.263,1909.97
541.767,1913.73
542.271,1911.8
542.775,1913.69
543.279,1911.69
543.782,1917.51
544.286,1914.92
544.789,1915.23
545.293,1917.85
545.796,1918.38
546.3,1917.53
546.803,1921.78
547.306,1918.92
547.81,1916.89
548.313,1921.44
548.816,1918.97
549.319,1921.67
549.822,1922.02
550.325,1922.07
550.828,1922.08
551.331,1924.35
551.834,1926.6
552.337,1925.49
552.839,1922.4
553.342,1925.4
553.844,1929.19
554.347,1929.91
554.849,1932.42
555.352,1931.85
555.854,1934.73
556.357,1935.29
556.859,1932.63
557.361,1935.29
557.863,1938.11
558.365,1940.8
558.867,1937.71
559.369,1939.93
559.871,1940.23
560.373,1940.99
560.875,1943.65
561.377,1945.05
561.878,1945.69
562.38,1943.4
562.881,1953.74
563.383,1955.6
563.884,2025.17
564.386,1970.96
564.887,1969.23
565.388,1965.85
565.89,2007.46
566.391,2010.89
566.892,1963.27
567.393,1970.01
567.894,1957.57
568.395,1955.05
568.896,1959.71
569.396,1963.74
569.897,1963.27
570.398,1973.89
570.898,1972.36
571.399,2083.72
571.9,1995.59
572.4,1982.35
572.9,1976.49
573.401,1978.63
573.901,1993.43
574.401,1987.55
574.901,1990.15
575.401,2053.38
575.901,2045.25
576.401,2086.58
576.901,2070.83
577.401,2038.05
577.901,2023.69
578.4,2023.35
578.9,2029.89
579.399,2041.08
579.899,2050.65
580.398,2058.51
580.898,2067.3
581.397,2074.33
581.896,2086.94
582.395,2098.95
582.895,2105.24
583.394,2115.67
583.893,2130.75
584.391,2130.86
584.89,2148.19
585.389,2157.49
585.888,2166.39
586.386,2186.1
586.885,2199.57
587.384,2213.48
587.882,2232.85
588.38,2250.21
588.879,2255.23
589.377,2259.51
589.875,2284.69
590.373,2321.14
590.871,2332.18
591.369,2349.4
591.867,2376.3
592.365,2389.92
592.863,2410.47
593.361,2429.47
593.858,2446.05
594.356,2461.97
594.853,2482.89
595.351,2504.46
595.848,2540.13
596.345,2543.32
596.843,2570.97
597.34,2602.31
597.837,2600.69
598.334,2635.21
598.831,2667.79
599.328,2683.35
599.824,2681.72
600.321,2704.76
600.818,2686.25
601.314,2696.39
601.811,2701.13
602.307,2687.07
602.804,2691.01
603.3,2675.62
603.796,2653.59
604.293,2643.11
604.789,2605.8
605.285,2589.39
605.781,2565.9
606.277,2542.2
606.772,2531.49
607.268,2508.24
607.764,2489.19
608.259,2461.94
608.755,2440.08
609.25,2429.99
609.746,2411.72
610.241,2407.29
610.736,2392.18
611.231,2389.75
611.727,2368.24
612.222,2362.37
612.716,2337.29
613.211,2329.96
613.706,2320.12
614.201,2309.33
614.695,2309.25
615.19,2290.59
615.684,2290.91
616.179,2284.13
616.673,2276.09
617.168,2267.7
617.662,2264.77
618.156,2261.05
618.65,2253.05
619.144,2241.57
619.638,2241.71
620.131,2236.3
620.625,2226.02
621.119,2230.9
621.612,2247.85
622.106,2259.17
622.599,2242.28
623.093,2211.65
623.586,2200.19
624.079,2204.39
624.572,2193.26
625.065,2194.56
625.558,2189.7
626.051,2204.47
626.544,2331.51
627.037,2873.53
627.529,2747.91
628.022,2617.56
628.514,2952.01
629.007,2600.75
629.499,2498.99
629.991,2416.91
630.483,2377.1
630.976,2282.31
631.468,2192.31
631.959,2172.86
632.451,2163.24
632.943,2169.35
633.435,2167.2
633.926,2173.09
634.418,2167.96
634.909,2167.44
635.401,2168.49
635.892,2166.38
636.383,2167.14
636.874,2163.1
637.365,2175.12
637.856,2174.23
638.347,2174.19
638.838,2169.1
639.329,2174.67
639.819,2171.84
640.31,2187.54
640.8,2184.33
641.291,2187.17
641.781,2184.81
642.271,2198.07
642.761,2200.69
643.251,2196.05
643.741,2205.6
644.231,2205.79
644.721,2203.15
645.211,2214.05
645.7,2214.85
646.19,2214.71
646.679,2208.08
647.169,2204.64
647.658,2198.69
648.147,2208.3
648.636,2204.99
649.125,2202.67
649.614,2197.84
650.103,2198.75
650.592,2204.59
651.08,2203.02
651.569,2192.7
652.058,2200.0
652.546,2193.95
653.034,2195.35
653.523,2180.13
654.011,2190.57
654.499,2182.02
654.987,2172.4
655.475,2176.26
655.963,2161.44
656.45,2156.66
656.938,2161.68
657.425,2146.17
657.913,2141.72
658.4,2123.43
658.888,2120.75
659.375,2114.38
659.862,2109.23
660.349,2108.94
660.836,2095.56
661.079,2086.39