Folder: MPX_specDB/spectra (part 66)

File: VLFR_02-HDPE_nobio_Raman_e84c615b.csv
cm-1,Intensity
-123.878,1853.0
-105.821,1852.8
-87.8007,1851.4
-69.8161,1852.85
-51.8675,1853.85
-33.9547,1854.35
-16.0776,1883.55
1.76388,3365.55
19.5698,1854.25
37.3403,1852.7
55.0755,1948.2
72.7754,2190.2
90.4402,2171.95
108.07,2147.45
125.665,2091.85
143.225,2082.85
160.75,2058.55
178.241,2061.45
195.697,2075.65
213.119,2069.45
230.506,2056.0
247.859,2046.25
265.178,2043.45
282.463,2047.75
299.713,2040.5
316.93,2041.25
334.113,2053.15
351.263,2048.1
368.379,2055.15
385.461,2035.5
402.51,2053.6
419.526,2053.7
436.508,2048.0
453.458,2048.95
470.374,2056.6
487.257,2045.85
504.107,2055.5
520.925,2050.65
537.71,2055.9
554.462,2062.4
571.182,2050.25
587.87,2058.25
604.525,2052.45
621.148,2057.65
637.739,2058.5
654.297,2067.85
670.824,2067.05
687.319,2078.3
703.782,2062.4
720.213,2082.95
736.613,2083.4
752.981,2085.95
769.317,2099.2
785.623,2087.35
801.897,2095.65
818.139,2101.85
834.351,2104.25
850.532,2115.0
866.681,2137.45
882.8,2140.5
898.888,2120.05
914.945,2116.95
930.972,2116.0
946.968,2123.1
962.934,2128.5
978.869,2117.55
994.774,2129.25
1010.65,2139.25
1026.49,2153.25
1042.31,2179.2
1058.09,2649.15
1073.85,2307.95
1089.57,2267.0
1105.27,2219.25
1120.93,2510.55
1136.57,2511.35
1152.18,2212.75
1167.75,2257.85
1183.3,2187.45
1198.82,2173.75
1214.31,2182.5
1229.77,2192.95
1245.2,2211.4
1260.6,2245.6
1275.97,2269.45
1291.32,3004.8
1306.63,2469.05
1321.92,2313.0
1337.18,2263.6
1352.41,2274.15
1367.61,2349.25
1382.78,2287.15
1397.93,2290.6
1413.05,2722.7
1428.14,2713.05
1443.2,3017.1
1458.23,2811.15
1473.23,2620.6
1488.21,2481.65
1503.16,2479.75
1518.08,2490.75
1532.97,2563.05
1547.84,2571.65
1562.68,2640.1
1577.49,2679.1
1592.27,2715.8
1607.03,2739.65
1621.76,2783.3
1636.46,2863.65
1651.14,2861.25
1665.78,2941.95
1680.41,2952.15
1695.0,2992.0
1709.57,3077.5
1724.11,3124.7
1738.62,3204.05
1753.11,3302.85
1767.57,3348.65
1782.01,3451.2
1796.41,3485.05
1810.8,3532.35
1825.15,3621.05
1839.48,3730.7
1853.79,3800.5
1868.06,3904.05
1882.31,3970.1
1896.54,4018.55
1910.74,4085.85
1924.91,4087.75
1939.06,4162.7
1953.19,4190.6
1967.28,4188.3
1981.35,4244.65
1995.4,4195.6
2009.42,4301.2
2023.42,4310.75
2037.39,4178.8
2051.33,4297.4
2065.25,4280.1
2079.15,4240.75
2093.01,4261.2
2106.86,4283.35
2120.68,4357.2
2134.47,4343.4
2148.24,4321.65
2161.99,4344.95
2175.71,4370.35
2189.41,4365.35
2203.08,4287.2
2216.73,4279.0
2230.35,4276.8
2243.95,4199.8
2257.52,4240.65
2271.07,4168.95
2284.6,4165.3
2298.1,4078.05
2311.58,4051.65
2325.03,4002.65
2338.46,3987.2
2351.87,3973.7
2365.25,3902.3
2378.61,3828.05
2391.94,3845.75
2405.26,3819.2
2418.54,3843.7
2431.81,3846.6
2445.05,3729.65
2458.27,3752.35
2471.46,3687.9
2484.63,3685.55
2497.78,3625.2
2510.9,3572.65
2524.0,3608.4
2537.08,3531.9
2550.14,3480.75
2563.17,3492.15
2576.18,3454.95
2589.17,3470.0
2602.13,3461.25
2615.07,3470.4
2627.99,3433.5
2640.89,3429.65
2653.76,3429.0
2666.61,3390.15
2679.44,3347.6
2692.25,3475.3
2705.03,3498.1
2717.79,3578.85
2730.53,3489.7
2743.25,3379.6
2755.94,3276.85
2768.61,3272.55
2781.27,3239.65
2793.89,3246.4
2806.5,3328.0
2819.09,3414.45
2831.65,4115.1
2844.19,7538.5
2856.71,7185.95
2869.21,6140.5
2881.69,8458.9
2894.14,5998.25
2906.58,5525.9
2918.99,4815.85
2931.38,4641.6
2943.75,3937.95
2956.1,3422.25
2968.42,3237.3
2980.73,3256.45
2993.01,3158.95
3005.28,3220.75
3017.52,3203.55
3029.74,3145.5
3041.94,3234.3
3054.12,3163.3
3066.28,3135.25
3078.42,3237.35
3090.54,3185.8
3102.63,3161.35
3114.71,3134.7
3126.77,3175.1
3138.8,3199.25
3150.82,3210.15
3162.81,3184.65
3174.78,3174.45
3186.74,3176.25
3198.67,3176.45
3210.58,3220.2
3222.47,3249.25
3234.35,3188.45
3246.2,3219.8
3258.03,3209.9
3269.84,3201.45
3281.64,3249.75
3293.41,3252.0
3305.16,3211.65
3316.89,3192.95
3328.61,3219.2
3340.3,3177.9
3351.97,3174.95
3363.63,3209.2
3375.26,3138.15
3386.88,3081.35
3398.47,3071.1
3410.05,3060.35
3421.6,3076.9
3433.14,3034.55
3444.66,2993.1
3456.15,2984.1
3467.63,2947.4
3479.09,2979.05
3490.53,2924.15
3501.96,2943.8
3513.36,2875.5
3524.74,2887.2
3536.11,2878.8
3547.45,2821.55
3558.78,2796.3
3570.09,2790.2
3581.37,2806.85
3592.64,2761.85
3603.9,2745.6
3615.13,2720.2
3626.34,2646.1
3637.54,2653.55
3648.72,2662.85
3659.87,2621.65
3665.45,2621.05

File: VLFR_02-HDPE_nobio_Raman_f50d4603.csv
nm,Intensity
526.5,829.1
527.047,829.5
527.594,829.8
528.14,829.7
528.687,828.7
529.233,828.4
529.779,829.0
530.325,828.4
530.871,829.7
531.417,828.2
531.962,836.7
532.508,831.6
533.053,828.8
533.599,828.0
534.144,847.3
534.689,848.5
535.234,847.5
535.778,844.1
536.323,842.5
536.867,840.3
537.412,841.6
537.956,842.0
538.5,839.0
539.044,842.7
539.588,839.4
540.132,841.9
540.675,839.9
541.219,840.0
541.762,839.4
542.305,841.2
542.848,841.2
543.391,839.7
543.934,840.5
544.477,840.1
545.02,839.3
545.562,840.7
546.105,840.9
546.647,841.8
547.189,841.9
547.731,839.3
548.273,840.5
548.815,841.1
549.356,842.5
549.898,840.0
550.439,842.2
550.981,842.2
551.522,842.5
552.063,843.4
552.604,843.5
553.145,842.4
553.686,841.2
554.226,841.7
554.767,841.1
555.307,842.1
555.848,842.8
556.388,841.7
556.928,844.8
557.468,843.2
558.008,843.6
558.547,842.9
559.087,843.5
559.626,842.1
560.166,842.9
560.705,843.6
561.244,845.3
561.783,842.2
562.322,843.2
562.861,844.5
563.4,844.7
563.939,856.9
564.477,848.8
565.015,846.2
565.554,847.8
566.092,856.9
566.63,847.1
567.168,846.2
567.706,846.9
568.244,846.8
568.781,844.1
569.319,846.1
569.857,847.9
570.394,848.1
570.931,849.1
571.468,871.5
572.005,852.2
572.542,848.8
573.079,850.9
573.616,848.1
574.153,851.4
574.689,849.0
575.226,850.7
575.762,858.1
576.298,876.7
576.834,866.1
577.371,857.9
577.907,853.2
578.442,852.7
578.978,853.2
579.514,856.5
580.049,855.0
580.585,852.4
581.12,854.6
581.656,854.1
582.191,856.3
582.726,856.7
583.261,857.5
583.796,857.7
584.331,860.9
584.865,860.8
585.4,861.6
585.935,860.4
586.469,861.7
587.004,861.9
587.538,864.4
588.072,862.3
588.606,862.4
589.14,869.4
589.674,867.9
590.208,867.9
590.742,866.5
591.275,870.9
591.809,869.3
592.342,872.9
592.876,870.9
593.409,872.5
593.942,874.0
594.476,873.2
595.009,877.7
595.542,877.0
596.075,880.0
596.607,878.4
597.14,879.3
597.673,883.5
598.205,885.8
598.738,883.7
599.27,893.8
599.803,888.8
600.335,892.2
600.867,888.8
601.399,892.6
601.931,892.4
602.463,887.5
602.995,888.2
603.527,891.5
604.058,887.7
604.59,886.6
605.122,886.5
605.653,880.2
606.184,881.4
606.716,878.3
607.247,875.8
607.778,878.1
608.309,875.2
608.84,876.8
609.371,872.3
609.902,870.9
610.433,872.7
610.964,871.4
611.494,872.0
612.025,871.3
612.556,871.4
613.086,869.9
613.616,869.1
614.147,869.6
614.677,866.2
615.207,869.4
615.737,868.9
616.267,869.5
616.797,867.7
617.327,869.2
617.857,865.0
618.387,867.9
618.917,868.2
619.446,869.9
619.976,867.4
620.505,868.5
621.035,870.6
621.564,872.9
622.093,875.9
622.623,877.3
623.152,871.7
623.681,869.4
624.21,867.2
624.739,867.5
625.268,866.4
625.797,869.0
626.326,877.5
626.855,940.2
627.383,1045.3
627.912,969.8
628.441,1029.5
628.969,977.3
629.498,946.7
630.026,922.9
630.554,917.4
631.083,886.6
631.611,870.6
632.139,868.8
632.667,866.3
633.195,865.3
633.724,864.4
634.252,864.5
634.779,861.5
635.307,863.8
635.835,861.7
636.363,859.5
636.891,860.8
637.418,861.0
637.946,861.9
638.474,860.6
639.001,858.7
639.529,859.5
640.056,863.0
640.583,862.8
641.111,864.3
641.638,862.2
642.165,861.5
642.692,861.3
643.22,861.1
643.747,863.8
644.274,861.5
644.801,861.2
645.328,861.2
645.854,862.2
646.381,862.1
646.908,860.5
647.435,862.7
647.962,863.4
648.488,862.8
649.015,862.5
649.542,863.5
650.068,862.3
650.595,863.6
651.121,866.5
651.648,864.2
652.174,864.0
652.7,865.0
653.227,863.6
653.753,866.4
654.279,864.8
654.805,865.7
655.331,864.8
655.858,862.8
656.384,862.8
656.91,866.8
657.436,864.3
657.962,864.1
658.488,864.5
659.013,864.3
659.539,862.0
660.065,860.2
660.591,860.0
661.117,859.6
661.642,856.0
662.168,858.0
662.694,857.2
663.088,855.5

File: VLFR_02-HDPE_nobio_Raman_f77e4625.csv
nm,Intensity
526.5,830.3
527.047,829.1
527.594,829.6
528.14,828.4
528.687,830.9
529.233,827.4
529.779,829.4
530.325,829.7
530.871,830.4
531.417,828.7
531.962,831.0
532.508,829.0
533.053,829.2
533.599,830.1
534.144,864.6
534.689,855.5
535.234,851.9
535.778,847.2
536.323,844.4
536.867,843.6
537.412,844.3
537.956,843.1
538.5,841.2
539.044,841.9
539.588,842.6
540.132,838.5
540.675,838.4
541.219,838.4
541.762,838.7
542.305,838.0
542.848,838.6
543.391,838.4
543.934,839.7
544.477,838.8
545.02,838.2
545.562,838.5
546.105,840.1
546.647,837.2
547.189,838.9
547.731,839.6
548.273,838.2
548.815,839.8
549.356,838.5
549.898,838.8
550.439,838.9
550.981,838.2
551.522,838.0
552.063,839.5
552.604,837.3
553.145,839.4
553.686,838.1
554.226,841.7
554.767,841.4
555.307,839.0
555.848,842.3
556.388,840.3
556.928,842.8
557.468,840.9
558.008,845.2
558.547,845.0
559.087,844.4
559.626,844.3
560.166,842.7
560.705,841.9
561.244,843.1
561.783,843.1
562.322,842.2
562.861,845.7
563.4,848.4
563.939,890.5
564.477,857.0
565.015,850.8
565.554,851.8
566.092,930.1
566.63,855.8
567.168,849.4
567.706,847.8
568.244,846.2
568.781,846.6
569.319,844.9
569.857,848.2
570.394,849.5
570.931,850.8
571.468,922.1
572.005,861.9
572.542,852.4
573.079,849.2
573.616,848.3
574.153,852.7
574.689,847.5
575.226,852.0
575.762,892.4
576.298,897.1
576.834,881.2
577.371,865.4
577.907,851.7
578.442,850.0
578.978,851.2
579.514,853.5
580.049,853.3
580.585,852.4
581.12,852.7
581.656,854.5
582.191,855.1
582.726,854.4
583.261,856.3
583.796,857.0
584.331,856.4
584.865,857.0
585.4,861.8
585.935,861.7
586.469,864.2
587.004,862.2
587.538,866.4
588.072,867.2
588.606,864.5
589.14,867.4
589.674,865.5
590.208,867.7
590.742,870.6
591.275,873.3
591.809,871.3
592.342,871.7
592.876,872.6
593.409,871.6
593.942,874.0
594.476,874.0
595.009,874.0
595.542,874.5
596.075,874.7
596.607,879.7
597.14,880.0
597.673,882.6
598.205,881.6
598.738,882.6
599.27,886.2
599.803,889.3
600.335,885.1
600.867,889.6
601.399,889.2
601.931,889.9
602.463,887.0
602.995,888.2
603.527,887.0
604.058,885.2
604.59,882.6
605.122,880.7
605.653,881.0
606.184,875.9
606.716,875.5
607.247,874.0
607.778,875.8
608.309,873.1
608.84,875.8
609.371,871.0
609.902,870.9
610.433,867.2
610.964,870.2
611.494,872.3
612.025,868.5
612.556,865.9
613.086,865.7
613.616,865.2
614.147,865.9
614.677,863.9
615.207,867.9
615.737,864.1
616.267,863.6
616.797,863.4
617.327,864.5
617.857,863.1
618.387,867.1
618.917,864.6
619.446,863.7
619.976,865.0
620.505,861.2
621.035,863.3
621.564,867.0
622.093,877.4
622.623,875.5
623.152,868.2
623.681,864.6
624.21,864.6
624.739,862.9
625.268,866.0
625.797,869.9
626.326,875.3
626.855,965.9
627.383,1177.4
627.912,1039.5
628.441,1107.8
628.969,1069.0
629.498,1028.1
630.026,978.9
630.554,967.9
631.083,912.4
631.611,877.7
632.139,869.5
632.667,863.3
633.195,863.3
633.724,862.3
634.252,860.0
634.779,859.0
635.307,858.8
635.835,857.5
636.363,856.7
636.891,857.0
637.418,855.1
637.946,855.0
638.474,856.2
639.001,855.5
639.529,856.6
640.056,854.6
640.583,858.9
641.111,855.5
641.638,857.6
642.165,857.7
642.692,857.9
643.22,858.0
643.747,854.8
644.274,858.0
644.801,857.0
645.328,857.4
645.854,857.6
646.381,857.3
646.908,856.3
647.435,854.5
647.962,859.7
648.488,857.4
649.015,856.5
649.542,857.4
650.068,858.7
650.595,857.9
651.121,859.6
651.648,856.1
652.174,858.3
652.7,857.5
653.227,856.9
653.753,858.1
654.279,858.9
654.805,860.1
655.331,855.9
655.858,856.9
656.384,858.4
656.91,856.2
657.436,859.0
657.962,854.7
658.488,857.5
659.013,856.0
659.539,855.3
660.065,856.5
660.591,854.5
661.117,856.8
661.642,852.3
662.168,854.2
662.694,851.5
663.088,851.1

File: VLFR_02-HDPE_nobio_Raman_f1248eeb.csv
nm,Intensity
526.508,831.1
527.055,831.3
527.602,829.9
528.149,831.2
528.695,831.6
529.241,830.0
529.787,830.4
530.334,831.3
530.879,831.3
531.425,830.0
531.971,834.4
532.516,831.9
533.062,830.7
533.607,832.2
534.152,908.5
534.697,908.3
535.242,906.6
535.786,869.8
536.331,859.3
536.876,854.8
537.42,856.6
537.964,853.6
538.508,852.8
539.052,848.1
539.596,848.1
540.14,845.1
540.683,845.3
541.227,844.9
541.77,844.7
542.313,842.4
542.856,843.8
543.399,842.7
543.942,842.0
544.485,842.4
545.027,842.4
545.57,841.5
546.112,843.8
546.654,845.4
547.196,842.2
547.738,843.8
548.28,841.9
548.822,842.0
549.363,842.4
549.905,842.7
550.446,842.5
550.988,840.8
551.529,843.8
552.07,842.4
552.611,842.6
553.152,845.4
553.692,845.6
554.233,844.8
554.773,847.7
555.314,846.2
555.854,847.6
556.394,850.6
556.934,851.3
557.474,853.3
558.014,856.9
558.553,853.2
559.093,850.2
559.632,853.4
560.172,852.4
560.711,851.7
561.25,848.8
561.789,853.5
562.328,853.5
562.867,853.5
563.406,856.2
563.944,949.3
564.483,881.8
565.021,873.9
565.559,863.2
566.098,948.6
566.636,867.1
567.174,865.9
567.711,869.5
568.249,856.4
568.787,855.6
569.324,858.9
569.862,858.6
570.399,862.6
570.936,869.1
571.474,1008.9
572.011,893.4
572.548,870.2
573.084,862.3
573.621,861.5
574.158,872.9
574.694,863.4
575.231,869.1
575.767,920.2
576.303,1052.7
576.84,965.5
577.376,941.6
577.912,884.3
578.447,877.5
578.983,879.5
579.519,883.2
580.054,881.8
580.59,883.1
581.125,887.9
581.661,887.4
582.196,892.4
582.731,892.9
583.266,899.0
583.801,907.4
584.336,904.2
584.87,913.2
585.405,919.8
585.94,922.9
586.474,932.3
587.008,943.7
587.543,948.2
588.077,955.4
588.611,960.4
589.145,971.9
589.679,981.7
590.213,990.7
590.747,998.7
591.28,1005.6
591.814,1023.8
592.347,1019.5
592.881,1032.5
593.414,1035.9
593.947,1049.4
594.48,1058.1
595.014,1069.7
595.547,1075.8
596.079,1088.3
596.612,1095.9
597.145,1113.0
597.678,1126.1
598.21,1129.8
598.743,1151.7
599.275,1154.8
599.807,1169.4
600.34,1168.4
600.872,1179.0
601.404,1185.4
601.936,1189.1
602.468,1190.9
603.0,1187.0
603.532,1187.8
604.063,1182.7
604.595,1175.5
605.126,1162.7
605.658,1157.5
606.189,1144.9
606.721,1142.4
607.252,1144.4
607.783,1132.2
608.314,1127.4
608.845,1124.4
609.376,1116.3
609.907,1114.0
610.438,1108.4
610.968,1098.1
611.499,1101.7
612.03,1093.9
612.56,1095.5
613.091,1092.6
613.621,1084.5
614.151,1081.7
614.681,1084.1
615.212,1070.1
615.742,1070.6
616.272,1065.1
616.802,1065.0
617.332,1069.3
617.861,1068.3
618.391,1060.3
618.921,1052.4
619.45,1053.0
619.98,1055.3
620.509,1049.9
621.039,1048.7
621.568,1065.4
622.097,1103.0
622.627,1097.6
623.156,1046.2
623.685,1031.3
624.214,1020.8
624.743,1019.5
625.272,1016.6
625.801,1029.9
626.33,1074.5
626.858,1478.7
627.387,2195.1
627.916,1668.3
628.444,2104.5
628.973,1631.7
629.501,1466.9
630.029,1315.8
630.558,1274.7
631.086,1110.1
631.614,1012.8
632.142,993.9
632.67,979.3
633.198,975.1
633.726,967.7
634.254,962.5
634.782,961.1
635.31,963.5
635.838,954.7
636.365,954.3
636.893,955.6
637.421,950.7
637.948,948.5
638.476,948.0
639.003,947.1
639.531,951.3
640.058,946.3
640.585,942.5
641.113,948.4
641.64,951.4
642.167,948.9
642.694,951.2
643.221,946.2
643.748,952.2
644.275,953.3
644.802,954.6
645.329,953.5
645.856,956.6
646.382,960.3
646.909,954.0
647.436,961.1
647.962,966.3
648.489,958.1
649.016,959.1
649.542,967.3
650.069,965.0
650.595,966.5
651.121,966.1
651.648,961.0
652.174,966.4
652.7,971.1
653.227,968.2
653.753,967.6
654.279,966.4
654.805,971.1
655.331,971.8
655.857,964.6
656.383,967.6
656.909,968.7
657.435,965.8
657.961,966.5
658.487,963.3
659.013,960.6
659.538,961.3
660.064,962.6
660.59,956.6
661.116,954.3
661.641,948.3
662.167,943.4
662.692,941.9
663.087,938.0

File: VLFR_02-HDPE_nobio_Raman_f04227d9.csv
nm,Intensity
526.508,830.1
527.055,830.9
527.602,830.7
528.149,830.7
528.695,831.5
529.241,830.7
529.787,830.4
530.334,830.4
530.879,831.0
531.425,829.5
531.971,832.3
532.516,831.7
533.062,830.1
533.607,830.1
534.152,908.8
534.697,910.2
535.242,910.1
535.786,868.9
536.331,859.1
536.876,853.8
537.42,850.7
537.964,851.9
538.508,848.9
539.052,844.6
539.596,843.2
540.14,841.9
540.683,839.3
541.227,841.4
541.77,840.0
542.313,839.7
542.856,839.7
543.399,839.1
543.942,840.8
544.485,840.2
545.027,837.3
545.57,837.8
546.112,839.8
546.654,836.5
547.196,837.5
547.738,839.1
548.28,838.5
548.822,837.7
549.363,837.6
549.905,837.9
550.446,839.3
550.988,838.6
551.529,838.8
552.07,839.1
552.611,838.8
553.152,838.9
553.692,840.5
554.233,841.5
554.773,842.2
555.314,842.0
555.854,843.6
556.394,844.4
556.934,844.1
557.474,846.4
558.014,846.9
558.553,849.0
559.093,847.0
559.632,847.2
560.172,846.8
560.711,843.5
561.25,845.6
561.789,845.0
562.328,849.2
562.867,848.7
563.406,853.7
563.944,952.2
564.483,871.3
565.021,863.9
565.559,856.3
566.098,915.1
566.636,858.2
567.174,853.7
567.711,866.3
568.249,850.9
568.787,850.0
569.324,850.6
569.862,850.2
570.399,855.8
570.936,857.0
571.474,1011.2
572.011,880.7
572.548,857.1
573.084,851.2
573.621,850.4
574.158,857.4
574.694,848.8
575.231,852.7
575.767,892.1
576.303,1049.1
576.84,950.1
577.376,921.0
577.912,861.1
578.447,851.5
578.983,852.3
579.519,850.4
580.054,850.7
580.59,849.1
581.125,846.9
581.661,848.2
582.196,849.1
582.731,847.7
583.266,848.8
583.801,846.6
584.336,847.0
584.87,846.5
585.405,847.6
585.94,848.3
586.474,847.7
587.008,848.7
587.543,848.5
588.077,850.4
588.611,850.0
589.145,846.7
589.679,849.9
590.213,850.6
590.747,849.7
591.28,851.7
591.814,848.7
592.347,851.2
592.881,849.4
593.414,850.5
593.947,852.1
594.48,851.3
595.014,849.8
595.547,853.5
596.079,853.4
596.612,854.2
597.145,855.7
597.678,856.3
598.21,858.4
598.743,859.2
599.275,859.2
599.807,860.6
600.34,861.5
600.872,862.1
601.404,860.3
601.936,868.1
602.468,869.2
603.0,863.1
603.532,863.8
604.063,864.3
604.595,862.6
605.126,861.9
605.658,860.0
606.189,860.3
606.721,858.8
607.252,857.7
607.783,858.2
608.314,858.5
608.845,857.7
609.376,859.9
609.907,858.6
610.438,857.7
610.968,859.1
611.499,860.5
612.03,859.7
612.56,859.4
613.091,856.3
613.621,859.5
614.151,856.3
614.681,857.1
615.212,860.0
615.742,860.5
616.272,862.4
616.802,866.7
617.332,878.7
617.861,876.8
618.391,879.5
618.921,875.3
619.45,880.1
619.98,882.4
620.509,882.5
621.039,891.8
621.568,916.2
622.097,972.1
622.627,963.9
623.156,903.6
623.685,886.5
624.214,883.7
624.743,883.0
625.272,891.5
625.801,905.1
626.33,963.1
626.858,1460.0
627.387,2245.1
627.916,1656.1
628.444,2146.6
628.973,1586.9
629.501,1412.2
630.029,1234.0
630.558,1201.4
631.086,1012.4
631.614,909.9
632.142,889.5
632.67,884.9
633.198,877.9
633.726,871.5
634.254,869.7
634.782,866.9
635.31,862.3
635.838,860.3
636.365,861.4
636.893,858.5
637.421,855.0
637.948,853.7
638.476,848.9
639.003,851.0
639.531,849.7
640.058,850.5
640.585,849.0
641.113,849.9
641.64,849.2
642.167,849.8
642.694,848.8
643.221,849.1
643.748,849.1
644.275,849.0
644.802,847.8
645.329,848.5
645.856,849.7
646.382,848.2
646.909,848.3
647.436,847.2
647.962,849.1
648.489,848.7
649.016,848.0
649.542,846.6
650.069,846.6
650.595,848.2
651.121,849.5
651.648,849.2
652.174,849.0
652.7,850.9
653.227,848.0
653.753,850.1
654.279,849.1
654.805,848.6
655.331,849.5
655.857,849.7
656.383,847.1
656.909,849.2
657.435,849.7
657.961,849.7
658.487,848.6
659.013,850.0
659.538,848.8
660.064,850.7
660.59,847.0
661.116,846.7
661.641,845.2
662.167,846.7
662.692,846.2
663.087,845.1

File: VLFR_02-HDPE_nobio_Raman_f9277f16.csv
nm,Intensity
526.532,830.467
527.079,830.533
527.625,829.7
528.172,830.3
528.718,830.9
529.265,830.233
529.811,830.767
530.357,829.867
530.903,830.633
531.449,830.0
531.994,835.733
532.54,830.633
533.085,829.933
533.63,830.867
534.176,908.1
534.721,892.1
535.266,879.267
535.81,867.767
536.355,861.633
536.9,859.0
537.444,858.867
537.988,860.333
538.533,855.1
539.077,853.0
539.621,850.333
540.165,849.1
540.708,848.733
541.252,847.5
541.795,848.533
542.339,847.633
542.882,846.867
543.425,846.933
543.968,846.867
544.511,847.667
545.054,847.267
545.597,846.3
546.139,845.767
546.682,847.533
547.224,846.1
547.766,845.9
548.308,847.467
548.85,845.733
549.392,846.267
549.934,846.7
550.475,846.567
551.017,847.4
551.558,845.2
552.1,845.733
552.641,845.967
553.182,848.8
553.723,849.167
554.264,849.3
554.804,851.233
555.345,850.967
555.885,851.833
556.426,852.767
556.966,853.6
557.506,857.7
558.046,859.867
558.586,861.233
559.126,859.467
559.665,858.067
560.205,856.167
560.745,855.167
561.284,856.133
561.823,856.1
562.362,857.267
562.901,861.667
563.44,865.367
563.979,998.5
564.518,887.967
565.056,879.833
565.595,879.067
566.133,1143.43
566.671,880.033
567.21,867.233
567.748,864.4
568.285,861.467
568.823,860.833
569.361,861.8
569.899,862.0
570.436,869.167
570.974,875.867
571.511,1108.5
572.048,894.8
572.585,871.367
573.122,864.367
573.659,867.367
574.196,875.267
574.733,865.7
575.269,884.767
575.806,962.567
576.342,989.3
576.878,948.767
577.414,907.567
577.951,880.533
578.486,875.067
579.022,876.233
579.558,875.9
580.094,879.467
580.629,878.8
581.165,882.967
581.7,883.767
582.236,885.633
582.771,888.1
583.306,891.767
583.841,893.233
584.376,894.867
584.911,897.233
585.445,900.567
585.98,902.033
586.514,906.1
587.049,910.167
587.583,912.467
588.117,915.2
588.651,917.733
589.186,919.467
589.72,925.133
590.253,927.233
590.787,930.933
591.321,930.467
591.854,934.9
592.388,935.533
592.921,937.267
593.455,938.8
593.988,940.6
594.521,941.7
595.054,940.567
595.587,941.233
596.12,941.333
596.653,941.9
597.186,943.1
597.718,944.0
598.251,947.4
598.783,947.367
599.316,947.333
599.848,947.133
600.38,946.267
600.912,944.533
601.444,943.867
601.976,943.367
602.508,942.867
603.04,937.0
603.572,939.267
604.103,935.167
604.635,934.567
605.167,928.633
605.698,926.3
606.229,919.533
606.761,922.067
607.292,920.1
607.823,915.633
608.354,915.667
608.885,911.467
609.416,912.8
609.947,909.8
610.477,907.167
611.008,914.233
611.539,910.267
612.069,905.6
612.6,906.467
613.13,904.833
613.66,902.8
614.19,898.833
614.721,901.5
615.251,899.933
615.781,898.2
616.311,899.8
616.841,899.9
617.37,902.967
617.9,901.233
618.43,901.633
618.96,900.867
619.489,900.733
620.019,901.933
620.548,901.933
621.077,903.433
621.607,914.133
622.136,929.0
622.665,925.867
623.194,906.2
623.723,900.3
624.252,899.033
624.781,900.4
625.31,903.5
625.839,908.533
626.368,935.533
626.896,1159.03
627.425,1522.77
627.953,1252.4
628.482,1437.3
629.01,1340.5
629.539,1238.8
630.067,1149.33
630.596,1116.53
631.124,988.333
631.652,930.267
632.18,910.1
632.708,901.533
633.236,900.4
633.764,898.467
634.292,895.233
634.82,893.833
635.348,892.967
635.876,893.367
636.403,893.0
636.931,892.367
637.459,892.367
637.986,891.333
638.514,890.833
639.041,891.8
639.568,891.033
640.096,891.2
640.623,891.367
641.15,892.567
641.678,892.6
642.205,890.233
642.732,894.2
643.259,894.567
643.786,891.2
644.313,892.5
644.84,894.033
645.367,893.433
645.894,890.667
646.421,893.067
646.948,893.4
647.474,893.0
648.001,890.9
648.528,891.333
649.054,891.667
649.581,889.6
650.108,890.267
650.634,888.9
651.161,891.0
651.687,887.2
652.214,887.433
652.74,888.1
653.266,887.367
653.793,886.8
654.319,888.267
654.845,884.0
655.371,885.733
655.897,885.433
656.424,885.2
656.95,884.8
657.476,883.567
658.002,882.7
658.528,885.1
659.054,880.933
659.58,880.133
660.106,880.633
660.631,877.667
661.157,876.333
661.683,878.233
662.209,875.233
662.735,873.433
663.129,873.167