Folder: MPX_specDB/spectra (part 96)

File: VLFR_07-PET_bio_Raman_8bf34814.csv
nm,Intensity
791.377,14921.3
792.477,13603.2
793.576,12883.7
794.676,12350.8
795.775,12009.2
796.874,12121.0
797.973,12112.7
799.072,11913.4
800.171,11875.2
801.27,11854.2
802.368,11891.0
803.467,11450.5
804.565,11324.9
805.664,11206.3
806.762,11034.5
807.86,11085.4
808.958,10905.8
810.056,10908.1
811.153,10721.2
812.251,10631.7
813.349,10403.2
814.446,10456.8
815.543,10427.9
816.64,10298.5
817.737,10135.6
818.834,10137.5
819.931,9957.42
821.028,9820.64
822.125,9934.94
823.221,9717.1
824.317,9562.52
825.414,9791.82
826.51,9428.28
827.606,9378.58
828.702,9263.58
829.797,9084.06
830.893,9361.52
831.988,8933.9
833.084,8884.58
834.179,8769.16
835.274,8646.02
836.369,8722.12
837.464,8766.96
838.559,8706.74
839.654,8627.54
840.748,8730.36
841.843,8932.9
842.937,8563.8
844.031,8398.3
845.125,8086.5
846.219,8047.5
847.313,7836.12
848.407,7912.42
849.5,7910.9
850.593,7845.32
851.687,7777.12
852.78,7744.4
853.873,7732.5
854.966,7667.38
856.059,7550.04
857.151,7557.64
858.244,7634.62
859.336,7766.66
860.428,7730.88
861.52,7527.9
862.612,7354.36
863.704,7344.68
864.796,7324.12
865.888,7224.36
866.979,7149.42
868.07,7069.36
869.162,7066.06
870.253,7154.82
871.344,7218.64
872.434,7527.42
873.525,7480.0
874.615,7316.12
875.706,6946.04
876.796,6888.12
877.886,6795.98
878.976,6710.74
880.066,6742.52
881.156,6678.14
882.245,6722.2
883.335,6536.74
884.424,6559.76
885.513,6534.76
886.602,6506.68
887.691,6387.38
888.78,6423.58
889.868,6301.06
890.957,6290.48
892.045,6337.56
893.133,6189.82
894.221,6060.86
895.309,6182.42
896.397,6105.34
897.484,6314.0
898.571,7075.56
899.659,6474.52
900.746,5930.5
901.833,5845.3
902.92,5774.24
904.006,5822.38
905.093,5720.52
906.179,5866.22
907.266,6311.34
908.352,6350.62
909.438,5892.42
910.523,5643.3
911.609,5477.86
912.695,5432.7
913.78,5365.0
914.865,5334.34
915.95,5321.3
917.035,5270.02
918.12,5233.88
919.204,5222.52
920.289,5186.58
921.373,5095.86
922.457,5082.14
923.541,5033.5
924.625,5009.6
925.709,5021.46
926.792,4928.56
927.876,4916.28
928.959,4879.16
930.042,4830.92
931.125,4801.6
932.208,4775.06
933.29,4761.78
934.373,4731.48
935.455,4685.18
936.537,4699.08
937.619,4657.16
938.701,4603.48
939.782,4615.58
940.864,4571.5
941.945,4565.0
943.026,4529.88
944.107,4502.0
945.188,4485.86
946.269,4462.9
947.349,4436.8
948.43,4438.24
949.51,4397.2
950.59,4356.66
951.67,4376.5
952.75,4344.22
953.829,4320.38
954.909,4297.92
955.988,4294.76
957.067,4291.72
958.146,4267.98
959.224,4256.36
960.303,4228.9
961.381,4218.54
962.459,4195.54
963.537,4189.86
964.615,4177.2
965.693,4166.44
966.771,4139.88
967.848,4156.9
968.925,4120.94
970.002,4112.84
971.079,4101.98
972.156,4094.16
973.232,4072.96
974.309,4079.96
975.385,4064.28
976.461,4047.98
977.537,4046.02
978.612,4034.16
979.688,4025.42
980.763,4018.76
981.838,4013.44
982.913,3998.9
983.988,3993.24
985.063,3991.16
986.137,3980.78
987.211,3974.68
988.285,3969.72
989.359,3965.32
990.433,3951.68
991.506,3938.08
992.58,3941.24
993.653,3926.72
994.726,3926.54
995.799,3921.06
996.872,3919.52
997.944,3906.94
999.016,3905.1
1000.09,3899.96
1001.16,3895.9
1002.23,3895.62
1003.3,3884.82
1004.38,3882.92
1005.45,3880.08
1006.52,3872.44
1007.59,3868.78
1008.66,3865.1
1009.73,3861.26
1010.8,3858.16
1011.87,3851.04
1012.94,3854.06
1014.01,3852.72
1015.08,3848.94
1016.15,3848.98
1017.22,3843.24
1018.29,3837.92
1019.36,3837.12
1020.42,3838.22
1021.49,3844.18
1022.56,3846.88
1023.63,3840.62
1024.7,3836.28
1025.76,3829.9
1026.83,3824.84
1027.9,3821.3
1028.97,3816.84
1030.03,3815.08
1031.1,3812.1
1032.17,3812.26
1033.23,3810.52
1034.3,3814.96
1035.36,3814.3
1036.43,3815.4
1037.5,3809.64
1038.56,3803.8
1039.63,3801.56
1040.69,3798.34
1041.76,3795.7
1042.82,3797.12
1043.89,3794.76
1044.95,3793.8
1046.01,3791.3
1047.08,3791.98
1048.14,3789.68
1049.2,3790.72
1050.27,3789.16
1051.33,3790.5
1052.39,3788.36
1053.46,3788.38
1054.52,3788.66
1055.58,3788.94
1056.64,3786.96
1057.7,3787.7
1058.77,3786.36
1059.83,3786.0
1060.89,3786.24
1061.95,3785.74
1063.01,3785.62
1064.07,3784.3
1065.13,3784.6
1066.19,3783.14
1067.25,3783.66
1068.05,3783.14

File: VLFR_07-PET_bio_Raman_8c2c42c3.csv
nm,Intensity
791.377,40174.6
792.477,40630.4
793.576,41135.4
794.676,41467.1
795.775,43080.9
796.874,41905.4
797.973,41722.4
799.072,42542.4
800.171,42634.9
801.27,42516.1
802.368,42354.4
803.467,42637.1
804.565,43195.5
805.664,43226.8
806.762,41609.9
807.86,42261.6
808.958,42169.9
810.056,41410.9
811.153,42155.1
812.251,42644.9
813.349,41431.1
814.446,41453.9
815.543,42233.1
816.64,41340.9
817.737,41526.3
818.834,42200.5
819.931,41578.3
821.028,41139.3
822.125,42749.9
823.221,42440.8
824.317,41669.5
825.414,40965.4
826.51,41075.5
827.606,40259.1
828.702,40249.1
829.797,40084.9
830.893,40261.4
831.988,40632.6
833.084,39043.2
834.179,40254.1
835.274,39436.1
836.369,39666.4
837.464,39093.3
838.559,39699.1
839.654,39352.1
840.748,39099.4
841.843,38724.6
842.937,39848.3
844.031,40079.8
845.125,36593.3
846.219,38114.5
847.313,37189.7
848.407,37566.1
849.5,36521.8
850.593,37634.1
851.687,38675.6
852.78,38068.1
853.873,35681.1
854.966,36590.9
856.059,36544.9
857.151,35946.3
858.244,36930.8
859.336,35760.4
860.428,36350.6
861.52,35049.8
862.612,34286.1
863.704,34625.6
864.796,34836.4
865.888,34352.6
866.979,34151.8
868.07,34419.9
869.162,34291.8
870.253,33565.9
871.344,33676.7
872.434,32472.9
873.525,33581.1
874.615,32523.7
875.706,32487.2
876.796,31455.9
877.886,31837.6
878.976,31454.9
880.066,32413.8
881.156,30964.7
882.245,31603.8
883.335,31128.1
884.424,30884.7
885.513,30099.8
886.602,30073.1
887.691,30410.8
888.78,29406.6
889.868,29712.0
890.957,29386.2
892.045,28401.9
893.133,28496.1
894.221,27951.8
895.309,28213.8
896.397,27370.0
897.484,27551.4
898.571,27244.9
899.659,27263.1
900.746,26888.2
901.833,26530.0
902.92,25857.8
904.006,26068.1
905.093,25390.3
906.179,25183.7
907.266,25724.8
908.352,25230.8
909.438,24873.8
910.523,24304.0
911.609,24140.9
912.695,23440.9
913.78,23650.8
914.865,23592.3
915.95,23041.8
917.035,22954.4
918.12,22416.5
919.204,22671.1
920.289,21152.3
921.373,22505.0
922.457,21603.9
923.541,20945.9
924.625,21475.8
925.709,20394.8
926.792,20467.2
927.876,19994.9
928.959,20040.5
930.042,19501.2
931.125,19200.9
932.208,18680.7
933.29,19150.1
934.373,19122.9
935.455,18270.3
936.537,18236.8
937.619,17834.8
938.701,17235.9
939.782,17049.8
940.864,17229.8
941.945,16941.8
943.026,16519.4
944.107,16669.3
945.188,15766.8
946.269,15872.2
947.349,15796.5
948.43,15635.1
949.51,15451.7
950.59,15309.2
951.67,14920.8
952.75,14211.8
953.829,14424.9
954.909,14524.4
955.988,14167.8
957.067,13761.0
958.146,13775.8
959.224,13093.3
960.303,13509.8
961.381,12942.3
962.459,12857.7
963.537,12740.5
964.615,12418.5
965.693,12440.4
966.771,12100.3
967.848,11631.3
968.925,12154.8
970.002,11451.5
971.079,11724.5
972.156,11173.5
973.232,10992.5
974.309,10819.1
975.385,10801.0
976.461,10902.2
977.537,10591.0
978.612,10317.8
979.688,10289.9
980.763,10021.3
981.838,10131.4
982.913,9759.9
983.988,9487.55
985.063,9615.05
986.137,9512.0
987.211,9279.95
988.285,9108.55
989.359,8712.25
990.433,8992.8
991.506,8920.2
992.58,8533.15
993.653,8479.55
994.726,8464.85
995.799,8203.8
996.872,8171.6
997.944,8097.55
999.016,7952.8
1000.09,7806.5
1001.16,7755.9
1002.23,7494.7
1003.3,7555.5
1004.38,7526.3
1005.45,7307.3
1006.52,7107.4
1007.59,7094.65
1008.66,6951.65
1009.73,6989.35
1010.8,6765.45
1011.87,6640.3
1012.94,6493.75
1014.01,6503.7
1015.08,6479.5
1016.15,6428.65
1017.22,6105.65
1018.29,6099.55
1019.36,6231.95
1020.42,5966.7
1021.49,5925.9
1022.56,5813.2
1023.63,5751.8
1024.7,5752.1
1025.76,5515.5
1026.83,5524.25
1027.9,5470.9
1028.97,5457.1
1030.03,5374.0
1031.1,5236.6
1032.17,5212.35
1033.23,5168.65
1034.3,5132.25
1035.36,5049.0
1036.43,5028.7
1037.5,4976.1
1038.56,4853.55
1039.63,4881.45
1040.69,4845.65
1041.76,4791.35
1042.82,4727.05
1043.89,4680.65
1044.95,4616.65
1046.01,4609.1
1047.08,4542.75
1048.14,4549.55
1049.2,4496.15
1050.27,4475.65
1051.33,4451.4
1052.39,4475.2
1053.46,4439.1
1054.52,4384.2
1055.58,4431.3
1056.64,4340.2
1057.7,4376.95
1058.77,4314.4
1059.83,4312.0
1060.89,4303.2
1061.95,4293.55
1063.01,4263.45
1064.07,4257.35
1065.13,4230.25
1066.19,4213.9
1067.25,4205.75
1068.05,4179.8

File: VLFR_07-PET_bio_Raman_08f04aa7.csv
nm,Intensity
791.496,9365.3
792.594,8828.5
793.692,8665.3
794.79,8579.1
795.888,8512.7
796.986,8477.6
798.083,8518.6
799.181,8439.3
800.278,8481.8
801.375,8573.3
802.473,8391.6
803.57,8367.8
804.667,8233.7
805.764,8248.5
806.86,8095.0
807.957,8167.3
809.054,8050.9
810.15,7966.2
811.246,7970.3
812.343,7924.4
813.439,7797.1
814.535,7748.4
815.631,7661.5
816.727,7693.8
817.822,7533.5
818.918,7546.5
820.013,7487.9
821.109,7476.3
822.204,7334.8
823.299,7340.8
824.394,7272.3
825.489,7335.2
826.584,7164.1
827.679,7139.5
828.774,7014.0
829.868,7075.3
830.963,7004.7
832.057,6939.2
833.151,6814.5
834.245,6798.4
835.339,6764.1
836.433,6830.2
837.527,6802.5
838.621,6721.2
839.714,6677.4
840.808,6723.7
841.901,6648.6
842.994,6572.6
844.087,6516.1
845.18,6355.9
846.273,6368.4
847.366,6289.7
848.458,6252.4
849.551,6204.1
850.643,6179.1
851.735,6159.9
852.828,6156.2
853.92,6110.3
855.012,6062.6
856.103,6050.8
857.195,6019.1
858.287,6025.0
859.378,6029.9
860.469,6021.7
861.56,5894.2
862.651,5879.0
863.742,5885.4
864.833,5825.4
865.924,5769.0
867.014,5721.6
868.105,5666.9
869.195,5726.2
870.285,5731.0
871.376,5762.3
872.465,5840.1
873.555,5794.5
874.645,5644.2
875.735,5557.1
876.824,5553.3
877.913,5508.4
879.002,5475.3
880.092,5451.2
881.18,5467.0
882.269,5405.9
883.358,5417.4
884.446,5389.0
885.535,5348.7
886.623,5343.5
887.711,5254.7
888.799,5286.9
889.887,5197.3
890.975,5218.5
892.062,5201.4
893.15,5134.6
894.237,5107.6
895.325,5073.0
896.412,5075.6
897.499,5310.2
898.585,5336.9
899.672,5088.9
900.759,4935.5
901.845,4939.3
902.931,4907.6
904.017,4897.9
905.103,4887.7
906.189,4944.4
907.275,4995.6
908.361,4986.6
909.446,4838.5
910.531,4731.5
911.616,4714.3
912.701,4664.1
913.786,4639.0
914.871,4619.3
915.956,4588.6
917.04,4576.4
918.124,4547.7
919.209,4539.4
920.293,4512.7
921.376,4489.4
922.46,4448.3
923.544,4445.4
924.627,4423.2
925.711,4409.4
926.794,4364.6
927.877,4363.7
928.96,4318.3
930.042,4316.5
931.125,4282.5
932.207,4267.4
933.29,4242.9
934.372,4233.9
935.454,4197.0
936.536,4209.2
937.617,4178.9
938.699,4167.4
939.78,4147.6
940.861,4140.2
941.943,4114.5
943.023,4127.7
944.104,4087.4
945.185,4076.2
946.265,4075.3
947.346,4071.0
948.426,4047.3
949.506,4038.5
950.586,4007.2
951.665,4023.0
952.745,4002.4
953.824,3990.0
954.904,3985.9
955.983,3968.1
957.062,3963.5
958.141,3952.0
959.219,3939.4
960.298,3935.5
961.376,3931.1
962.454,3923.9
963.532,3908.2
964.61,3906.1
965.688,3895.0
966.765,3897.7
967.842,3895.3
968.92,3882.6
969.997,3877.8
971.074,3876.4
972.15,3869.1
973.227,3853.8
974.303,3849.1
975.379,3844.0
976.455,3834.1
977.531,3830.7
978.607,3828.4
979.683,3827.4
980.758,3824.7
981.833,3822.0
982.908,3817.8
983.983,3802.6
985.058,3802.9
986.133,3805.6
987.207,3799.4
988.281,3797.2
989.355,3786.0
990.429,3784.6
991.503,3784.2
992.577,3781.9
993.65,3775.7
994.723,3771.6
995.796,3766.3
996.869,3767.5
997.942,3766.4
999.014,3762.1
1000.09,3764.5
1001.16,3756.4
1002.23,3759.0
1003.3,3753.9
1004.37,3749.7
1005.45,3745.0
1006.52,3743.9
1007.59,3740.5
1008.66,3742.1
1009.73,3737.4
1010.8,3732.5
1011.87,3736.7
1012.94,3735.0
1014.01,3734.2
1015.08,3729.7
1016.15,3729.0
1017.22,3723.9
1018.29,3725.9
1019.36,3726.2
1020.43,3724.3
1021.5,3723.7
1022.57,3722.0
1023.64,3722.3
1024.7,3717.7
1025.77,3719.6
1026.84,3716.1
1027.91,3714.3
1028.97,3711.4
1030.04,3710.9
1031.11,3711.8
1032.18,3711.6
1033.24,3710.2
1034.31,3710.1
1035.38,3709.1
1036.44,3707.5
1037.51,3706.9
1038.58,3706.7
1039.64,3704.1
1040.71,3702.8
1041.77,3704.0
1042.84,3701.9
1043.9,3703.9
1044.97,3702.3
1046.03,3700.0
1047.1,3700.2
1048.16,3699.3
1049.22,3698.4
1050.29,3698.5
1051.35,3697.8
1052.42,3696.9
1053.48,3699.0
1054.54,3699.3
1055.61,3698.3
1056.67,3697.5
1057.73,3695.7
1058.79,3695.8
1059.86,3696.5
1060.92,3696.0
1061.98,3697.3
1063.04,3695.7
1064.1,3695.9
1065.16,3695.5
1066.22,3694.0
1067.29,3695.0
1068.08,3694.9

File: VLFR_07-PET_bio_Raman_8fb21af0.csv
nm,Intensity
791.377,15576.6
792.477,13829.8
793.576,12948.6
794.676,12477.8
795.775,12289.1
796.874,12370.4
797.973,12111.8
799.072,12179.3
800.171,12036.0
801.27,12009.4
802.368,11968.2
803.467,11839.3
804.565,11514.6
805.664,11457.3
806.762,11364.8
807.86,11176.7
808.958,10956.1
810.056,10995.3
811.153,11004.7
812.251,10916.3
813.349,10783.2
814.446,10666.6
815.543,10629.3
816.64,10604.0
817.737,10332.2
818.834,10280.8
819.931,10139.5
821.028,10102.2
822.125,9913.88
823.221,9914.72
824.317,9767.4
825.414,9816.56
826.51,9983.94
827.606,9480.38
828.702,9442.58
829.797,9484.9
830.893,9519.36
831.988,9110.9
833.084,8997.18
834.179,9112.1
835.274,8933.88
836.369,8810.14
837.464,9058.56
838.559,8869.4
839.654,8875.68
840.748,9016.5
841.843,9263.6
842.937,8618.42
844.031,8692.04
845.125,8416.92
846.219,8260.56
847.313,8247.62
848.407,8098.98
849.5,8139.96
850.593,8037.12
851.687,7991.3
852.78,8008.04
853.873,8004.56
854.966,7846.2
856.059,7655.22
857.151,7681.36
858.244,7835.5
859.336,7986.66
860.428,7967.02
861.52,7781.68
862.612,7466.68
863.704,7600.04
864.796,7510.2
865.888,7559.46
866.979,7314.68
868.07,7238.06
869.162,7231.24
870.253,7221.08
871.344,7541.12
872.434,7685.2
873.525,7765.74
874.615,7425.82
875.706,7204.7
876.796,7038.34
877.886,6966.26
878.976,6941.88
880.066,6854.82
881.156,6905.04
882.245,6789.38
883.335,6777.88
884.424,6733.4
885.513,6793.66
886.602,6632.7
887.691,6538.98
888.78,6498.04
889.868,6397.56
890.957,6528.36
892.045,6452.48
893.133,6354.86
894.221,6304.78
895.309,6239.24
896.397,6273.54
897.484,6499.42
898.571,7254.5
899.659,6771.82
900.746,6106.28
901.833,5937.5
902.92,5952.3
904.006,5952.14
905.093,5867.78
906.179,6004.02
907.266,6448.18
908.352,6591.76
909.438,6149.2
910.523,5755.7
911.609,5586.92
912.695,5524.76
913.78,5513.38
914.865,5452.74
915.95,5468.88
917.035,5370.5
918.12,5331.38
919.204,5283.06
920.289,5276.9
921.373,5210.74
922.457,5173.92
923.541,5117.28
924.625,5106.44
925.709,5037.16
926.792,5037.36
927.876,5036.04
928.959,4935.8
930.042,4903.4
931.125,4882.86
932.208,4876.1
933.29,4810.62
934.373,4790.76
935.455,4750.72
936.537,4749.68
937.619,4692.48
938.701,4679.96
939.782,4649.28
940.864,4635.24
941.945,4637.24
943.026,4572.88
944.107,4542.38
945.188,4534.22
946.269,4500.28
947.349,4458.42
948.43,4454.96
949.51,4456.32
950.59,4408.12
951.67,4398.98
952.75,4395.84
953.829,4352.5
954.909,4324.0
955.988,4335.3
957.067,4312.2
958.146,4288.56
959.224,4281.78
960.303,4265.72
961.381,4236.42
962.459,4240.1
963.537,4216.12
964.615,4208.74
965.693,4184.96
966.771,4180.24
967.848,4156.22
968.925,4159.58
970.002,4143.14
971.079,4116.14
972.156,4107.78
973.232,4120.22
974.309,4102.46
975.385,4083.54
976.461,4060.22
977.537,4058.9
978.612,4051.36
979.688,4049.78
980.763,4040.98
981.838,4020.74
982.913,4015.0
983.988,4009.46
985.063,4004.8
986.137,3991.08
987.211,3985.84
988.285,3985.18
989.359,3977.72
990.433,3966.26
991.506,3960.94
992.58,3948.68
993.653,3947.86
994.726,3938.0
995.799,3931.06
996.872,3925.68
997.944,3922.64
999.016,3909.96
1000.09,3911.3
1001.16,3905.52
1002.23,3907.66
1003.3,3891.52
1004.38,3891.22
1005.45,3889.3
1006.52,3880.76
1007.59,3876.44
1008.66,3873.22
1009.73,3870.4
1010.8,3867.38
1011.87,3860.64
1012.94,3859.48
1014.01,3860.54
1015.08,3853.76
1016.15,3857.08
1017.22,3851.68
1018.29,3845.42
1019.36,3843.62
1020.42,3844.6
1021.49,3848.46
1022.56,3852.94
1023.63,3853.08
1024.7,3845.48
1025.76,3838.6
1026.83,3829.16
1027.9,3827.04
1028.97,3821.36
1030.03,3817.44
1031.1,3814.96
1032.17,3814.88
1033.23,3814.74
1034.3,3820.7
1035.36,3823.56
1036.43,3819.24
1037.5,3813.0
1038.56,3805.72
1039.63,3804.06
1040.69,3800.32
1041.76,3800.94
1042.82,3798.54
1043.89,3796.9
1044.95,3794.96
1046.01,3793.96
1047.08,3793.58
1048.14,3793.18
1049.2,3793.04
1050.27,3791.68
1051.33,3792.64
1052.39,3791.34
1053.46,3790.78
1054.52,3789.08
1055.58,3789.9
1056.64,3788.82
1057.7,3789.58
1058.77,3787.68
1059.83,3788.72
1060.89,3788.08
1061.95,3788.02
1063.01,3787.88
1064.07,3787.52
1065.13,3787.06
1066.19,3786.36
1067.25,3786.28
1068.05,3785.82

File: VLFR_07-PET_bio_Raman_9a63babb.csv
nm,Intensity
791.75,12003.7
792.846,11271.3
793.942,10926.1
795.037,10824.0
796.133,10728.0
797.228,10633.0
798.324,10724.0
799.419,10640.2
800.514,10523.0
801.61,10583.5
802.705,10552.4
803.8,10316.0
804.894,10396.4
805.989,10260.6
807.084,10073.5
808.178,10075.0
809.273,9881.6
810.367,9781.8
811.461,9729.5
812.556,9467.65
813.65,9422.55
814.744,9368.25
815.837,9153.7
816.931,9074.6
818.025,9010.15
819.118,8806.05
820.212,8831.0
821.305,8625.25
822.398,8430.25
823.491,8448.05
824.585,8372.25
825.677,8480.85
826.77,8132.15
827.863,8097.5
828.956,8021.45
830.048,8103.6
831.14,7940.65
832.233,7849.65
833.325,7799.7
834.417,7703.65
835.509,7688.1
836.601,7647.6
837.692,7631.1
838.784,7611.75
839.876,7577.25
840.967,7668.7
842.058,7481.85
843.149,7394.2
844.24,7241.55
845.331,7168.15
846.422,7065.4
847.513,6971.95
848.604,6969.2
849.694,6822.45
850.784,6813.0
851.875,6794.15
852.965,6767.75
854.055,6628.85
855.145,6638.15
856.235,6540.85
857.324,6594.95
858.414,6607.75
859.503,6574.7
860.593,6567.1
861.682,6324.9
862.771,6342.1
863.86,6355.9
864.949,6332.45
866.038,6185.0
867.126,6185.5
868.215,6108.8
869.303,6139.1
870.391,6187.1
871.479,6296.6
872.567,6352.3
873.655,6216.6
874.743,6041.15
875.831,5974.8
876.918,5925.95
878.006,5922.5
879.093,5825.85
880.18,5813.95
881.267,5791.7
882.354,5796.9
883.441,5784.2
884.527,5752.9
885.614,5685.8
886.7,5661.65
887.786,5634.55
888.872,5543.65
889.958,5590.4
891.044,5493.55
892.13,5528.15
893.216,5445.2
894.301,5416.7
895.386,5380.4
896.472,5424.15
897.557,5639.8
898.642,5661.9
899.726,5360.3
900.811,5198.05
901.896,5195.2
902.98,5113.1
904.064,5115.3
905.148,5129.05
906.232,5240.2
907.316,5396.25
908.4,5203.25
909.484,5033.75
910.567,4939.75
911.65,4890.6
912.734,4820.4
913.817,4812.05
914.9,4778.2
915.982,4762.35
917.065,4732.65
918.147,4694.4
919.23,4683.95
920.312,4653.4
921.394,4609.35
922.476,4571.15
923.558,4542.65
924.639,4532.6
925.721,4492.55
926.802,4486.55
927.884,4432.8
928.965,4402.15
930.046,4381.7
931.126,4350.15
932.207,4325.8
933.288,4312.75
934.368,4273.7
935.448,4263.25
936.528,4237.15
937.608,4223.6
938.688,4216.85
939.767,4203.75
940.847,4181.35
941.926,4151.35
943.005,4146.15
944.084,4125.25
945.163,4107.1
946.242,4082.3
947.321,4085.85
948.399,4063.5
949.477,4055.3
950.556,4043.85
951.634,4027.45
952.711,4019.9
953.789,4007.7
954.867,3990.2
955.944,3987.45
957.021,3974.3
958.098,3965.6
959.175,3959.35
960.252,3952.15
961.328,3928.6
962.405,3931.85
963.481,3923.95
964.557,3918.5
965.633,3905.05
966.709,3904.9
967.785,3903.45
968.86,3893.45
969.936,3889.5
971.011,3878.55
972.086,3874.5
973.161,3860.8
974.235,3853.9
975.31,3846.15
976.384,3845.55
977.459,3838.4
978.533,3832.15
979.607,3825.65
980.68,3828.55
981.754,3823.25
982.827,3819.25
983.901,3813.6
984.974,3808.95
986.047,3804.25
987.119,3804.0
988.192,3794.55
989.264,3794.8
990.337,3789.5
991.409,3785.6
992.481,3779.5
993.553,3781.2
994.624,3776.15
995.696,3773.15
996.767,3768.8
997.838,3760.2
998.909,3762.05
999.98,3754.95
1001.05,3756.15
1002.12,3752.0
1003.19,3750.0
1004.26,3749.15
1005.33,3743.8
1006.4,3741.5
1007.47,3736.8
1008.54,3736.55
1009.61,3731.7
1010.68,3729.25
1011.75,3730.4
1012.82,3731.55
1013.88,3726.6
1014.95,3722.8
1016.02,3722.95
1017.09,3720.65
1018.16,3718.7
1019.22,3716.3
1020.29,3716.65
1021.36,3719.3
1022.43,3719.45
1023.49,3716.65
1024.56,3713.1
1025.63,3712.25
1026.69,3708.7
1027.76,3708.2
1028.83,3704.1
1029.89,3702.55
1030.96,3700.0
1032.02,3701.6
1033.09,3701.0
1034.15,3701.7
1035.22,3702.0
1036.28,3701.35
1037.35,3695.85
1038.41,3694.65
1039.48,3695.95
1040.54,3694.05
1041.6,3692.1
1042.67,3691.05
1043.73,3691.45
1044.79,3688.9
1045.86,3687.6
1046.92,3689.75
1047.98,3689.4
1049.05,3687.55
1050.11,3687.35
1051.17,3688.35
1052.23,3686.7
1053.29,3687.5
1054.36,3686.5
1055.42,3687.4
1056.48,3684.7
1057.54,3686.4
1058.6,3686.6
1059.66,3684.15
1060.72,3684.75
1061.78,3685.1
1062.84,3686.15
1063.9,3684.5
1064.96,3684.6
1066.02,3685.2
1067.08,3685.05
1067.88,3682.35

File: VLFR_07-PET_bio_Raman_9a128a40.csv
nm,Intensity
791.377,11735.5
792.477,11184.8
793.576,10840.3
794.676,10355.4
795.775,10043.0
796.874,10000.5
797.973,9950.48
799.072,10011.1
800.171,9841.66
801.27,9799.06
802.368,9873.58
803.467,9665.62
804.565,9516.88
805.664,9478.74
806.762,9434.92
807.86,9326.52
808.958,9184.88
810.056,9100.48
811.153,8973.4
812.251,8901.42
813.349,8721.6
814.446,8498.3
815.543,8566.88
816.64,8363.54
817.737,8358.66
818.834,8267.68
819.931,8281.4
821.028,8292.12
822.125,8099.48
823.221,7901.06
824.317,7999.1
825.414,8101.96
826.51,8071.86
827.606,7739.34
828.702,7749.32
829.797,7696.24
830.893,7744.72
831.988,7603.14
833.084,7460.98
834.179,7496.74
835.274,7449.84
836.369,7491.96
837.464,7480.34
838.559,7428.24
839.654,7319.0
840.748,7433.88
841.843,7702.04
842.937,7308.1
844.031,7118.04
845.125,7101.8
846.219,6972.98
847.313,6968.44
848.407,7004.62
849.5,6806.32
850.593,6786.66
851.687,6833.96
852.78,6782.72
853.873,6591.0
854.966,6539.58
856.059,6666.6
857.151,6552.8
858.244,6693.52
859.336,6762.7
860.428,6602.36
861.52,6527.48
862.612,6379.2
863.704,6366.24
864.796,6438.38
865.888,6292.24
866.979,6212.22
868.07,6203.3
869.162,6175.62
870.253,6233.56
871.344,6305.06
872.434,6364.92
873.525,6418.44
874.615,6251.02
875.706,6050.7
876.796,5993.52
877.886,5997.1
878.976,5947.32
880.066,5856.7
881.156,5894.22
882.245,5899.34
883.335,5859.8
884.424,5823.64
885.513,5843.46
886.602,5759.52
887.691,5672.92
888.78,5645.1
889.868,5620.04
890.957,5627.64
892.045,5593.08
893.133,5474.4
894.221,5451.36
895.309,5365.54
896.397,5389.32
897.484,5462.58
898.571,5832.84
899.659,5554.52
900.746,5244.12
901.833,5201.78
902.92,5167.3
904.006,5168.12
905.093,5183.38
906.179,5150.98
907.266,5357.86
908.352,5401.48
909.438,5137.72
910.523,5019.04
911.609,4982.7
912.695,4893.88
913.78,4865.64
914.865,4836.8
915.95,4830.34
917.035,4807.94
918.12,4767.62
919.204,4769.18
920.289,4768.44
921.373,4727.96
922.457,4693.9
923.541,4663.28
924.625,4639.18
925.709,4645.16
926.792,4599.82
927.876,4563.66
928.959,4499.04
930.042,4452.54
931.125,4409.74
932.208,4385.7
933.29,4343.0
934.373,4305.52
935.455,4308.34
936.537,4293.22
937.619,4281.32
938.701,4284.62
939.782,4304.82
940.864,4284.42
941.945,4249.7
943.026,4223.52
944.107,4200.98
945.188,4197.14
946.269,4186.06
947.349,4177.62
948.43,4171.58
949.51,4152.44
950.59,4155.78
951.67,4138.42
952.75,4116.7
953.829,4108.36
954.909,4105.22
955.988,4099.62
957.067,4094.5
958.146,4077.44
959.224,4080.34
960.303,4070.94
961.381,4062.2
962.459,4058.88
963.537,4038.5
964.615,4042.52
965.693,4035.52
966.771,4030.88
967.848,4046.74
968.925,4026.22
970.002,4032.16
971.079,4018.66
972.156,4010.16
973.232,4000.2
974.309,3997.32
975.385,3978.96
976.461,3979.6
977.537,3975.82
978.612,3975.86
979.688,3967.02
980.763,3961.4
981.838,3963.0
982.913,3962.22
983.988,3953.6
985.063,3956.7
986.137,3952.36
987.211,3949.36
988.285,3944.86
989.359,3942.38
990.433,3930.44
991.506,3927.34
992.58,3922.68
993.653,3920.88
994.726,3917.06
995.799,3916.12
996.872,3904.42
997.944,3898.92
999.016,3899.4
1000.09,3893.48
1001.16,3892.24
1002.23,3887.22
1003.3,3875.92
1004.38,3881.04
1005.45,3869.52
1006.52,3866.82
1007.59,3866.56
1008.66,3863.94
1009.73,3856.06
1010.8,3855.64
1011.87,3855.28
1012.94,3847.22
1014.01,3847.36
1015.08,3847.02
1016.15,3841.64
1017.22,3841.0
1018.29,3839.68
1019.36,3835.68
1020.42,3832.64
1021.49,3834.76
1022.56,3832.52
1023.63,3828.92
1024.7,3828.02
1025.76,3825.04
1026.83,3820.26
1027.9,3818.6
1028.97,3816.98
1030.03,3812.32
1031.1,3812.02
1032.17,3812.8
1033.23,3813.36
1034.3,3809.26
1035.36,3811.72
1036.43,3812.78
1037.5,3805.64
1038.56,3803.94
1039.63,3806.2
1040.69,3802.28
1041.76,3799.22
1042.82,3800.64
1043.89,3800.96
1044.95,3796.32
1046.01,3795.42
1047.08,3797.82
1048.14,3797.06
1049.2,3793.42
1050.27,3793.06
1051.33,3795.84
1052.39,3793.68
1053.46,3791.12
1054.52,3792.7
1055.58,3792.48
1056.64,3790.76
1057.7,3790.18
1058.77,3791.02
1059.83,3791.02
1060.89,3788.78
1061.95,3789.64
1063.01,3791.06
1064.07,3789.1
1065.13,3788.26
1066.19,3787.9
1067.25,3790.24
1068.05,3788.26