Folder: MPX_specDB/spectra (part 44)

File: VLFR_02-HDPE_bio_Raman_a2b40f76.csv
nm,Intensity
526.549,831.75
527.096,831.85
527.643,830.7
528.19,831.95
528.737,832.5
529.283,832.15
529.83,831.85
530.376,831.2
530.922,831.95
531.468,832.2
532.014,845.0
532.559,832.65
533.105,832.0
533.65,832.8
534.196,896.45
534.741,887.3
535.286,881.75
535.83,866.45
536.375,862.35
536.92,857.8
537.464,858.55
538.008,859.2
538.553,857.65
539.097,854.15
539.641,852.4
540.184,851.8
540.728,850.65
541.271,851.5
541.815,850.25
542.358,849.95
542.901,849.75
543.444,850.2
543.987,849.55
544.53,848.5
545.072,849.8
545.615,848.25
546.157,848.75
546.699,849.25
547.242,848.55
547.784,850.85
548.325,848.9
548.867,849.5
549.409,849.55
549.95,852.25
550.492,848.95
551.033,849.65
551.574,850.0
552.115,851.1
552.656,851.3
553.197,851.25
553.737,853.6
554.278,854.0
554.818,852.8
555.358,854.75
555.899,854.4
556.439,854.95
556.979,855.5
557.518,859.05
558.058,860.9
558.598,862.25
559.137,860.4
559.677,859.65
560.216,858.2
560.755,856.3
561.294,858.1
561.833,858.95
562.372,861.3
562.91,861.4
563.449,866.35
563.987,966.05
564.526,880.55
565.064,878.6
565.602,875.6
566.14,1016.3
566.678,875.0
567.216,867.8
567.754,868.25
568.291,863.6
568.829,866.35
569.366,867.0
569.904,865.8
570.441,872.0
570.978,876.25
571.515,1039.65
572.052,887.0
572.589,873.55
573.125,870.0
573.662,871.5
574.199,877.25
574.735,870.85
575.271,880.0
575.807,924.2
576.344,982.25
576.88,936.3
577.415,908.95
577.951,883.2
578.487,880.4
579.023,881.5
579.558,883.25
580.094,884.1
580.629,884.55
581.164,887.9
581.699,889.0
582.234,893.7
582.769,892.5
583.304,896.1
583.839,898.8
584.374,902.75
584.908,904.8
585.443,911.05
585.977,914.2
586.511,916.9
587.046,921.8
587.58,929.9
588.114,930.5
588.648,933.4
589.182,941.95
589.716,947.5
590.249,950.2
590.783,956.05
591.316,960.45
591.85,965.2
592.383,969.2
592.917,970.1
593.45,974.85
593.983,969.3
594.516,973.15
595.049,971.65
595.582,973.6
596.115,975.85
596.647,972.3
597.18,974.65
597.712,977.0
598.245,979.25
598.777,977.45
599.31,979.9
599.842,979.7
600.374,978.3
600.906,975.2
601.438,975.2
601.97,973.8
602.502,974.3
603.034,976.05
603.565,972.9
604.097,973.9
604.628,967.5
605.16,965.25
605.691,959.05
606.223,959.55
606.754,957.4
607.285,953.85
607.816,955.9
608.347,954.8
608.878,954.45
609.409,950.45
609.94,951.6
610.47,949.2
611.001,951.95
611.532,949.85
612.062,945.75
612.593,944.2
613.123,943.55
613.653,944.8
614.184,943.5
614.714,937.65
615.244,939.85
615.774,938.85
616.304,939.5
616.834,939.05
617.364,940.25
617.894,940.65
618.423,940.15
618.953,940.05
619.482,939.4
620.012,936.2
620.541,940.45
621.071,940.65
621.6,954.7
622.13,972.05
622.659,967.35
623.188,939.85
623.717,938.15
624.246,938.55
624.775,934.65
625.304,939.85
625.833,947.15
626.362,976.65
626.89,1263.6
627.419,1628.25
627.948,1343.9
628.476,1611.35
629.005,1334.7
629.533,1246.35
630.061,1152.95
630.59,1128.35
631.118,1012.6
631.646,957.6
632.175,942.75
632.703,936.2
633.231,935.6
633.759,933.5
634.287,931.2
634.815,928.4
635.342,928.7
635.87,930.65
636.398,930.1
636.926,936.0
637.453,930.75
637.981,932.05
638.509,931.4
639.036,934.55
639.563,933.7
640.091,937.05
640.618,937.6
641.146,938.85
641.673,939.95
642.2,937.55
642.727,941.6
643.254,940.75
643.781,940.05
644.309,942.3
644.836,945.1
645.362,941.8
645.889,939.9
646.416,945.95
646.943,943.3
647.47,945.45
647.997,943.05
648.523,946.3
649.05,944.5
649.577,940.4
650.103,940.55
650.63,941.2
651.156,940.3
651.683,935.85
652.209,939.3
652.735,940.85
653.262,939.0
653.788,940.45
654.314,937.85
654.841,936.6
655.367,937.25
655.893,936.2
656.419,931.5
656.945,933.65
657.471,934.5
657.997,933.65
658.523,934.7
659.049,933.55
659.575,929.6
660.101,930.9
660.627,927.3
661.153,924.3
661.679,923.75
662.205,920.55
662.731,919.85
663.125,917.7

File: VLFR_02-HDPE_bio_Raman_a3d612d3.csv
nm,Intensity
526.547,832.1
527.095,831.55
527.642,833.15
528.189,833.5
528.736,833.15
529.283,833.05
529.829,832.3
530.376,832.55
530.922,832.35
531.468,832.95
532.014,842.8
532.56,832.5
533.106,832.2
533.651,832.6
534.196,876.2
534.742,868.4
535.287,861.3
535.832,855.0
536.376,853.5
536.921,853.65
537.465,851.8
538.01,852.0
538.554,850.8
539.098,848.85
539.642,847.25
540.186,846.3
540.729,845.6
541.273,845.65
541.816,844.85
542.36,845.55
542.903,845.9
543.446,845.6
543.988,845.1
544.531,846.1
545.074,845.85
545.616,846.7
546.158,844.1
546.701,844.95
547.243,845.0
547.785,844.55
548.326,844.6
548.868,843.9
549.41,843.9
549.951,845.2
550.492,845.75
551.034,845.35
551.575,844.75
552.116,845.55
552.656,844.5
553.197,845.2
553.738,846.9
554.278,846.4
554.819,845.1
555.359,847.35
555.899,845.0
556.439,847.45
556.979,847.8
557.519,850.7
558.058,849.55
558.598,853.3
559.137,851.2
559.677,851.5
560.216,849.0
560.755,850.45
561.294,849.5
561.833,851.65
562.371,853.4
562.91,854.8
563.449,857.8
563.987,912.05
564.525,867.25
565.064,862.95
565.602,863.45
566.14,967.15
566.678,863.95
567.216,858.85
567.753,856.9
568.291,857.55
568.828,854.35
569.366,857.8
569.903,858.75
570.44,859.7
570.977,863.2
571.514,952.15
572.051,868.85
572.588,862.3
573.125,859.8
573.661,860.55
574.198,861.75
574.734,858.4
575.271,866.4
575.807,897.75
576.343,909.35
576.879,890.75
577.415,878.0
577.951,864.35
578.486,863.45
579.022,864.1
579.557,864.6
580.093,865.45
580.628,866.2
581.164,865.55
581.699,868.25
582.234,869.05
582.769,870.65
583.304,873.45
583.838,873.15
584.373,873.55
584.908,873.95
585.442,877.5
585.977,879.35
586.511,881.4
587.045,884.45
587.58,886.55
588.114,887.0
588.648,889.1
589.182,892.6
589.715,894.95
590.249,895.5
590.783,896.35
591.316,898.4
591.85,898.9
592.383,900.35
592.917,900.75
593.45,901.2
593.983,900.85
594.516,902.35
595.049,905.0
595.582,905.35
596.115,905.7
596.648,908.55
597.18,906.9
597.713,911.9
598.245,915.15
598.778,917.25
599.31,918.65
599.842,922.35
600.375,919.2
600.907,922.4
601.439,920.25
601.971,924.9
602.503,921.55
603.034,921.45
603.566,920.15
604.098,920.5
604.629,915.85
605.161,914.35
605.692,911.45
606.224,909.1
606.755,903.7
607.286,901.75
607.817,903.4
608.348,900.25
608.879,899.3
609.41,895.4
609.941,896.45
610.472,896.05
611.002,895.7
611.533,894.8
612.063,893.55
612.594,889.95
613.124,889.75
613.655,892.75
614.185,890.25
614.715,886.15
615.245,886.65
615.775,886.15
616.305,885.3
616.835,885.4
617.365,888.3
617.895,885.2
618.425,884.5
618.954,884.65
619.484,884.05
620.013,884.15
620.543,882.55
621.072,882.8
621.602,889.25
622.131,891.0
622.66,888.3
623.189,883.9
623.718,880.5
624.247,880.35
624.776,881.7
625.305,880.55
625.834,882.95
626.363,891.8
626.891,976.2
627.42,1109.4
627.949,1012.5
628.477,1076.3
629.006,1033.3
629.534,999.8
630.062,964.7
630.591,955.7
631.119,909.95
631.647,885.1
632.175,879.05
632.703,874.5
633.231,874.7
633.759,872.55
634.287,872.95
634.815,871.85
635.343,870.65
635.871,872.95
636.398,873.15
636.926,871.4
637.454,872.25
637.981,871.75
638.509,871.9
639.036,871.55
639.564,872.45
640.091,873.0
640.618,873.15
641.146,875.3
641.673,874.4
642.2,872.95
642.727,873.85
643.254,876.15
643.781,875.2
644.308,873.0
644.835,872.9
645.362,874.0
645.889,875.05
646.416,875.55
646.942,875.15
647.469,874.6
647.996,877.2
648.522,877.15
649.049,876.45
649.576,875.25
650.102,876.95
650.629,875.45
651.155,877.0
651.682,875.15
652.208,877.25
652.734,875.85
653.261,878.15
653.787,876.2
654.313,875.75
654.839,877.35
655.365,875.75
655.892,875.1
656.418,875.15
656.944,874.05
657.47,874.5
657.996,873.85
658.522,874.5
659.048,871.2
659.574,873.6
660.099,871.95
660.625,872.0
661.151,870.4
661.677,869.0
662.203,866.2
662.728,864.95
663.123,864.95

File: VLFR_02-HDPE_bio_Raman_a6e1b635.csv
nm,Intensity
528.626,1870.5
529.132,1868.4
529.637,1868.7
530.143,1867.1
530.648,1868.9
531.153,1870.1
531.658,1888.5
532.164,3199.1
532.669,1868.6
533.174,1870.3
533.679,1925.4
534.184,2124.6
534.689,2127.0
535.194,2123.5
535.699,2080.3
536.203,2044.7
536.708,2044.2
537.213,2046.7
537.717,2046.9
538.222,2035.9
538.726,2042.8
539.231,2026.0
539.735,2033.0
540.239,2016.5
540.744,2031.8
541.248,2024.9
541.752,2034.5
542.256,2037.4
542.76,2043.5
543.264,2029.0
543.768,2038.2
544.272,2035.6
544.776,2038.4
545.28,2047.3
545.784,2063.6
546.287,2058.4
546.791,2054.7
547.294,2056.8
547.798,2046.0
548.301,2048.5
548.805,2044.7
549.308,2048.9
549.811,2046.8
550.315,2041.6
550.818,2060.1
551.321,2046.1
551.824,2067.8
552.327,2056.8
552.83,2047.7
553.333,2063.5
553.835,2057.0
554.338,2075.2
554.841,2064.3
555.343,2078.2
555.846,2078.2
556.349,2065.2
556.851,2077.9
557.353,2081.3
557.856,2103.1
558.358,2097.5
558.86,2085.7
559.362,2088.3
559.864,2096.5
560.366,2092.9
560.868,2096.7
561.37,2085.3
561.872,2118.7
562.374,2223.4
562.876,2136.3
563.377,2120.3
563.879,2363.1
564.38,2177.7
564.882,2165.9
565.383,2144.4
565.885,2242.7
566.386,2295.1
566.887,2136.0
567.388,2177.7
567.889,2118.7
568.391,2105.1
568.892,2109.0
569.392,2125.7
569.893,2115.3
570.394,2137.4
570.895,2140.2
571.395,2522.1
571.896,2259.7
572.397,2152.0
572.897,2138.6
573.397,2136.4
573.898,2153.6
574.398,2128.3
574.898,2133.2
575.398,2284.2
575.898,2296.7
576.398,2550.5
576.898,2395.8
577.398,2251.0
577.898,2179.3
578.398,2158.9
578.897,2158.0
579.397,2164.3
579.896,2162.8
580.396,2173.6
580.895,2180.5
581.395,2187.2
581.894,2184.8
582.393,2188.8
582.892,2189.2
583.391,2208.9
583.89,2216.6
584.389,2220.2
584.888,2224.3
585.387,2222.2
585.886,2241.7
586.384,2250.6
586.883,2258.0
587.381,2271.0
587.88,2293.8
588.378,2299.4
588.876,2291.2
589.375,2325.8
589.873,2338.4
590.371,2340.4
590.869,2372.4
591.367,2387.5
591.865,2383.6
592.363,2394.7
592.86,2427.3
593.358,2436.9
593.856,2445.2
594.353,2467.3
594.851,2470.0
595.348,2513.5
595.845,2546.3
596.342,2540.7
596.84,2586.4
597.337,2596.0
597.834,2597.6
598.331,2627.7
598.828,2657.8
599.324,2668.4
599.821,2645.1
600.318,2655.0
600.814,2702.2
601.311,2706.6
601.807,2711.3
602.304,2732.4
602.8,2691.2
603.296,2697.0
603.792,2718.8
604.288,2708.4
604.784,2679.3
605.28,2664.5
605.776,2644.0
606.272,2624.3
606.767,2579.2
607.263,2582.3
607.759,2559.3
608.254,2563.9
608.749,2569.1
609.245,2557.0
609.74,2532.7
610.235,2515.8
610.73,2519.2
611.225,2537.1
611.72,2497.5
612.215,2476.2
612.71,2481.0
613.204,2463.1
613.699,2470.8
614.194,2476.7
614.688,2449.1
615.182,2457.8
615.677,2445.2
616.171,2431.4
616.665,2425.0
617.159,2426.2
617.653,2442.4
618.147,2437.9
618.641,2450.5
619.135,2424.9
619.628,2438.0
620.122,2430.7
620.615,2447.6
621.109,2444.0
621.602,2494.3
622.095,2605.3
622.589,2511.0
623.082,2430.5
623.575,2380.3
624.068,2395.0
624.561,2364.5
625.053,2392.1
625.546,2393.4
626.039,2445.3
626.531,2864.7
627.024,4690.0
627.516,4571.4
628.008,4009.1
628.501,5387.6
628.993,3719.8
629.485,3367.7
629.977,3089.7
630.469,3013.2
630.96,2639.0
631.452,2391.8
631.944,2323.9
632.435,2309.3
632.927,2278.1
633.418,2261.3
633.91,2273.0
634.401,2241.0
634.892,2248.6
635.383,2221.4
635.874,2232.9
636.365,2220.3
636.856,2232.5
637.346,2210.9
637.837,2208.2
638.327,2217.7
638.818,2202.4
639.308,2215.6
639.799,2185.1
640.289,2195.6
640.779,2192.3
641.269,2204.1
641.759,2185.4
642.249,2209.9
642.738,2184.0
643.228,2192.6
643.718,2191.8
644.207,2188.7
644.697,2199.5
645.186,2179.0
645.675,2197.6
646.164,2182.9
646.653,2178.7
647.142,2176.3
647.631,2180.7
648.12,2181.3
648.609,2198.4
649.098,2168.2
649.586,2177.0
650.075,2186.7
650.563,2173.7
651.051,2192.5
651.539,2170.0
652.027,2161.3
652.515,2156.0
653.003,2153.8
653.491,2143.8
653.979,2148.7
654.467,2148.9
654.954,2158.5
655.442,2142.0
655.929,2133.8
656.416,2120.6
656.904,2117.2
657.391,2128.6
657.878,2118.8
658.365,2120.5
658.851,2103.4
659.338,2104.1
659.825,2105.0
660.311,2104.7
660.798,2099.2
661.041,2096.7

File: VLFR_02-HDPE_bio_Raman_a11d4e02.csv
nm,Intensity
528.626,1865.8
529.132,1867.4
529.637,1868.6
530.143,1867.4
530.648,1867.5
531.153,1870.4
531.658,1893.4
532.164,3382.9
532.669,1870.3
533.174,1866.9
533.679,1917.9
534.184,2105.4
534.689,2109.1
535.194,2099.1
535.699,2029.1
536.203,2002.1
536.708,1998.2
537.213,2001.6
537.717,2008.2
538.222,2006.5
538.726,2002.6
539.231,2005.5
539.735,1993.2
540.239,1994.0
540.744,1991.1
541.248,1985.9
541.752,1996.4
542.256,1990.2
542.76,1997.0
543.264,2002.1
543.768,2002.7
544.272,1989.3
544.776,1999.5
545.28,1991.5
545.784,1996.6
546.287,2000.2
546.791,2008.1
547.294,1996.4
547.798,1998.0
548.301,2004.3
548.805,2004.4
549.308,2005.9
549.811,2004.1
550.315,1998.6
550.818,2011.4
551.321,2006.6
551.824,2020.5
552.327,2010.2
552.83,2010.9
553.333,2028.1
553.835,2020.7
554.338,2024.6
554.841,2032.9
555.343,2040.1
555.846,2041.0
556.349,2032.0
556.851,2046.7
557.353,2061.9
557.856,2066.8
558.358,2063.5
558.86,2063.4
559.362,2072.8
559.864,2062.9
560.366,2058.7
560.868,2068.6
561.37,2068.3
561.872,2086.9
562.374,2089.1
562.876,2097.4
563.377,2104.7
563.879,2398.9
564.38,2190.9
564.882,2156.8
565.383,2123.7
565.885,2225.6
566.386,2300.8
566.887,2114.6
567.388,2171.6
567.889,2112.5
568.391,2098.5
568.892,2116.0
569.392,2106.7
569.893,2126.7
570.394,2146.7
570.895,2167.9
571.395,2629.1
571.896,2280.8
572.397,2161.7
572.897,2138.9
573.397,2135.8
573.898,2179.6
574.398,2142.7
574.898,2141.3
575.398,2298.3
575.898,2371.1
576.398,2717.2
576.898,2507.6
577.398,2347.0
577.898,2188.7
578.398,2171.2
578.897,2163.1
579.397,2171.7
579.896,2175.6
580.396,2191.0
580.895,2196.4
581.395,2187.1
581.894,2212.6
582.393,2224.0
582.892,2252.6
583.391,2261.1
583.89,2261.4
584.389,2289.3
584.888,2293.5
585.387,2311.9
585.886,2321.7
586.384,2308.2
586.883,2362.2
587.381,2377.3
587.88,2400.5
588.378,2401.4
588.876,2439.4
589.375,2409.4
589.873,2449.3
590.371,2450.7
590.869,2464.7
591.367,2462.2
591.865,2497.7
592.363,2508.9
592.86,2484.6
593.358,2498.7
593.856,2513.0
594.353,2526.5
594.851,2528.5
595.348,2535.0
595.845,2526.5
596.342,2549.6
596.84,2541.7
597.337,2551.7
597.834,2529.6
598.331,2534.2
598.828,2556.9
599.324,2569.3
599.821,2543.9
600.318,2562.7
600.814,2536.3
601.311,2554.0
601.807,2582.7
602.304,2566.1
602.8,2541.7
603.296,2558.8
603.792,2590.9
604.288,2561.5
604.784,2572.4
605.28,2583.7
605.776,2556.0
606.272,2572.5
606.767,2565.9
607.263,2577.6
607.759,2560.4
608.254,2573.9
608.749,2562.5
609.245,2574.9
609.74,2563.7
610.235,2587.5
610.73,2602.3
611.225,2593.8
611.72,2540.5
612.215,2562.6
612.71,2549.4
613.204,2555.1
613.699,2553.1
614.194,2528.2
614.688,2526.0
615.182,2515.1
615.677,2540.4
616.171,2517.6
616.665,2531.3
617.159,2552.2
617.653,2568.3
618.147,2558.9
618.641,2548.8
619.135,2544.2
619.628,2554.6
620.122,2539.5
620.615,2549.2
621.109,2587.5
621.602,2658.0
622.095,2847.9
622.589,2760.7
623.082,2597.2
623.575,2514.2
624.068,2488.7
624.561,2494.2
625.053,2491.8
625.546,2525.3
626.039,2617.7
626.531,3277.6
627.024,6515.4
627.516,6186.8
628.008,5172.6
628.501,7526.3
628.993,4999.2
629.485,4334.7
629.977,3799.7
630.469,3619.8
630.96,3031.4
631.452,2566.7
631.944,2458.1
632.435,2443.5
632.927,2425.3
633.418,2397.7
633.91,2388.9
634.401,2349.6
634.892,2365.2
635.383,2343.0
635.874,2337.9
636.365,2338.8
636.856,2326.5
637.346,2316.3
637.837,2291.1
638.327,2305.5
638.818,2282.5
639.308,2298.7
639.799,2282.3
640.289,2280.5
640.779,2270.1
641.269,2273.9
641.759,2265.5
642.249,2282.3
642.738,2300.1
643.228,2268.8
643.718,2261.2
644.207,2271.3
644.697,2264.1
645.186,2243.4
645.675,2239.7
646.164,2259.2
646.653,2257.5
647.142,2233.9
647.631,2240.3
648.12,2246.8
648.609,2242.4
649.098,2233.0
649.586,2214.8
650.075,2211.8
650.563,2210.4
651.051,2228.6
651.539,2221.3
652.027,2205.4
652.515,2189.0
653.003,2204.2
653.491,2174.4
653.979,2191.1
654.467,2193.4
654.954,2192.4
655.442,2199.4
655.929,2177.6
656.416,2169.3
656.904,2165.1
657.391,2158.9
657.878,2162.4
658.365,2150.5
658.851,2141.4
659.338,2144.5
659.825,2156.6
660.311,2166.5
660.798,2134.1
661.041,2129.0

File: VLFR_02-HDPE_bio_Raman_a43c1314.csv
nm,Intensity
526.495,829.3
527.042,828.8
527.589,830.8
528.136,829.5
528.682,828.4
529.229,829.1
529.775,827.8
530.321,830.7
530.867,828.7
531.413,828.6
531.959,830.3
532.505,831.0
533.051,827.9
533.596,830.4
534.141,896.1
534.687,883.4
535.232,873.7
535.777,858.0
536.321,855.5
536.866,850.4
537.41,849.0
537.955,851.8
538.499,849.5
539.043,851.0
539.587,847.1
540.131,845.8
540.675,842.2
541.219,841.7
541.762,843.4
542.305,842.7
542.849,842.3
543.392,842.1
543.935,841.7
544.478,841.4
545.02,839.6
545.563,840.8
546.106,841.1
546.648,839.7
547.19,841.0
547.732,841.7
548.274,840.2
548.816,840.5
549.358,838.8
549.9,840.9
550.441,843.4
550.983,840.8
551.524,842.4
552.065,841.8
552.606,843.0
553.147,842.0
553.688,845.2
554.229,843.0
554.769,842.6
555.31,844.9
555.85,844.4
556.391,844.5
556.931,845.4
557.471,847.0
558.011,848.9
558.551,848.9
559.09,845.3
559.63,848.2
560.169,845.0
560.709,846.5
561.248,846.5
561.787,847.4
562.326,846.2
562.865,849.8
563.404,850.5
563.943,910.1
564.481,871.9
565.02,863.0
565.558,858.4
566.096,931.4
566.634,858.7
567.172,854.9
567.71,857.4
568.248,850.8
568.786,849.4
569.324,850.5
569.861,849.3
570.399,854.7
570.936,856.8
571.473,961.3
572.01,876.9
572.547,857.9
573.084,855.4
573.621,852.9
574.158,856.8
574.694,850.7
575.231,855.2
575.767,898.6
576.303,989.0
576.84,927.1
577.376,895.6
577.912,861.9
578.448,856.9
578.984,855.0
579.519,855.5
580.055,853.7
580.59,854.9
581.126,854.1
581.661,856.7
582.196,856.8
582.731,857.7
583.267,860.9
583.801,858.5
584.336,861.8
584.871,861.2
585.406,864.0
585.94,866.5
586.475,865.8
587.009,866.4
587.543,870.1
588.078,874.3
588.612,875.0
589.146,877.0
589.68,877.5
590.214,884.4
590.747,885.8
591.281,886.1
591.815,886.8
592.348,887.0
592.881,888.3
593.415,886.6
593.948,889.9
594.481,888.0
595.014,892.2
595.547,891.2
596.08,891.8
596.613,888.4
597.146,894.5
597.678,893.2
598.211,896.6
598.743,893.9
599.276,893.6
599.808,897.7
600.34,891.7
600.872,891.6
601.404,895.7
601.936,893.5
602.468,891.9
603.0,889.0
603.532,886.5
604.064,889.7
604.595,888.3
605.127,883.0
605.658,885.2
606.189,880.0
606.721,876.8
607.252,873.9
607.783,876.6
608.314,874.5
608.845,873.2
609.376,873.9
609.907,871.2
610.438,874.3
610.968,873.3
611.499,873.5
612.029,872.9
612.56,870.3
613.09,870.4
613.621,869.7
614.151,870.6
614.681,871.7
615.211,870.2
615.741,868.9
616.271,871.6
616.801,872.2
617.331,878.6
617.861,879.6
618.39,878.0
618.92,877.0
619.45,877.5
619.979,880.2
620.509,881.6
621.038,884.8
621.567,896.3
622.096,921.4
622.626,916.0
623.155,889.6
623.684,884.4
624.213,883.5
624.742,882.3
625.271,889.2
625.799,892.2
626.328,922.7
626.857,1170.4
627.386,1598.0
627.914,1289.2
628.443,1543.2
628.971,1378.3
629.5,1244.6
630.028,1128.5
630.556,1103.0
631.084,977.3
631.613,912.3
632.141,894.5
632.669,890.3
633.197,887.5
633.725,879.1
634.253,879.9
634.781,878.6
635.308,876.3
635.836,875.6
636.364,880.3
636.891,876.5
637.419,875.9
637.947,876.6
638.474,874.7
639.002,877.2
639.529,874.0
640.056,875.8
640.584,874.0
641.111,878.2
641.638,875.5
642.165,878.9
642.692,879.6
643.219,874.9
643.746,878.0
644.273,877.8
644.8,878.0
645.327,878.6
645.854,880.4
646.381,879.4
646.908,880.9
647.434,876.5
647.961,879.2
648.488,874.8
649.014,875.8
649.541,877.1
650.067,874.2
650.594,878.3
651.12,873.6
651.646,875.2
652.173,873.5
652.699,875.3
653.225,872.3
653.752,874.4
654.278,876.3
654.804,874.6
655.33,873.6
655.856,873.5
656.382,870.0
656.908,871.6
657.434,870.8
657.96,870.0
658.486,869.5
659.012,868.2
659.538,868.5
660.064,867.7
660.589,867.0
661.115,863.5
661.641,864.7
662.166,860.4
662.692,861.5
663.086,862.8

File: VLFR_02-HDPE_bio_Raman_a59dab61.csv
nm,Intensity
526.547,832.35
527.095,832.85
527.642,832.75
528.189,832.85
528.736,832.75
529.283,833.1
529.829,833.35
530.376,831.9
530.922,832.85
531.468,833.1
532.014,835.85
532.56,832.1
533.106,832.9
533.651,833.55
534.196,904.2
534.742,899.55
535.287,891.9
535.832,869.0
536.376,861.1
536.921,860.0
537.465,859.0
538.01,856.9
538.554,857.05
539.098,852.95
539.642,852.1
540.186,850.9
540.729,848.6
541.273,848.95
541.816,849.9
542.36,848.9
542.903,848.85
543.446,848.15
543.988,850.1
544.531,848.1
545.074,848.95
545.616,847.6
546.158,849.25
546.701,849.35
547.243,848.3
547.785,848.6
548.326,849.75
548.868,849.9
549.41,848.75
549.951,848.35
550.492,848.65
551.034,848.5
551.575,849.3
552.116,849.2
552.656,849.15
553.197,850.4
553.738,852.6
554.278,854.0
554.819,854.1
555.359,853.65
555.899,856.05
556.439,855.75
556.979,858.3
557.519,860.5
558.058,860.05
558.598,859.7
559.137,857.35
559.677,858.35
560.216,857.65
560.755,855.9
561.294,857.5
561.833,858.75
562.371,859.3
562.91,863.1
563.449,865.0
563.987,977.5
564.525,885.0
565.064,876.15
565.602,871.9
566.14,961.7
566.678,868.25
567.216,867.2
567.753,870.25
568.291,861.7
568.828,863.9
569.366,864.05
569.903,863.2
570.44,868.15
570.977,873.2
571.514,1083.95
572.051,890.95
572.588,870.2
573.125,864.6
573.661,864.8
574.198,872.75
574.734,862.75
575.271,866.8
575.807,904.55
576.343,1071.15
576.879,968.85
577.415,928.6
577.951,876.35
578.486,868.25
579.022,866.4
579.557,865.95
580.093,864.35
580.628,863.05
581.164,864.2
581.699,864.65
582.234,865.55
582.769,864.65
583.304,864.6
583.838,863.35
584.373,864.9
584.908,863.95
585.442,865.8
585.977,865.65
586.511,866.7
587.045,865.65
587.58,866.6
588.114,867.0
588.648,867.8
589.182,869.2
589.715,868.7
590.249,867.35
590.783,869.3
591.316,869.6
591.85,870.2
592.383,870.8
592.917,869.95
593.45,871.85
593.983,873.5
594.516,874.7
595.049,874.45
595.582,875.35
596.115,876.25
596.648,878.55
597.18,880.5
597.713,879.25
598.245,881.35
598.778,882.8
599.31,884.8
599.842,882.15
600.375,885.65
600.907,884.7
601.439,884.4
601.971,889.1
602.503,886.1
603.034,883.85
603.566,884.95
604.098,885.2
604.629,884.5
605.161,880.25
605.692,881.15
606.224,877.85
606.755,878.0
607.286,875.75
607.817,875.3
608.348,875.5
608.879,876.15
609.41,875.05
609.941,874.95
610.472,873.6
611.002,874.75
611.533,877.6
612.063,873.05
612.594,873.6
613.124,875.8
613.655,873.8
614.185,873.55
614.715,873.8
615.245,875.2
615.775,874.6
616.305,879.2
616.835,881.4
617.365,889.15
617.895,889.65
618.425,888.5
618.954,884.6
619.484,892.45
620.013,895.7
620.543,894.5
621.072,905.35
621.602,928.1
622.131,973.75
622.66,961.6
623.189,909.25
623.718,898.65
624.247,896.05
624.776,895.4
625.305,903.15
625.834,914.65
626.363,972.55
626.891,1493.05
627.42,2042.0
627.949,1555.55
628.477,2112.55
629.006,1602.0
629.534,1414.8
630.062,1238.65
630.591,1198.65
631.119,1009.75
631.647,920.75
632.175,903.0
632.703,896.05
633.231,890.7
633.759,886.45
634.287,881.1
634.815,876.4
635.343,876.05
635.871,873.1
636.398,872.15
636.926,870.7
637.454,866.9
637.981,866.1
638.509,864.55
639.036,865.2
639.564,864.7
640.091,865.1
640.618,863.15
641.146,864.3
641.673,865.8
642.2,861.85
642.727,862.6
643.254,861.5
643.781,862.55
644.308,862.45
644.835,861.8
645.362,860.65
645.889,861.4
646.416,859.75
646.942,859.9
647.469,861.0
647.996,861.4
648.522,862.35
649.049,860.85
649.576,861.75
650.102,861.3
650.629,860.95
651.155,862.15
651.682,861.7
652.208,862.6
652.734,862.5
653.261,861.8
653.787,861.7
654.313,859.75
654.839,862.85
655.365,861.3
655.892,861.15
656.418,862.15
656.944,860.35
657.47,863.05
657.996,860.75
658.522,860.4
659.048,860.2
659.574,861.0
660.099,864.25
660.625,859.35
661.151,858.6
661.677,859.15
662.203,858.05
662.728,856.0
663.123,856.55