Folder: MPX_specDB/spectra (part 18)

File: VLFR_01-LDPE_nobio_Raman_1fb2f857.csv
cm-1,Intensity
-123.878,1855.05
-105.821,1854.65
-87.8007,1855.25
-69.8161,1855.2
-51.8675,1856.15
-33.9547,1857.55
-16.0776,1874.6
1.76388,2719.7
19.5698,1858.4
37.3403,1860.05
55.0755,2219.45
72.7754,3342.15
90.4402,3452.9
108.07,3530.55
125.665,3629.9
143.225,3608.8
160.75,3586.0
178.241,3672.3
195.697,3767.85
213.119,3776.85
230.506,3760.55
247.859,3851.15
265.178,3906.5
282.463,3953.7
299.713,3922.4
316.93,3963.75
334.113,3990.25
351.263,4058.65
368.379,4141.35
385.461,4142.8
402.51,4216.4
419.526,4234.05
436.508,4251.25
453.458,4178.2
470.374,4385.0
487.257,4388.0
504.107,4470.25
520.925,4310.4
537.71,4447.55
554.462,4531.55
571.182,4553.25
587.87,4526.7
604.525,4583.25
621.148,4536.15
637.739,4622.55
654.297,4692.65
670.824,4760.4
687.319,4800.0
703.782,4702.15
720.213,4833.2
736.613,4920.7
752.981,4910.3
769.317,4938.15
785.623,4946.8
801.897,4939.0
818.139,5076.75
834.351,5040.85
850.532,5092.0
866.681,5162.85
882.8,5227.0
898.888,5132.8
914.945,5255.9
930.972,5329.5
946.968,5248.1
962.934,5379.4
978.869,5435.1
994.774,5473.5
1010.65,5422.9
1026.49,5523.55
1042.31,5562.3
1058.09,5583.9
1073.85,5619.95
1089.57,5695.0
1105.27,5684.05
1120.93,5684.6
1136.57,5773.15
1152.18,5740.2
1167.75,5851.45
1183.3,5874.15
1198.82,5902.4
1214.31,5891.5
1229.77,5979.5
1245.2,6025.45
1260.6,6184.25
1275.97,6049.75
1291.32,6049.0
1306.63,6331.25
1321.92,6395.7
1337.18,6385.75
1352.41,6307.5
1367.61,6287.8
1382.78,6270.5
1397.93,6365.25
1413.05,6348.65
1428.14,6307.9
1443.2,6380.55
1458.23,6346.4
1473.23,6352.95
1488.21,6421.6
1503.16,6333.6
1518.08,6410.6
1532.97,6528.45
1547.84,6671.75
1562.68,6605.4
1577.49,6749.6
1592.27,6621.2
1607.03,6646.85
1621.76,6568.6
1636.46,6530.15
1651.14,6501.25
1665.78,6463.2
1680.41,6413.35
1695.0,6485.55
1709.57,6392.55
1724.11,6353.35
1738.62,6348.55
1753.11,6447.9
1767.57,6497.85
1782.01,6642.3
1796.41,6495.65
1810.8,6450.6
1825.15,6400.75
1839.48,6483.3
1853.79,6440.1
1868.06,6523.9
1882.31,6594.3
1896.54,6496.2
1910.74,6598.7
1924.91,6598.9
1939.06,6654.35
1953.19,6658.05
1967.28,6466.9
1981.35,6559.8
1995.4,6711.1
2009.42,6872.15
2023.42,6905.25
2037.39,6656.7
2051.33,6730.1
2065.25,6574.85
2079.15,6750.8
2093.01,6795.45
2106.86,6774.9
2120.68,6641.75
2134.47,6848.05
2148.24,6765.75
2161.99,6776.05
2175.71,6768.55
2189.41,6865.45
2203.08,6899.75
2216.73,6755.7
2230.35,6660.55
2243.95,6718.95
2257.52,6719.55
2271.07,6733.75
2284.6,6770.3
2298.1,6896.05
2311.58,6862.35
2325.03,6734.7
2338.46,6734.5
2351.87,6783.3
2365.25,6769.7
2378.61,6893.25
2391.94,6711.65
2405.26,6822.25
2418.54,6663.5
2431.81,6955.3
2445.05,6937.3
2458.27,6671.75
2471.46,6857.25
2484.63,6733.35
2497.78,6928.8
2510.9,6840.15
2524.0,6834.2
2537.08,6818.3
2550.14,6994.25
2563.17,6841.15
2576.18,6803.45
2589.17,6721.9
2602.13,6952.45
2615.07,6920.35
2627.99,6723.15
2640.89,7054.6
2653.76,6808.85
2666.61,6762.05
2679.44,6860.4
2692.25,6701.5
2705.03,6766.2
2717.79,6921.0
2730.53,6820.9
2743.25,6815.05
2755.94,6759.95
2768.61,6697.35
2781.27,6819.1
2793.89,6881.4
2806.5,6700.65
2819.09,6899.6
2831.65,6713.25
2844.19,6985.95
2856.71,7113.3
2869.21,6773.35
2881.69,6894.35
2894.14,6952.6
2906.58,6842.7
2918.99,6748.25
2931.38,6786.05
2943.75,6675.55
2956.1,6700.5
2968.42,6572.85
2980.73,6696.1
2993.01,6672.9
3005.28,6612.25
3017.52,6568.5
3029.74,6563.65
3041.94,6735.7
3054.12,6340.5
3066.28,6490.95
3078.42,6487.9
3090.54,6595.15
3102.63,6400.9
3114.71,6517.95
3126.77,6382.3
3138.8,6425.75
3150.82,6475.95
3162.81,6462.35
3174.78,6422.65
3186.74,6292.25
3198.67,6441.4
3210.58,6396.95
3222.47,6187.65
3234.35,6229.95
3246.2,6063.15
3258.03,6231.7
3269.84,6165.2
3281.64,6188.8
3293.41,5960.8
3305.16,6183.35
3316.89,5959.6
3328.61,5897.1
3340.3,5827.0
3351.97,5953.35
3363.63,5919.7
3375.26,5975.95
3386.88,5788.05
3398.47,5898.65
3410.05,5784.3
3421.6,5747.8
3433.14,5779.55
3444.66,5829.65
3456.15,5684.5
3467.63,5668.95
3479.09,5593.0
3490.53,5554.2
3501.96,5419.0
3513.36,5515.35
3524.74,5509.8
3536.11,5400.15
3547.45,5461.9
3558.78,5201.75
3570.09,5368.35
3581.37,5349.55
3592.64,5009.9
3603.9,5132.3
3615.13,5207.4
3626.34,5180.15
3637.54,5255.65
3648.72,5040.05
3659.87,4803.0
3665.45,5052.6

File: VLFR_01-LDPE_nobio_Raman_01fce804.csv
nm,Intensity
526.508,830.5
527.055,830.3
527.602,830.0
528.149,830.7
528.695,830.05
529.241,831.25
529.787,829.55
530.334,830.55
530.879,829.75
531.425,830.0
531.971,831.7
532.516,832.0
533.062,830.8
533.607,831.3
534.152,897.6
534.697,886.8
535.242,873.75
535.786,863.45
536.331,857.4
536.876,855.2
537.42,853.55
537.964,852.15
538.508,849.45
539.052,846.85
539.596,845.9
540.14,844.55
540.683,845.0
541.227,844.15
541.77,842.6
542.313,844.3
542.856,842.55
543.399,841.8
543.942,843.75
544.485,841.1
545.027,840.8
545.57,843.5
546.112,841.5
546.654,840.4
547.196,840.85
547.738,840.65
548.28,841.8
548.822,840.6
549.363,840.6
549.905,840.9
550.446,839.75
550.988,839.8
551.529,840.35
552.07,841.05
552.611,840.5
553.152,842.8
553.692,844.55
554.233,844.25
554.773,845.5
555.314,845.1
555.854,848.1
556.394,850.4
556.934,851.7
557.474,853.0
558.014,855.45
558.553,856.3
559.093,853.5
559.632,852.15
560.172,852.6
560.711,853.8
561.25,853.85
561.789,854.75
562.328,857.25
562.867,859.55
563.406,866.35
563.944,912.7
564.483,882.45
565.021,879.75
565.559,874.55
566.098,926.75
566.636,880.85
567.174,876.35
567.711,879.65
568.249,876.35
568.787,879.75
569.324,883.25
569.862,887.15
570.399,893.3
570.936,903.2
571.474,987.85
572.011,935.6
572.548,921.3
573.084,920.9
573.621,929.05
574.158,945.6
574.694,944.9
575.231,960.3
575.767,1005.75
576.303,1119.5
576.84,1079.1
577.376,1069.9
577.912,1056.05
578.447,1077.3
578.983,1096.7
579.519,1127.05
580.054,1156.25
580.59,1182.3
581.125,1210.05
581.661,1241.8
582.196,1267.5
582.731,1305.55
583.266,1330.0
583.801,1355.15
584.336,1387.45
584.87,1412.05
585.405,1450.9
585.94,1476.55
586.474,1520.2
587.008,1549.3
587.543,1591.4
588.077,1622.75
588.611,1671.05
589.145,1703.45
589.679,1738.05
590.213,1784.55
590.747,1830.5
591.28,1855.8
591.814,1888.45
592.347,1915.5
592.881,1929.45
593.414,1941.25
593.947,1970.15
594.48,1994.45
595.014,2013.55
595.547,2040.05
596.079,2062.55
596.612,2096.15
597.145,2135.0
597.678,2159.45
598.21,2197.5
598.743,2243.7
599.275,2248.7
599.807,2277.25
600.34,2273.6
600.872,2261.9
601.404,2259.05
601.936,2245.2
602.468,2227.05
603.0,2190.8
603.532,2154.55
604.063,2101.8
604.595,2046.55
605.126,1991.4
605.658,1919.65
606.189,1876.1
606.721,1831.65
607.252,1792.5
607.783,1757.75
608.314,1726.2
608.845,1697.8
609.376,1662.65
609.907,1634.75
610.438,1614.2
610.968,1583.25
611.499,1568.95
612.03,1551.8
612.56,1532.65
613.091,1529.65
613.621,1513.95
614.151,1496.6
614.681,1476.9
615.212,1458.8
615.742,1437.8
616.272,1427.45
616.802,1416.95
617.332,1411.35
617.861,1398.9
618.391,1386.3
618.921,1375.15
619.45,1364.3
619.98,1356.45
620.509,1347.05
621.039,1338.4
621.568,1347.8
622.097,1365.5
622.627,1361.2
623.156,1330.35
623.685,1319.3
624.214,1318.6
624.743,1313.65
625.272,1317.65
625.801,1317.05
626.33,1342.5
626.858,1582.3
627.387,2052.1
627.916,1744.65
628.444,1990.35
628.973,1809.6
629.501,1698.55
630.029,1595.25
630.558,1579.0
631.086,1445.65
631.614,1380.6
632.142,1356.0
632.67,1346.8
633.198,1349.55
633.726,1350.25
634.254,1356.0
634.782,1358.05
635.31,1372.4
635.838,1373.0
636.365,1379.1
636.893,1388.45
637.421,1386.95
637.948,1400.65
638.476,1407.15
639.003,1422.8
639.531,1422.4
640.058,1437.65
640.585,1442.95
641.113,1446.55
641.64,1458.45
642.167,1474.9
642.694,1477.7
643.221,1480.8
643.748,1483.3
644.275,1486.3
644.802,1489.1
645.329,1498.8
645.856,1501.5
646.382,1503.05
646.909,1509.6
647.436,1511.1
647.962,1510.75
648.489,1510.9
649.016,1507.95
649.542,1503.35
650.069,1499.9
650.595,1499.55
651.121,1508.1
651.648,1504.45
652.174,1508.1
652.7,1502.15
653.227,1504.2
653.753,1511.2
654.279,1504.05
654.805,1503.0
655.331,1494.8
655.857,1478.65
656.383,1475.45
656.909,1464.9
657.435,1453.45
657.961,1436.0
658.487,1426.65
659.013,1405.55
659.538,1391.65
660.064,1377.55
660.59,1349.7
661.116,1322.1
661.641,1308.15
662.167,1288.4
662.692,1276.1
663.087,1258.15

File: VLFR_01-LDPE_nobio_Raman_2a3a922f.csv
nm,Intensity
526.5,827.5
527.047,826.4
527.594,825.4
528.14,826.0
528.687,827.3
529.233,827.4
529.779,828.7
530.325,826.1
530.871,826.7
531.417,826.7
531.962,829.9
532.508,827.7
533.053,826.4
533.599,828.2
534.144,890.7
534.689,881.0
535.234,870.9
535.778,864.3
536.323,858.3
536.867,857.5
537.412,856.2
537.956,857.9
538.5,856.6
539.044,858.7
539.588,854.3
540.132,850.7
540.675,849.3
541.219,849.6
541.762,848.0
542.305,849.7
542.848,850.8
543.391,849.2
543.934,848.4
544.477,845.7
545.02,846.7
545.562,846.1
546.105,846.3
546.647,845.4
547.189,845.5
547.731,845.0
548.273,847.5
548.815,844.8
549.356,844.4
549.898,846.3
550.439,845.2
550.981,846.6
551.522,847.6
552.063,847.3
552.604,848.2
553.145,846.7
553.686,846.9
554.226,844.8
554.767,846.7
555.307,846.4
555.848,846.5
556.388,848.5
556.928,849.6
557.468,849.9
558.008,850.8
558.547,851.1
559.087,850.5
559.626,851.2
560.166,849.4
560.705,849.0
561.244,848.4
561.783,849.7
562.322,848.2
562.861,852.7
563.4,854.9
563.939,887.4
564.477,867.5
565.015,866.4
565.554,861.1
566.092,891.1
566.63,861.0
567.168,856.5
567.706,858.1
568.244,855.9
568.781,859.4
569.319,856.7
569.857,860.8
570.394,864.8
570.931,868.5
571.468,919.8
572.005,887.7
572.542,872.0
573.079,871.3
573.616,867.7
574.153,875.7
574.689,873.4
575.226,874.4
575.762,899.5
576.298,968.0
576.834,937.8
577.371,916.3
577.907,897.5
578.442,898.0
578.978,903.1
579.514,908.1
580.049,912.5
580.585,916.7
581.12,925.8
581.656,927.7
582.191,936.2
582.726,944.3
583.261,954.2
583.796,959.1
584.331,967.3
584.865,974.5
585.4,986.9
585.935,998.4
586.469,1009.2
587.004,1023.9
587.538,1035.2
588.072,1050.3
588.606,1057.0
589.14,1073.2
589.674,1085.3
590.208,1091.1
590.742,1104.0
591.275,1110.4
591.809,1120.2
592.342,1118.0
592.876,1129.8
593.409,1129.4
593.942,1133.5
594.476,1146.1
595.009,1156.0
595.542,1163.3
596.075,1169.8
596.607,1187.0
597.14,1205.2
597.673,1216.5
598.205,1224.3
598.738,1235.3
599.27,1255.7
599.803,1258.8
600.335,1257.3
600.867,1271.8
601.399,1266.3
601.931,1257.3
602.463,1253.5
602.995,1246.8
603.527,1230.9
604.058,1221.2
604.59,1206.9
605.122,1185.1
605.653,1171.9
606.184,1148.3
606.716,1129.4
607.247,1116.2
607.778,1110.1
608.309,1097.4
608.84,1092.8
609.371,1080.6
609.902,1067.4
610.433,1067.3
610.964,1062.2
611.494,1054.9
612.025,1049.9
612.556,1046.0
613.086,1045.8
613.616,1036.4
614.147,1036.1
614.677,1025.6
615.207,1024.3
615.737,1026.0
616.267,1016.0
616.797,1014.5
617.327,1016.6
617.857,1006.3
618.387,1003.7
618.917,1000.2
619.446,1003.5
619.976,999.0
620.505,998.7
621.035,1004.3
621.564,1008.4
622.093,1024.6
622.623,1020.0
623.152,997.8
623.681,988.3
624.21,990.3
624.739,989.7
625.268,990.3
625.797,998.0
626.326,1016.0
626.855,1191.2
627.383,1561.3
627.912,1327.7
628.441,1493.1
628.969,1371.8
629.498,1293.9
630.026,1201.4
630.554,1189.7
631.083,1084.2
631.611,1026.1
632.139,1001.8
632.667,1000.3
633.195,998.7
633.724,993.8
634.252,993.1
634.779,993.4
635.307,996.6
635.835,990.9
636.363,999.7
636.891,1000.3
637.418,1000.4
637.946,1003.6
638.474,1005.5
639.001,1009.5
639.529,1009.8
640.056,1018.3
640.583,1024.6
641.111,1016.6
641.638,1026.4
642.165,1024.3
642.692,1030.9
643.22,1026.1
643.747,1030.2
644.274,1031.9
644.801,1022.9
645.328,1031.7
645.854,1033.3
646.381,1034.2
646.908,1033.9
647.435,1032.8
647.962,1036.2
648.488,1031.6
649.015,1035.3
649.542,1028.3
650.068,1034.9
650.595,1033.2
651.121,1031.0
651.648,1036.3
652.174,1033.5
652.7,1039.3
653.227,1036.4
653.753,1036.9
654.279,1041.0
654.805,1037.3
655.331,1035.7
655.858,1037.9
656.384,1034.2
656.91,1033.7
657.436,1027.2
657.962,1019.3
658.488,1017.0
659.013,1011.6
659.539,1005.4
660.065,1005.1
660.591,995.3
661.117,990.4
661.642,981.7
662.168,973.3
662.694,968.1
663.088,965.9

File: VLFR_01-LDPE_nobio_Raman_2d5b0677.csv
cm-1,Intensity
-123.878,1853.15
-105.821,1852.4
-87.8007,1853.1
-69.8161,1852.6
-51.8675,1853.35
-33.9547,1854.5
-16.0776,1872.25
1.76388,3338.0
19.5698,1854.0
37.3403,1854.65
55.0755,1946.3
72.7754,2172.25
90.4402,2153.7
108.07,2138.6
125.665,2123.6
143.225,2111.5
160.75,2103.2
178.241,2106.45
195.697,2116.3
213.119,2117.9
230.506,2126.25
247.859,2157.25
265.178,2109.1
282.463,2090.8
299.713,2083.6
316.93,2088.4
334.113,2082.95
351.263,2085.9
368.379,2091.5
385.461,2093.6
402.51,2078.55
419.526,2083.75
436.508,2077.2
453.458,2073.1
470.374,2080.35
487.257,2072.9
504.107,2084.1
520.925,2087.6
537.71,2074.9
554.462,2083.05
571.182,2079.7
587.87,2084.3
604.525,2077.9
621.148,2084.75
637.739,2092.5
654.297,2098.45
670.824,2097.35
687.319,2090.7
703.782,2078.45
720.213,2086.05
736.613,2091.2
752.981,2087.7
769.317,2096.9
785.623,2093.45
801.897,2105.1
818.139,2111.55
834.351,2098.9
850.532,2106.8
866.681,2123.2
882.8,2130.3
898.888,2127.45
914.945,2116.55
930.972,2108.7
946.968,2125.05
962.934,2122.45
978.869,2126.0
994.774,2130.85
1010.65,2136.2
1026.49,2159.45
1042.31,2177.45
1058.09,2350.65
1073.85,2244.55
1089.57,2229.9
1105.27,2184.3
1120.93,2320.1
1136.57,2284.75
1152.18,2188.8
1167.75,2195.8
1183.3,2188.2
1198.82,2174.75
1214.31,2186.65
1229.77,2178.7
1245.2,2208.5
1260.6,2229.85
1275.97,2258.75
1291.32,2598.7
1306.63,2403.45
1321.92,2300.6
1337.18,2252.1
1352.41,2240.45
1367.61,2267.55
1382.78,2225.65
1397.93,2226.65
1413.05,2345.7
1428.14,2468.85
1443.2,2662.1
1458.23,2521.75
1473.23,2354.55
1488.21,2272.5
1503.16,2248.7
1518.08,2240.65
1532.97,2252.65
1547.84,2246.6
1562.68,2251.6
1577.49,2253.85
1592.27,2274.15
1607.03,2278.75
1621.76,2284.6
1636.46,2269.4
1651.14,2289.25
1665.78,2308.75
1680.41,2296.95
1695.0,2309.5
1709.57,2317.65
1724.11,2319.5
1738.62,2361.3
1753.11,2374.05
1767.57,2381.0
1782.01,2399.2
1796.41,2434.45
1810.8,2442.6
1825.15,2446.3
1839.48,2475.1
1853.79,2510.5
1868.06,2539.45
1882.31,2551.0
1896.54,2545.75
1910.74,2593.85
1924.91,2580.4
1939.06,2579.55
1953.19,2623.75
1967.28,2630.55
1981.35,2652.95
1995.4,2673.8
2009.42,2696.1
2023.42,2770.7
2037.39,2733.15
2051.33,2753.85
2065.25,2777.15
2079.15,2809.05
2093.01,2823.35
2106.86,2870.55
2120.68,2887.25
2134.47,2881.65
2148.24,2903.45
2161.99,2898.3
2175.71,2894.85
2189.41,2900.85
2203.08,2870.95
2216.73,2826.4
2230.35,2807.6
2243.95,2806.05
2257.52,2771.35
2271.07,2758.45
2284.6,2722.05
2298.1,2684.0
2311.58,2647.2
2325.03,2625.6
2338.46,2613.8
2351.87,2593.9
2365.25,2589.4
2378.61,2539.4
2391.94,2554.9
2405.26,2541.95
2418.54,2536.85
2431.81,2534.75
2445.05,2509.75
2458.27,2501.45
2471.46,2497.6
2484.63,2478.7
2497.78,2463.1
2510.9,2461.7
2524.0,2449.8
2537.08,2435.35
2550.14,2435.7
2563.17,2442.85
2576.18,2408.0
2589.17,2435.65
2602.13,2438.9
2615.07,2435.15
2627.99,2411.25
2640.89,2428.4
2653.76,2424.9
2666.61,2421.8
2679.44,2425.95
2692.25,2443.95
2705.03,2504.95
2717.79,2563.2
2730.53,2527.55
2743.25,2433.6
2755.94,2383.7
2768.61,2379.15
2781.27,2384.4
2793.89,2381.8
2806.5,2422.95
2819.09,2471.8
2831.65,2870.9
2844.19,4908.5
2856.71,4842.8
2869.21,4231.7
2881.69,5454.55
2894.14,4366.25
2906.58,4028.5
2918.99,3615.05
2931.38,3474.3
2943.75,2938.7
2956.1,2567.2
2968.42,2446.65
2980.73,2354.5
2993.01,2336.35
3005.28,2322.45
3017.52,2314.6
3029.74,2293.4
3041.94,2309.6
3054.12,2270.3
3066.28,2268.7
3078.42,2281.9
3090.54,2279.4
3102.63,2254.2
3114.71,2267.7
3126.77,2275.7
3138.8,2266.35
3150.82,2260.0
3162.81,2287.85
3174.78,2274.85
3186.74,2254.95
3198.67,2293.8
3210.58,2274.5
3222.47,2303.05
3234.35,2305.1
3246.2,2301.35
3258.03,2313.65
3269.84,2298.5
3281.64,2312.9
3293.41,2299.85
3305.16,2301.4
3316.89,2297.5
3328.61,2303.95
3340.3,2299.7
3351.97,2313.95
3363.63,2327.0
3375.26,2300.0
3386.88,2320.35
3398.47,2306.8
3410.05,2299.75
3421.6,2320.35
3433.14,2301.6
3444.66,2317.1
3456.15,2317.2
3467.63,2295.2
3479.09,2319.05
3490.53,2292.25
3501.96,2298.3
3513.36,2291.25
3524.74,2299.05
3536.11,2267.95
3547.45,2288.9
3558.78,2247.95
3570.09,2240.95
3581.37,2262.8
3592.64,2240.6
3603.9,2224.85
3615.13,2219.15
3626.34,2181.1
3637.54,2190.3
3648.72,2182.25
3659.87,2176.85
3665.45,2161.85

File: VLFR_01-LDPE_nobio_Raman_2f8903da.csv
nm,Intensity
526.532,830.3
527.079,830.167
527.625,830.367
528.172,829.7
528.718,830.1
529.265,829.9
529.811,829.233
530.357,830.0
530.903,831.033
531.449,830.767
531.994,839.633
532.54,830.5
533.085,830.067
533.63,831.433
534.176,919.2
534.721,901.033
535.266,884.333
535.81,871.433
536.355,866.367
536.9,860.2
537.444,859.2
537.988,858.9
538.533,855.633
539.077,852.867
539.621,849.467
540.165,847.733
540.708,846.567
541.252,846.733
541.795,845.0
542.339,844.867
542.882,845.5
543.425,843.8
543.968,845.033
544.511,844.0
545.054,842.867
545.597,843.967
546.139,842.767
546.682,842.967
547.224,842.733
547.766,841.767
548.308,842.3
548.85,841.867
549.392,841.033
549.934,840.433
550.475,840.733
551.017,842.167
551.558,839.833
552.1,841.133
552.641,841.2
553.182,843.5
553.723,846.433
554.264,846.033
554.804,846.033
555.345,847.533
555.885,848.9
556.426,851.233
556.966,853.633
557.506,857.067
558.046,861.133
558.586,862.5
559.126,856.533
559.665,855.8
560.205,854.633
560.745,852.7
561.284,854.133
561.823,856.3
562.362,859.767
562.901,864.7
563.44,870.667
563.979,961.567
564.518,897.067
565.056,886.4
565.595,881.467
566.133,1010.1
566.671,886.1
567.21,874.7
567.748,874.933
568.285,870.9
568.823,871.7
569.361,876.2
569.899,879.167
570.436,887.6
570.974,898.167
571.511,1070.8
572.048,937.9
572.585,911.767
573.122,904.867
573.659,911.7
574.196,925.0
574.733,921.7
575.269,937.533
575.806,1007.9
576.342,1113.47
576.878,1066.53
577.414,1033.37
577.951,1016.63
578.486,1029.17
579.022,1051.27
579.558,1073.9
580.094,1094.6
580.629,1122.2
581.165,1141.23
581.7,1165.97
582.236,1185.77
582.771,1210.93
583.306,1228.73
583.841,1242.33
584.376,1251.73
584.911,1255.3
585.445,1259.8
585.98,1265.57
586.514,1269.3
587.049,1268.2
587.583,1273.3
588.117,1272.23
588.651,1268.6
589.186,1263.6
589.72,1263.0
590.253,1262.23
590.787,1264.07
591.321,1264.7
591.854,1261.03
592.388,1258.33
592.921,1253.7
593.455,1247.5
593.988,1241.4
594.521,1246.17
595.054,1245.83
595.587,1244.37
596.12,1245.87
596.653,1245.37
597.186,1249.97
597.718,1254.9
598.251,1257.8
598.783,1270.07
599.316,1273.5
599.848,1268.47
600.38,1273.27
600.912,1272.8
601.444,1262.83
601.976,1265.2
602.508,1256.73
603.04,1247.63
603.572,1235.37
604.103,1222.37
604.635,1210.4
605.167,1190.97
605.698,1173.37
606.229,1158.93
606.761,1149.33
607.292,1135.3
607.823,1124.33
608.354,1120.37
608.885,1105.83
609.416,1096.27
609.947,1090.63
610.477,1082.6
611.008,1075.4
611.539,1070.93
612.069,1061.4
612.6,1061.37
613.13,1053.9
613.66,1049.47
614.19,1048.3
614.721,1042.43
615.251,1037.63
615.781,1031.47
616.311,1026.77
616.841,1028.03
617.37,1027.63
617.9,1027.87
618.43,1024.57
618.96,1021.8
619.489,1022.1
620.019,1026.13
620.548,1025.13
621.077,1029.57
621.607,1037.4
622.136,1067.5
622.665,1058.37
623.194,1036.9
623.723,1030.5
624.252,1027.8
624.781,1034.4
625.31,1039.77
625.839,1054.8
626.368,1089.1
626.896,1349.57
627.425,1804.63
627.953,1512.93
628.482,1809.63
629.01,1650.8
629.539,1522.7
630.067,1413.8
630.596,1378.7
631.124,1218.0
631.652,1142.17
632.18,1112.07
632.708,1099.2
633.236,1093.83
633.764,1091.7
634.292,1091.03
634.82,1091.47
635.348,1091.37
635.876,1093.57
636.403,1090.4
636.931,1090.23
637.459,1086.7
637.986,1085.23
638.514,1080.4
639.041,1078.93
639.568,1078.67
640.096,1079.13
640.623,1076.8
641.15,1078.43
641.678,1076.9
642.205,1073.87
642.732,1072.17
643.259,1068.27
643.786,1062.97
644.313,1062.4
644.84,1059.5
645.367,1060.1
645.894,1058.87
646.421,1054.2
646.948,1054.2
647.474,1052.9
648.001,1051.17
648.528,1047.37
649.054,1044.83
649.581,1044.57
650.108,1045.9
650.634,1043.53
651.161,1044.77
651.687,1037.7
652.214,1042.6
652.74,1040.53
653.266,1039.87
653.793,1038.07
654.319,1038.73
654.845,1039.33
655.371,1034.33
655.897,1029.5
656.424,1026.57
656.95,1025.73
657.476,1022.03
658.002,1019.73
658.528,1013.3
659.054,1009.63
659.58,1004.0
660.106,999.2
660.631,992.667
661.157,986.4
661.683,979.4
662.209,975.3
662.735,970.933
663.129,965.067

File: VLFR_01-LDPE_nobio_Raman_3e7b0e4c.csv
nm,Intensity
526.5,829.3
527.047,829.0
527.594,830.6
528.14,828.2
528.687,827.3
529.233,828.7
529.779,829.7
530.325,829.0
530.871,829.5
531.417,829.9
531.962,835.5
532.508,831.2
533.053,829.2
533.599,829.5
534.144,861.5
534.689,855.6
535.234,855.2
535.778,852.3
536.323,849.9
536.867,850.0
537.412,846.8
537.956,848.6
538.5,846.4
539.044,846.4
539.588,846.0
540.132,845.7
540.675,847.8
541.219,851.1
541.762,847.3
542.305,851.9
542.848,852.9
543.391,851.1
543.934,850.0
544.477,851.0
545.02,852.4
545.562,852.1
546.105,852.6
546.647,852.5
547.189,852.1
547.731,848.7
548.273,845.9
548.815,850.4
549.356,849.8
549.898,849.5
550.439,849.5
550.981,849.7
551.522,848.2
552.063,847.6
552.604,846.4
553.145,848.7
553.686,845.1
554.226,846.6
554.767,847.1
555.307,848.7
555.848,847.7
556.388,850.2
556.928,849.3
557.468,850.0
558.008,851.6
558.547,851.4
559.087,853.3
559.626,851.7
560.166,851.7
560.705,851.2
561.244,853.5
561.783,851.5
562.322,855.1
562.861,856.8
563.4,857.6
563.939,864.6
564.477,859.7
565.015,866.0
565.554,863.4
566.092,869.5
566.63,860.3
567.168,857.8
567.706,857.2
568.244,855.6
568.781,855.1
569.319,854.7
569.857,856.2
570.394,857.7
570.931,861.4
571.468,866.4
572.005,866.6
572.542,862.5
573.079,863.3
573.616,861.0
574.153,868.6
574.689,864.1
575.226,862.7
575.762,866.6
576.298,878.4
576.834,875.2
577.371,870.1
577.907,867.4
578.442,867.4
578.978,866.0
579.514,871.7
580.049,867.6
580.585,871.2
581.12,870.2
581.656,869.6
582.191,872.9
582.726,876.0
583.261,875.9
583.796,881.0
584.331,882.4
584.865,883.2
585.4,885.2
585.935,888.4
586.469,892.8
587.004,892.7
587.538,901.9
588.072,904.6
588.606,904.9
589.14,906.8
589.674,912.1
590.208,918.8
590.742,924.0
591.275,927.9
591.809,928.9
592.342,933.9
592.876,937.1
593.409,942.0
593.942,949.2
594.476,955.3
595.009,960.5
595.542,967.5
596.075,980.1
596.607,990.5
597.14,998.7
597.673,1007.2
598.205,1013.7
598.738,1024.4
599.27,1035.6
599.803,1037.4
600.335,1040.3
600.867,1036.6
601.399,1045.8
601.931,1041.8
602.463,1038.3
602.995,1036.9
603.527,1031.0
604.058,1024.7
604.59,1018.8
605.122,1012.2
605.653,998.1
606.184,986.5
606.716,985.3
607.247,981.9
607.778,973.8
608.309,970.0
608.84,966.1
609.371,958.3
609.902,957.3
610.433,955.8
610.964,950.3
611.494,949.7
612.025,944.5
612.556,943.1
613.086,944.1
613.616,941.4
614.147,943.8
614.677,937.5
615.207,936.3
615.737,933.8
616.267,928.6
616.797,930.6
617.327,929.6
617.857,926.8
618.387,927.8
618.917,923.1
619.446,922.6
619.976,923.7
620.505,922.5
621.035,919.5
621.564,920.1
622.093,925.0
622.623,925.5
623.152,919.3
623.681,915.9
624.21,916.4
624.739,914.9
625.268,914.9
625.797,912.1
626.326,916.2
626.855,947.0
627.383,1006.6
627.912,971.7
628.441,1002.6
628.969,990.7
629.498,973.1
630.026,955.9
630.554,948.3
631.083,927.5
631.611,913.3
632.139,910.1
632.667,907.9
633.195,902.8
633.724,899.1
634.252,898.3
634.779,899.7
635.307,898.9
635.835,897.5
636.363,898.5
636.891,896.8
637.418,899.2
637.946,902.4
638.474,902.4
639.001,905.2
639.529,901.7
640.056,906.4
640.583,907.1
641.111,910.6
641.638,912.5
642.165,910.4
642.692,912.4
643.22,911.5
643.747,915.4
644.274,917.6
644.801,917.8
645.328,917.2
645.854,920.3
646.381,921.9
646.908,922.8
647.435,921.5
647.962,925.4
648.488,926.7
649.015,928.8
649.542,932.3
650.068,931.1
650.595,934.0
651.121,936.8
651.648,936.4
652.174,941.2
652.7,936.9
653.227,945.2
653.753,941.7
654.279,942.0
654.805,938.4
655.331,944.3
655.858,940.2
656.384,940.9
656.91,936.5
657.436,932.9
657.962,933.6
658.488,928.7
659.013,928.9
659.539,928.3
660.065,923.6
660.591,924.2
661.117,916.1
661.642,911.0
662.168,913.9
662.694,905.5
663.088,905.5