Folder: MPX_specDB/spectra (part 70)

File: VLFR_06-PET_bio_Raman_6ac0cbb0.csv
nm,Intensity
528.65,1848.35
529.155,1849.4
529.66,1849.85
530.165,1849.35
530.67,1849.15
531.175,1849.35
531.68,1863.45
532.185,2509.25
532.69,1851.05
533.194,1851.3
533.699,2016.05
534.204,2401.75
534.708,2325.25
535.213,2263.5
535.717,2215.2
536.222,2186.3
536.726,2183.45
537.231,2193.65
537.735,2209.2
538.239,2194.2
538.743,2223.35
539.247,2225.05
539.751,2253.95
540.255,2229.7
540.759,2250.65
541.263,2235.35
541.767,2241.25
542.271,2268.2
542.775,2270.05
543.279,2293.8
543.782,2293.45
544.286,2300.0
544.789,2285.9
545.293,2299.45
545.796,2285.25
546.3,2305.4
546.803,2322.85
547.306,2312.95
547.81,2327.6
548.313,2330.0
548.816,2309.65
549.319,2333.75
549.822,2341.15
550.325,2336.8
550.828,2377.9
551.331,2348.8
551.834,2361.55
552.337,2355.75
552.839,2388.15
553.342,2382.7
553.844,2361.55
554.347,2390.2
554.849,2386.05
555.352,2386.5
555.854,2416.05
556.357,2442.3
556.859,2452.05
557.361,2494.7
557.863,2451.8
558.365,2460.2
558.867,2442.75
559.369,2457.8
559.871,2456.5
560.373,2461.0
560.875,2466.55
561.377,2475.6
561.878,2488.9
562.38,2507.25
562.881,2513.25
563.383,2493.85
563.884,2515.1
564.386,2526.65
564.887,2558.8
565.388,2595.65
565.89,2622.55
566.391,2593.1
566.892,2595.0
567.393,2619.95
567.894,2598.95
568.395,2632.25
568.896,2624.25
569.396,2646.4
569.897,2658.35
570.398,2680.95
570.898,2727.4
571.399,2831.6
571.9,2726.75
572.4,2729.55
572.9,2716.45
573.401,2750.1
573.901,2742.1
574.401,2747.7
574.901,2724.65
575.401,2793.9
575.901,2808.6
576.401,2784.45
576.901,2818.95
577.401,2804.05
577.901,2817.1
578.4,2796.95
578.9,2829.05
579.399,2872.15
579.899,2812.35
580.398,2873.1
580.898,2860.9
581.397,2872.15
581.896,3146.8
582.395,3132.5
582.895,2880.0
583.394,2878.25
583.893,2917.2
584.391,2921.35
584.89,2929.65
585.389,2986.5
585.888,3160.05
586.386,3071.3
586.885,2936.4
587.384,2905.95
587.882,2947.75
588.38,2935.65
588.879,2951.35
589.377,2906.15
589.875,2933.7
590.373,2899.45
590.871,2957.6
591.369,2945.8
591.867,2953.5
592.365,2970.4
592.863,2956.75
593.361,2970.3
593.858,2960.65
594.356,2929.4
594.853,2956.1
595.351,2922.0
595.848,2974.0
596.345,2958.3
596.843,2948.6
597.34,3004.75
597.837,2990.9
598.334,2967.65
598.831,2944.8
599.328,3000.3
599.824,2996.95
600.321,2994.75
600.818,2996.25
601.314,2994.95
601.811,3040.65
602.307,2992.65
602.804,2977.95
603.3,3004.45
603.796,2983.05
604.293,3026.1
604.789,2997.5
605.285,2947.5
605.781,2993.25
606.277,2977.15
606.772,2985.9
607.268,2984.1
607.764,2993.2
608.259,2985.9
608.755,2999.25
609.25,2997.25
609.746,2996.55
610.241,2982.6
610.736,2996.3
611.231,3030.4
611.727,3031.55
612.222,2978.4
612.716,3019.25
613.211,3043.8
613.706,2975.25
614.201,2992.15
614.695,3017.45
615.19,3005.9
615.684,2984.05
616.179,3044.65
616.673,2995.7
617.168,3003.95
617.662,2996.25
618.156,3055.1
618.65,3087.85
619.144,3072.95
619.638,2988.35
620.131,3034.35
620.625,3012.15
621.119,3001.5
621.612,3038.35
622.106,3032.1
622.599,3035.85
623.093,3018.05
623.586,3043.6
624.079,3020.6
624.572,3032.75
625.065,3039.05
625.558,3046.75
626.051,3044.75
626.544,3090.2
627.037,3081.05
627.529,3047.1
628.022,3069.65
628.514,3141.75
629.007,3119.55
629.499,3104.6
629.991,3092.9
630.483,3117.35
630.976,3174.0
631.468,3180.25
631.959,3174.9
632.451,3198.05
632.943,3155.3
633.435,3182.85
633.926,3163.65
634.418,3169.7
634.909,3116.65
635.401,3183.15
635.892,3132.25
636.383,3308.05
636.874,3218.4
637.365,3175.65
637.856,3181.95
638.347,3178.9
638.838,3151.2
639.329,3133.85
639.819,3138.25
640.31,3162.8
640.8,3160.7
641.291,3071.35
641.781,3138.85
642.271,3179.05
642.761,3162.6
643.251,3131.2
643.741,3126.2
644.231,3162.8
644.721,3153.9
645.211,3186.2
645.7,3103.05
646.19,3143.85
646.679,3100.25
647.169,3124.8
647.658,3068.95
648.147,3154.8
648.636,3089.4
649.125,3107.6
649.614,3115.95
650.103,3090.05
650.592,3065.75
651.08,3066.55
651.569,2987.6
652.058,3044.6
652.546,3056.85
653.034,2979.2
653.523,3022.45
654.011,3048.6
654.499,2986.95
654.987,3010.3
655.475,2971.4
655.963,2975.05
656.45,2973.1
656.938,2936.05
657.425,2916.6
657.913,2950.0
658.4,2833.35
658.888,2834.95
659.375,2842.95
659.862,2851.4
660.349,2827.45
660.836,2799.4
661.079,2799.6

File: VLFR_06-PET_bio_Raman_6af04281.csv
nm,Intensity
528.65,1844.65
529.155,1845.3
529.66,1844.55
530.165,1845.4
530.67,1845.9
531.175,1846.45
531.68,1881.35
532.185,3617.0
532.69,1857.25
533.194,1875.25
533.699,5550.6
534.204,14884.2
534.708,11476.0
535.213,8592.7
535.717,6121.2
536.222,4602.85
536.726,4130.75
537.231,3749.55
537.735,3643.05
538.239,3727.3
538.743,3659.05
539.247,3827.2
539.751,4097.05
540.255,3794.95
540.759,3457.5
541.263,3326.7
541.767,3323.6
542.271,3305.2
542.775,3317.65
543.279,3304.95
543.782,3394.0
544.286,3374.55
544.789,3400.3
545.293,3402.95
545.796,3409.4
546.3,3457.65
546.803,3537.2
547.306,3506.75
547.81,3568.6
548.313,3583.15
548.816,3594.95
549.319,3577.15
549.822,3576.85
550.325,3921.75
550.828,4921.25
551.331,3800.7
551.834,3732.6
552.337,3857.3
552.839,4618.45
553.342,3867.45
553.844,3970.55
554.347,3960.25
554.849,4033.05
555.352,4461.1
555.854,4989.45
556.357,5156.95
556.859,5365.2
557.361,7257.25
557.863,6299.1
558.365,5682.15
558.867,5207.05
559.369,4525.4
559.871,4459.85
560.373,4466.55
560.875,4502.95
561.377,4728.8
561.878,4830.45
562.38,4944.6
562.881,5169.35
563.383,5135.45
563.884,4925.5
564.386,5060.7
564.887,5641.05
565.388,6620.6
565.89,7276.6
566.391,5705.45
566.892,5289.35
567.393,5668.55
567.894,6028.55
568.395,5344.0
568.896,5357.1
569.396,5489.45
569.897,5808.6
570.398,6880.3
570.898,8781.35
571.399,10236.1
571.9,7834.65
572.4,6374.45
572.9,5758.55
573.401,5788.6
573.901,6136.05
574.401,5935.05
574.901,6104.2
575.401,6553.9
575.901,6148.1
576.401,6702.4
576.901,6719.55
577.401,6111.8
577.901,6023.85
578.4,6220.65
578.9,6189.5
579.399,6194.35
579.899,6286.15
580.398,6311.0
580.898,6636.55
581.397,7124.65
581.896,15359.5
582.395,13885.8
582.895,6805.95
583.394,6654.05
583.893,6643.1
584.391,6886.35
584.89,7081.55
585.389,9420.95
585.888,16550.7
586.386,12720.8
586.885,7759.2
587.384,6987.95
587.882,6869.45
588.38,6917.45
588.879,6877.45
589.377,6823.6
589.875,6862.5
590.373,6793.55
590.871,6790.55
591.369,6888.25
591.867,6898.4
592.365,7045.4
592.863,6801.05
593.361,6974.15
593.858,6995.95
594.356,7035.45
594.853,6996.4
595.351,7193.6
595.848,7181.55
596.345,7077.3
596.843,7154.2
597.34,7153.5
597.837,7100.75
598.334,6961.35
598.831,7317.3
599.328,7225.2
599.824,7258.1
600.321,7181.25
600.818,7284.3
601.314,7251.65
601.811,7266.05
602.307,7309.65
602.804,7264.95
603.3,7289.8
603.796,7263.5
604.293,7294.65
604.789,7225.8
605.285,7464.9
605.781,7415.7
606.277,7343.95
606.772,7378.65
607.268,7386.85
607.764,7541.3
608.259,7363.85
608.755,7431.0
609.25,7408.1
609.746,7328.55
610.241,7471.2
610.736,7372.5
611.231,7293.25
611.727,7430.9
612.222,7328.3
612.716,7333.8
613.211,7367.1
613.706,7518.1
614.201,7503.6
614.695,7523.05
615.19,7541.35
615.684,7516.8
616.179,7621.15
616.673,7526.4
617.168,7575.25
617.662,7644.35
618.156,7517.3
618.65,7675.05
619.144,7600.85
619.638,7597.95
620.131,7551.8
620.625,7536.65
621.119,7653.7
621.612,7588.15
622.106,7556.2
622.599,7576.2
623.093,7663.0
623.586,7675.55
624.079,7725.3
624.572,7906.8
625.065,7751.95
625.558,7872.6
626.051,7679.5
626.544,7810.2
627.037,7694.75
627.529,8006.4
628.022,7911.35
628.514,8230.25
629.007,8538.85
629.499,8599.75
629.991,8267.7
630.483,8490.55
630.976,9107.55
631.468,11004.3
631.959,11385.8
632.451,10291.5
632.943,9818.9
633.435,9585.65
633.926,9318.95
634.418,8761.35
634.909,8868.3
635.401,9023.95
635.892,10019.3
636.383,11867.6
636.874,10865.3
637.365,9391.3
637.856,9067.9
638.347,9032.35
638.838,8768.6
639.329,8937.2
639.819,8754.35
640.31,8664.2
640.8,8753.3
641.291,8792.5
641.781,8809.35
642.271,8925.75
642.761,8970.7
643.251,8981.6
643.741,8782.55
644.231,8765.45
644.721,9129.95
645.211,9146.1
645.7,8884.15
646.19,8763.95
646.679,9315.65
647.169,8808.2
647.658,8870.0
648.147,9006.2
648.636,8851.1
649.125,8754.7
649.614,8808.0
650.103,8911.85
650.592,8877.8
651.08,8598.25
651.569,8545.15
652.058,8698.05
652.546,8517.65
653.034,8566.3
653.523,8408.05
654.011,8400.35
654.499,8288.0
654.987,8231.85
655.475,8415.1
655.963,8279.1
656.45,8138.35
656.938,8123.35
657.425,8004.3
657.913,8016.05
658.4,7987.8
658.888,7725.85
659.375,7786.8
659.862,7701.7
660.349,7479.75
660.836,7555.5
661.079,7471.45

File: VLFR_06-PET_bio_Raman_7a2c7309.csv
nm,Intensity
526.547,831.95
527.095,831.4
527.642,832.45
528.189,832.95
528.736,831.95
529.283,831.7
529.829,832.35
530.376,832.15
530.922,831.85
531.468,831.65
532.014,840.2
532.56,830.4
533.106,832.45
533.651,840.3
534.196,1390.75
534.742,1231.8
535.287,1087.3
535.832,999.6
536.376,950.4
536.921,929.1
537.465,924.1
538.01,918.35
538.554,924.7
539.098,925.05
539.642,929.45
540.186,934.65
540.729,919.1
541.273,915.2
541.816,912.65
542.36,914.85
542.903,916.3
543.446,916.0
543.988,920.8
544.531,919.4
545.074,923.6
545.616,924.95
546.158,926.15
546.701,926.85
547.243,929.75
547.785,932.95
548.326,931.65
548.868,933.6
549.41,935.5
549.951,938.7
550.492,948.8
551.034,944.95
551.575,942.55
552.116,947.75
552.656,954.3
553.197,960.45
553.738,959.5
554.278,955.5
554.819,955.2
555.359,963.85
555.899,987.9
556.439,993.45
556.979,1000.3
557.519,1069.25
558.058,1011.95
558.598,1009.2
559.137,993.4
559.677,981.9
560.216,988.5
560.755,989.95
561.294,992.9
561.833,991.35
562.371,1000.8
562.91,1011.45
563.449,1012.2
563.987,1007.85
564.525,1017.05
565.064,1039.6
565.602,1069.55
566.14,1068.6
566.678,1030.15
567.216,1025.8
567.753,1060.25
568.291,1033.55
568.828,1034.65
569.366,1040.35
569.903,1051.4
570.44,1075.65
570.977,1134.85
571.514,1179.4
572.051,1116.25
572.588,1074.75
573.125,1062.75
573.661,1062.75
574.198,1076.15
574.734,1073.75
575.271,1091.8
575.807,1083.1
576.343,1096.75
576.879,1106.0
577.415,1087.6
577.951,1087.05
578.486,1087.45
579.022,1089.7
579.557,1097.25
580.093,1097.4
580.628,1103.75
581.164,1110.3
581.699,1160.6
582.234,1690.2
582.769,1135.1
583.304,1122.35
583.838,1119.7
584.373,1125.95
584.908,1137.65
585.442,1188.35
585.977,1420.2
586.511,1291.8
587.045,1160.45
587.58,1144.8
588.114,1141.5
588.648,1145.5
589.182,1138.75
589.715,1146.5
590.249,1139.85
590.783,1145.1
591.316,1149.7
591.85,1145.55
592.383,1146.3
592.917,1151.65
593.45,1152.6
593.983,1150.1
594.516,1151.0
595.049,1155.15
595.582,1158.9
596.115,1161.55
596.648,1163.15
597.18,1166.65
597.713,1163.65
598.245,1172.05
598.778,1173.95
599.31,1172.6
599.842,1170.0
600.375,1171.4
600.907,1173.05
601.439,1171.2
601.971,1174.7
602.503,1168.05
603.034,1177.0
603.566,1179.9
604.098,1181.9
604.629,1177.05
605.161,1175.95
605.692,1166.95
606.224,1170.1
606.755,1172.75
607.286,1173.35
607.817,1177.85
608.348,1176.05
608.879,1183.75
609.41,1183.55
609.941,1178.55
610.472,1179.8
611.002,1177.85
611.533,1182.85
612.063,1185.75
612.594,1194.7
613.124,1198.45
613.655,1200.5
614.185,1202.75
614.715,1201.0
615.245,1206.35
615.775,1205.75
616.305,1208.05
616.835,1209.5
617.365,1210.65
617.895,1222.85
618.425,1223.5
618.954,1217.25
619.484,1218.15
620.013,1216.9
620.543,1217.9
621.072,1219.85
621.602,1221.25
622.131,1226.65
622.66,1227.9
623.189,1235.45
623.718,1239.55
624.247,1241.2
624.776,1243.2
625.305,1247.45
625.834,1251.0
626.363,1250.9
626.891,1250.65
627.42,1255.7
627.949,1258.25
628.477,1270.65
629.006,1288.2
629.534,1283.5
630.062,1287.6
630.591,1295.5
631.119,1323.4
631.647,1396.9
632.175,1376.55
632.703,1341.2
633.231,1338.85
633.759,1333.85
634.287,1325.85
634.815,1325.5
635.343,1323.9
635.871,1365.05
636.398,1429.45
636.926,1414.25
637.454,1355.55
637.981,1349.25
638.509,1348.9
639.036,1352.2
639.564,1352.8
640.091,1364.95
640.618,1353.9
641.146,1366.0
641.673,1371.65
642.2,1381.05
642.727,1372.9
643.254,1374.7
643.781,1373.55
644.308,1373.2
644.835,1374.35
645.362,1371.4
645.889,1377.4
646.416,1380.25
646.942,1389.8
647.469,1394.95
647.996,1391.3
648.522,1389.5
649.049,1392.7
649.576,1388.15
650.102,1392.8
650.629,1391.6
651.155,1390.85
651.682,1398.65
652.208,1409.45
652.734,1401.85
653.261,1409.35
653.787,1411.1
654.313,1412.3
654.839,1412.65
655.365,1407.35
655.892,1411.65
656.418,1412.85
656.944,1416.35
657.47,1407.65
657.996,1413.4
658.522,1420.35
659.048,1412.3
659.574,1424.1
660.099,1422.1
660.625,1416.85
661.151,1411.35
661.677,1406.65
662.203,1408.7
662.728,1411.35
663.123,1403.9

File: VLFR_06-PET_bio_Raman_7be6d459.csv
nm,Intensity
526.508,828.1
527.055,827.6
527.602,829.8
528.149,827.6
528.695,828.8
529.241,828.3
529.787,828.6
530.334,828.1
530.879,828.2
531.425,828.9
531.971,835.9
532.516,829.2
533.062,828.2
533.607,828.5
534.152,902.2
534.697,897.7
535.242,888.7
535.786,880.2
536.331,878.6
536.876,876.0
537.42,879.0
537.964,878.8
538.508,880.5
539.052,877.7
539.596,877.1
540.14,880.3
540.683,881.1
541.227,879.8
541.77,878.8
542.313,879.7
542.856,878.5
543.399,881.0
543.942,883.7
544.485,880.9
545.027,882.8
545.57,882.9
546.112,883.7
546.654,886.7
547.196,884.2
547.738,888.5
548.28,890.3
548.822,889.6
549.363,892.3
549.905,888.4
550.446,888.1
550.988,892.0
551.529,888.3
552.07,890.8
552.611,893.0
553.152,897.9
553.692,894.7
554.233,896.0
554.773,898.5
555.314,896.8
555.854,900.6
556.394,899.4
556.934,899.4
557.474,906.0
558.014,901.4
558.553,900.1
559.093,902.1
559.632,900.7
560.172,900.5
560.711,903.1
561.25,902.3
561.789,908.4
562.328,908.4
562.867,912.0
563.406,909.9
563.944,908.7
564.483,913.1
565.021,913.5
565.559,918.9
566.098,914.8
566.636,914.7
567.174,919.4
567.711,917.4
568.249,918.1
568.787,918.6
569.324,919.6
569.862,923.5
570.399,922.6
570.936,927.3
571.474,937.5
572.011,927.1
572.548,930.6
573.084,928.9
573.621,927.1
574.158,931.4
574.694,933.5
575.231,934.4
575.767,932.2
576.303,937.4
576.84,937.8
577.376,934.3
577.912,933.2
578.447,934.9
578.983,944.0
579.519,941.0
580.054,942.5
580.59,937.0
581.125,945.0
581.661,947.9
582.196,983.3
582.731,948.7
583.266,947.8
583.801,951.7
584.336,946.5
584.87,950.1
585.405,948.4
585.94,970.9
586.474,960.8
587.008,957.0
587.543,950.3
588.077,955.5
588.611,951.5
589.145,956.7
589.679,949.7
590.213,947.3
590.747,952.9
591.28,955.3
591.814,953.6
592.347,950.5
592.881,951.2
593.414,956.5
593.947,952.3
594.48,952.2
595.014,955.9
595.547,956.9
596.079,958.8
596.612,956.8
597.145,956.7
597.678,958.7
598.21,958.1
598.743,965.0
599.275,962.9
599.807,958.8
600.34,959.1
600.872,963.7
601.404,959.1
601.936,959.1
602.468,960.1
603.0,958.3
603.532,956.9
604.063,958.4
604.595,954.3
605.126,963.7
605.658,954.9
606.189,956.5
606.721,955.3
607.252,954.3
607.783,955.5
608.314,960.5
608.845,960.2
609.376,963.7
609.907,958.9
610.438,959.2
610.968,960.4
611.499,955.6
612.03,961.0
612.56,963.1
613.091,965.1
613.621,960.3
614.151,967.8
614.681,960.6
615.212,967.8
615.742,969.4
616.272,964.7
616.802,968.7
617.332,966.0
617.861,961.9
618.391,964.7
618.921,967.4
619.45,966.4
619.98,967.4
620.509,964.7
621.039,968.8
621.568,965.0
622.097,970.2
622.627,969.5
623.156,969.9
623.685,969.4
624.214,971.1
624.743,971.1
625.272,970.9
625.801,970.2
626.33,975.5
626.858,970.3
627.387,974.2
627.916,972.8
628.444,974.0
628.973,974.9
629.501,976.0
630.029,975.0
630.558,975.1
631.086,981.4
631.614,981.0
632.142,981.6
632.67,980.0
633.198,983.7
633.726,977.3
634.254,981.8
634.782,981.9
635.31,975.0
635.838,981.5
636.365,984.1
636.893,983.7
637.421,984.8
637.948,977.0
638.476,982.2
639.003,980.2
639.531,981.0
640.058,984.1
640.585,982.6
641.113,984.7
641.64,984.5
642.167,992.2
642.694,983.9
643.221,991.3
643.748,989.6
644.275,983.2
644.802,985.5
645.329,986.2
645.856,985.6
646.382,981.0
646.909,990.6
647.436,989.7
647.962,984.5
648.489,986.6
649.016,989.5
649.542,989.2
650.069,990.0
650.595,988.6
651.121,991.5
651.648,991.6
652.174,989.3
652.7,986.6
653.227,985.1
653.753,982.8
654.279,982.5
654.805,979.0
655.331,983.6
655.857,978.8
656.383,975.1
656.909,982.6
657.435,978.3
657.961,977.1
658.487,973.6
659.013,973.7
659.538,968.9
660.064,968.7
660.59,971.2
661.116,968.7
661.641,967.8
662.167,967.9
662.692,967.1
663.087,966.7

File: VLFR_06-PET_bio_Raman_7c93d14b.csv
nm,Intensity
528.635,1842.0
529.14,1840.8
529.645,1842.7
530.151,1842.2
530.656,1843.8
531.161,1844.1
531.666,1892.7
532.171,3775.4
532.676,1847.8
533.181,1868.0
533.686,4568.1
534.191,11180.2
534.696,8725.6
535.201,6546.1
535.705,4815.8
536.21,3797.9
536.715,3452.4
537.219,3271.6
537.724,3126.1
538.228,3203.9
538.733,3210.5
539.237,3213.7
539.741,3460.6
540.246,3226.6
540.75,3032.3
541.254,2920.9
541.758,2882.8
542.262,2900.5
542.766,2960.1
543.27,2962.5
543.774,3015.4
544.278,2978.4
544.781,3013.7
545.285,3022.4
545.789,3049.3
546.292,3082.8
546.796,3111.9
547.299,3139.9
547.803,3161.8
548.306,3186.2
548.809,3185.4
549.313,3192.9
549.816,3242.2
550.319,3450.3
550.822,4140.3
551.325,3340.4
551.828,3369.3
552.331,3416.9
552.834,4014.6
553.337,3471.7
553.839,3556.1
554.342,3533.5
554.845,3586.6
555.347,3869.4
555.85,4315.9
556.352,4400.4
556.854,4488.4
557.357,5829.2
557.859,5104.7
558.361,4785.4
558.863,4393.6
559.365,4030.0
559.867,3989.7
560.369,3969.6
560.871,4016.9
561.373,4198.8
561.875,4253.5
562.377,4360.4
562.878,4549.3
563.38,4475.7
563.881,4407.7
564.383,4489.3
564.884,4969.6
565.386,5632.0
565.887,5958.0
566.388,5002.7
566.889,4559.8
567.391,5016.6
567.892,5272.3
568.393,4723.7
568.893,4794.2
569.394,4881.0
569.895,5136.4
570.396,5771.4
570.897,7330.6
571.397,8282.9
571.898,6631.3
572.398,5506.3
572.899,5226.3
573.399,5264.9
573.899,5428.4
574.399,5335.6
574.9,5434.6
575.4,5858.1
575.9,5427.5
576.4,5915.5
576.899,5891.0
577.399,5495.5
577.899,5477.0
578.399,5534.3
578.898,5475.7
579.398,5596.7
579.897,5628.5
580.397,5787.8
580.896,5999.6
581.396,6316.8
581.895,12222.4
582.394,11104.9
582.893,6152.1
583.392,5971.9
583.891,6136.8
584.39,6115.6
584.889,6287.2
585.387,7936.3
585.886,12676.3
586.385,10152.3
586.883,6739.3
587.382,6356.0
587.88,6233.6
588.379,6171.1
588.877,6168.2
589.375,6212.0
589.873,6272.1
590.371,6141.0
590.869,6178.7
591.367,6206.8
591.865,6325.4
592.363,6298.3
592.86,6245.3
593.358,6349.0
593.856,6291.5
594.353,6431.3
594.851,6389.9
595.348,6358.3
595.845,6489.7
596.342,6468.1
596.84,6471.5
597.337,6454.8
597.834,6488.1
598.331,6432.2
598.827,6544.8
599.324,6490.3
599.821,6554.7
600.318,6563.2
600.814,6560.4
601.311,6670.3
601.807,6536.6
602.303,6676.5
602.8,6674.6
603.296,6661.9
603.792,6677.5
604.288,6475.6
604.784,6704.5
605.28,6619.0
605.776,6644.9
606.272,6742.5
606.767,6759.7
607.263,6649.4
607.758,6692.5
608.254,6705.9
608.749,6773.7
609.244,6800.6
609.74,6792.4
610.235,6749.0
610.73,6825.9
611.225,6675.4
611.72,6769.9
612.215,6705.8
612.709,6759.6
613.204,6765.9
613.699,6797.7
614.193,6856.3
614.688,6843.8
615.182,6857.6
615.676,6806.5
616.171,7067.5
616.665,6903.5
617.159,6938.1
617.653,6959.5
618.147,6983.7
618.641,7107.1
619.134,7056.8
619.628,7114.2
620.122,7056.2
620.615,6941.7
621.109,7147.5
621.602,7158.6
622.095,7086.4
622.588,7259.8
623.082,7220.6
623.575,7200.9
624.068,7358.7
624.56,7402.5
625.053,7385.9
625.546,7324.9
626.039,7297.1
626.531,7304.2
627.024,7372.6
627.516,7484.9
628.008,7554.4
628.501,7700.4
628.993,7869.0
629.485,8206.8
629.977,7952.4
630.469,7854.0
630.961,8491.4
631.452,9589.5
631.944,9844.8
632.436,9352.1
632.927,8946.5
633.418,8945.9
633.91,8636.2
634.401,8276.4
634.892,8455.2
635.383,8465.1
635.874,9017.5
636.365,10646.2
636.856,9630.3
637.347,8907.0
637.837,8600.7
638.328,8584.0
638.818,8471.8
639.309,8356.1
639.799,8516.1
640.289,8492.4
640.78,8396.3
641.27,8486.1
641.76,8510.5
642.249,8638.0
642.739,8588.5
643.229,8346.3
643.719,8697.1
644.208,8703.1
644.698,8548.3
645.187,8556.2
645.676,8576.8
646.165,8405.8
646.655,8432.4
647.144,8548.1
647.633,8600.8
648.121,8692.3
648.61,8524.4
649.099,8764.1
649.587,8348.9
650.076,8353.6
650.564,8707.0
651.053,8478.1
651.541,8182.6
652.029,8189.0
652.517,8120.6
653.005,8070.3
653.493,7988.1
653.981,8196.3
654.468,7937.3
654.956,7974.7
655.444,7876.8
655.931,7991.1
656.418,7735.7
656.906,7753.1
657.393,7707.6
657.88,7642.2
658.367,7508.9
658.854,7571.2
659.341,7262.5
659.827,7187.2
660.314,7203.1
660.8,7077.6
661.044,7142.0

File: VLFR_06-PET_bio_Raman_07ff2dc8.csv
nm,Intensity
528.626,1863.77
529.132,1863.7
529.637,1863.77
530.143,1863.17
530.648,1864.57
531.153,1868.03
531.658,1912.8
532.164,4550.03
532.669,1867.4
533.174,1869.6
533.679,2572.3
534.184,4539.73
534.689,3921.3
535.194,3463.67
535.699,3098.07
536.203,2879.3
536.708,2807.83
537.213,2772.4
537.717,2791.03
538.222,2811.53
538.726,2808.1
539.231,2851.17
539.735,2902.23
540.239,2859.9
540.744,2820.9
541.248,2847.47
541.752,2826.57
542.256,2859.5
542.76,2891.57
543.264,2902.5
543.768,2913.37
544.272,2909.63
544.776,2933.57
545.28,2899.9
545.784,2933.8
546.287,2963.13
546.791,2994.9
547.294,2999.07
547.798,3031.77
548.301,3029.8
548.805,3063.83
549.308,3068.8
549.811,3087.5
550.315,3120.27
550.818,3312.97
551.321,3141.03
551.824,3207.77
552.327,3169.3
552.83,3263.47
553.333,3196.07
553.835,3225.53
554.338,3238.63
554.841,3295.23
555.343,3316.93
555.846,3447.6
556.349,3452.8
556.851,3482.3
557.353,3701.67
557.856,3622.63
558.358,3552.23
558.86,3514.9
559.362,3443.37
559.864,3440.8
560.366,3429.4
560.868,3453.63
561.37,3498.7
561.872,3567.7
562.374,3680.87
562.876,3596.1
563.377,3594.7
563.879,3594.83
564.38,3597.6
564.882,3767.37
565.383,3888.2
565.885,3985.47
566.386,3742.2
566.887,3696.0
567.388,3758.87
567.889,3814.73
568.391,3782.03
568.892,3807.33
569.392,3839.07
569.893,3849.63
570.394,4041.03
570.895,4333.77
571.395,4518.03
571.896,4217.77
572.397,3976.77
572.897,4011.3
573.397,3963.63
573.898,3993.1
574.398,4009.67
574.898,4026.27
575.398,4120.57
575.898,4043.3
576.398,4111.4
576.898,4053.77
577.398,4050.17
577.898,4086.5
578.398,4031.47
578.897,4035.77
579.397,4121.53
579.896,4088.93
580.396,4162.53
580.895,4208.83
581.395,4288.2
581.894,5426.67
582.393,5135.8
582.892,4141.13
583.391,4140.57
583.89,4157.07
584.389,4146.43
584.888,4221.17
585.387,4382.3
585.886,5303.07
586.384,4964.6
586.883,4286.4
587.381,4229.17
587.88,4187.9
588.378,4166.53
588.876,4159.7
589.375,4151.83
589.873,4123.8
590.371,4195.87
590.869,4122.37
591.367,4160.73
591.865,4202.43
592.363,4203.8
592.86,4205.13
593.358,4165.23
593.856,4099.83
594.353,4129.77
594.851,4151.73
595.348,4193.17
595.845,4199.3
596.342,4178.17
596.84,4254.37
597.337,4180.9
597.834,4206.67
598.331,4202.43
598.828,4160.63
599.324,4227.77
599.821,4208.47
600.318,4264.07
600.814,4177.77
601.311,4268.0
601.807,4182.3
602.304,4206.1
602.8,4243.13
603.296,4221.47
603.792,4245.27
604.288,4198.1
604.784,4156.0
605.28,4197.83
605.776,4242.1
606.272,4249.37
606.767,4241.7
607.263,4226.27
607.759,4200.57
608.254,4278.67
608.749,4244.73
609.245,4244.97
609.74,4226.07
610.235,4234.6
610.73,4269.23
611.225,4279.77
611.72,4237.37
612.215,4243.4
612.71,4282.9
613.204,4239.33
613.699,4223.23
614.194,4288.07
614.688,4217.17
615.182,4237.33
615.677,4240.53
616.171,4238.73
616.665,4278.9
617.159,4219.83
617.653,4214.17
618.147,4220.07
618.641,4271.0
619.135,4297.0
619.628,4225.73
620.122,4224.63
620.615,4280.7
621.109,4272.77
621.602,4245.77
622.095,4244.1
622.589,4271.73
623.082,4194.17
623.575,4259.87
624.068,4308.07
624.561,4320.07
625.053,4258.77
625.546,4266.37
626.039,4310.47
626.531,4237.9
627.024,4256.03
627.516,4257.0
628.008,4291.27
628.501,4247.37
628.993,4309.07
629.485,4242.53
629.977,4328.4
630.469,4243.5
630.96,4375.4
631.452,4510.57
631.944,4577.77
632.435,4520.47
632.927,4404.0
633.418,4427.17
633.91,4354.17
634.401,4351.37
634.892,4311.6
635.383,4324.93
635.874,4404.5
636.365,4581.13
636.856,4494.57
637.346,4302.37
637.837,4286.47
638.327,4269.43
638.818,4239.7
639.308,4256.53
639.799,4203.0
640.289,4164.0
640.779,4219.47
641.269,4254.67
641.759,4125.4
642.249,4188.47
642.738,4239.3
643.228,4193.47
643.718,4192.03
644.207,4150.77
644.697,4125.5
645.186,4188.57
645.675,4141.9
646.164,4112.77
646.653,4088.2
647.142,4055.13
647.631,4027.1
648.12,4081.17
648.609,4042.8
649.098,3951.37
649.586,3946.4
650.075,3911.7
650.563,4027.23
651.051,3986.1
651.539,3930.03
652.027,3881.07
652.515,3829.5
653.003,3853.87
653.491,3832.17
653.979,3767.43
654.467,3757.7
654.954,3789.73
655.442,3767.57
655.929,3760.1
656.416,3696.3
656.904,3724.27
657.391,3683.77
657.878,3619.03
658.365,3628.0
658.851,3617.17
659.338,3541.0
659.825,3519.8
660.311,3509.47
660.798,3512.3
661.041,3542.63