Folder: MPX_specDB/spectra (part 69)

File: VLFR_06-PET_bio_Raman_2e60d889.csv
nm,Intensity
526.547,832.2
527.095,832.7
527.642,832.7
528.189,831.45
528.736,833.1
529.283,832.65
529.829,831.85
530.376,832.7
530.922,831.7
531.468,831.7
532.014,839.8
532.56,833.4
533.106,833.1
533.651,858.5
534.196,2466.25
534.742,1982.45
535.287,1540.65
535.832,1280.55
536.376,1124.85
536.921,1068.2
537.465,1046.35
538.01,1033.8
538.554,1046.95
539.098,1038.65
539.642,1060.45
540.186,1066.9
540.729,1016.05
541.273,1001.9
541.816,993.8
542.36,998.85
542.903,999.55
543.446,1000.3
543.988,1014.4
544.531,1004.95
545.074,1013.1
545.616,1014.35
546.158,1012.8
546.701,1022.3
547.243,1024.25
547.785,1029.2
548.326,1031.3
548.868,1030.95
549.41,1034.45
549.951,1037.0
550.492,1075.7
551.034,1063.55
551.575,1053.2
552.116,1061.05
552.656,1075.9
553.197,1081.3
553.738,1076.95
554.278,1073.4
554.819,1081.55
555.359,1105.25
555.899,1158.4
556.439,1173.15
556.979,1192.35
557.519,1393.9
558.058,1225.9
558.598,1217.75
559.137,1157.8
559.677,1131.15
560.216,1128.65
560.755,1128.1
561.294,1139.05
561.833,1152.8
562.371,1172.6
562.91,1196.4
563.449,1189.45
563.987,1180.05
564.525,1202.15
565.064,1265.4
565.602,1354.8
566.14,1342.75
566.678,1232.55
567.216,1214.95
567.753,1323.6
568.291,1229.2
568.828,1226.6
569.366,1243.25
569.903,1279.75
570.44,1355.85
570.977,1524.3
571.514,1647.95
572.051,1461.7
572.588,1313.85
573.125,1290.8
573.661,1298.0
574.198,1335.85
574.734,1316.35
575.271,1362.3
575.807,1326.9
576.343,1369.0
576.879,1387.65
577.415,1348.3
577.951,1340.8
578.486,1349.0
579.022,1351.4
579.557,1357.1
580.093,1362.0
580.628,1374.1
581.164,1401.05
581.699,1537.4
582.234,3073.8
582.769,1457.95
583.304,1411.55
583.838,1416.95
584.373,1422.7
584.908,1456.9
585.442,1614.4
585.977,2299.45
586.511,1893.2
587.045,1506.2
587.58,1459.45
588.114,1456.95
588.648,1453.4
589.182,1449.5
589.715,1452.85
590.249,1459.1
590.783,1460.25
591.316,1463.9
591.85,1466.15
592.383,1467.0
592.917,1469.6
593.45,1474.05
593.983,1479.85
594.516,1483.8
595.049,1489.65
595.582,1497.4
596.115,1494.35
596.648,1501.2
597.18,1501.65
597.713,1504.9
598.245,1516.9
598.778,1519.75
599.31,1521.15
599.842,1519.9
600.375,1521.95
600.907,1528.05
601.439,1521.7
601.971,1525.3
602.503,1525.4
603.034,1532.4
603.566,1546.3
604.098,1545.2
604.629,1535.15
605.161,1531.3
605.692,1525.8
606.224,1522.95
606.755,1524.45
607.286,1533.8
607.817,1533.9
608.348,1546.75
608.879,1544.55
609.41,1547.55
609.941,1549.15
610.472,1547.7
611.002,1552.8
611.533,1555.7
612.063,1564.3
612.594,1574.7
613.124,1586.35
613.655,1592.2
614.185,1594.6
614.715,1596.85
615.245,1589.85
615.775,1600.55
616.305,1602.55
616.835,1609.8
617.365,1620.3
617.895,1625.15
618.425,1641.3
618.954,1633.35
619.484,1630.35
620.013,1623.65
620.543,1632.45
621.072,1627.05
621.602,1633.95
622.131,1647.25
622.66,1654.75
623.189,1664.5
623.718,1668.2
624.247,1681.3
624.776,1698.75
625.305,1706.05
625.834,1697.9
626.363,1703.8
626.891,1707.2
627.42,1724.3
627.949,1726.65
628.477,1754.05
629.006,1791.35
629.534,1786.3
630.062,1805.7
630.591,1802.15
631.119,1896.65
631.647,2067.0
632.175,2027.25
632.703,1932.7
633.231,1925.55
633.759,1895.25
634.287,1858.6
634.815,1849.3
635.343,1878.3
635.871,1962.2
636.398,2134.25
636.926,2090.75
637.454,1940.1
637.981,1922.3
638.509,1915.15
639.036,1922.4
639.564,1928.65
640.091,1932.95
640.618,1932.9
641.146,1949.75
641.673,1950.9
642.2,1976.4
642.727,1967.9
643.254,1961.1
643.781,1954.4
644.308,1962.1
644.835,1966.0
645.362,1962.85
645.889,1971.0
646.416,1981.4
646.942,1996.7
647.469,2006.1
647.996,1999.8
648.522,2004.4
649.049,1993.0
649.576,2003.0
650.102,2003.15
650.629,2006.2
651.155,2007.85
651.682,2014.8
652.208,2012.1
652.734,2026.35
653.261,2038.75
653.787,2029.55
654.313,2032.45
654.839,2027.85
655.365,2029.35
655.892,2032.4
656.418,2030.7
656.944,2052.25
657.47,2032.35
657.996,2031.5
658.522,2045.2
659.048,2035.05
659.574,2043.6
660.099,2043.4
660.625,2047.0
661.151,2027.9
661.677,2009.85
662.203,2009.6
662.728,2021.1
663.123,2009.2

File: VLFR_06-PET_bio_Raman_3d1992f5.csv
nm,Intensity
526.508,829.5
527.055,830.8
527.602,830.9
528.149,829.5
528.695,828.9
529.241,829.2
529.787,831.8
530.334,830.8
530.879,830.5
531.425,830.1
531.971,832.5
532.516,831.5
533.062,830.2
533.607,839.9
534.152,2317.7
534.697,1932.1
535.242,1513.1
535.786,1265.7
536.331,1105.9
536.876,1047.7
537.42,1021.1
537.964,1009.0
538.508,1020.5
539.052,1009.7
539.596,1033.3
540.14,1045.2
540.683,991.5
541.227,981.7
541.77,971.6
542.313,976.5
542.856,974.4
543.399,977.4
543.942,988.8
544.485,982.2
545.027,986.1
545.57,983.0
546.112,984.9
546.654,992.3
547.196,994.9
547.738,998.9
548.28,998.9
548.822,992.4
549.363,1001.5
549.905,999.4
550.446,1026.2
550.988,1034.1
551.529,1014.5
552.07,1019.1
552.611,1026.1
553.152,1052.3
553.692,1033.3
554.233,1026.7
554.773,1031.8
555.314,1049.1
555.854,1110.7
556.394,1118.5
556.934,1130.8
557.474,1300.9
558.014,1162.7
558.553,1160.2
559.093,1104.2
559.632,1067.5
560.172,1071.8
560.711,1074.4
561.25,1078.4
561.789,1087.1
562.328,1109.0
562.867,1118.9
563.406,1125.4
563.944,1116.0
564.483,1131.4
565.021,1184.3
565.559,1257.6
566.098,1265.2
566.636,1153.1
567.174,1127.6
567.711,1231.6
568.249,1150.3
568.787,1148.2
569.324,1154.6
569.862,1187.6
570.399,1231.3
570.936,1395.1
571.474,1529.5
572.011,1363.4
572.548,1229.6
573.084,1198.9
573.621,1199.2
574.158,1233.1
574.694,1216.7
575.231,1246.7
575.767,1226.1
576.303,1259.9
576.84,1279.1
577.376,1244.1
577.912,1223.0
578.447,1233.5
578.983,1236.4
579.519,1237.3
580.054,1246.2
580.59,1259.9
581.125,1286.2
581.661,1370.7
582.196,2750.1
582.731,1350.8
583.266,1292.3
583.801,1283.0
584.336,1298.8
584.87,1305.7
585.405,1431.5
585.94,2051.3
586.474,1770.6
587.008,1377.7
587.543,1324.2
588.077,1317.9
588.611,1318.6
589.145,1308.2
589.679,1313.9
590.213,1318.2
590.747,1323.4
591.28,1327.5
591.814,1326.3
592.347,1325.5
592.881,1322.9
593.414,1328.1
593.947,1325.9
594.48,1342.5
595.014,1342.2
595.547,1347.5
596.079,1340.3
596.612,1350.0
597.145,1358.0
597.678,1356.1
598.21,1362.5
598.743,1368.8
599.275,1373.8
599.807,1364.8
600.34,1369.0
600.872,1369.1
601.404,1370.3
601.936,1368.7
602.468,1368.0
603.0,1374.9
603.532,1367.8
604.063,1372.0
604.595,1374.6
605.126,1375.3
605.658,1362.2
606.189,1364.7
606.721,1369.9
607.252,1368.9
607.783,1373.4
608.314,1372.8
608.845,1379.0
609.376,1387.5
609.907,1371.6
610.438,1383.5
610.968,1378.7
611.499,1375.9
612.03,1383.0
612.56,1395.3
613.091,1400.9
613.621,1413.1
614.151,1413.3
614.681,1418.9
615.212,1419.7
615.742,1417.8
616.272,1418.3
616.802,1430.9
617.332,1441.6
617.861,1437.3
618.391,1449.2
618.921,1447.5
619.45,1437.0
619.98,1436.8
620.509,1433.7
621.039,1438.8
621.568,1445.3
622.097,1446.2
622.627,1454.0
623.156,1459.4
623.685,1472.7
624.214,1471.2
624.743,1488.6
625.272,1488.9
625.801,1485.4
626.33,1486.2
626.858,1490.0
627.387,1491.7
627.916,1510.1
628.444,1521.3
628.973,1559.3
629.501,1574.1
630.029,1569.5
630.558,1566.6
631.086,1637.2
631.614,1790.6
632.142,1782.1
632.67,1694.1
633.198,1662.5
633.726,1652.7
634.254,1630.8
634.782,1614.6
635.31,1626.6
635.838,1696.9
636.365,1838.5
636.893,1851.2
637.421,1688.6
637.948,1667.6
638.476,1656.5
639.003,1652.8
639.531,1670.1
640.058,1660.3
640.585,1682.2
641.113,1684.9
641.64,1684.5
642.167,1712.6
642.694,1719.1
643.221,1698.2
643.748,1693.2
644.275,1708.9
644.802,1706.5
645.329,1701.0
645.856,1703.9
646.382,1715.1
646.909,1717.5
647.436,1721.2
647.962,1729.0
648.489,1734.1
649.016,1725.1
649.542,1735.6
650.069,1736.3
650.595,1741.3
651.121,1740.6
651.648,1747.0
652.174,1747.8
652.7,1755.8
653.227,1751.3
653.753,1762.9
654.279,1763.0
654.805,1750.3
655.331,1772.9
655.857,1755.1
656.383,1772.1
656.909,1771.6
657.435,1766.8
657.961,1770.1
658.487,1762.9
659.013,1765.1
659.538,1775.9
660.064,1779.5
660.59,1770.5
661.116,1754.9
661.641,1756.8
662.167,1747.2
662.692,1771.2
663.087,1752.4

File: VLFR_06-PET_bio_Raman_3f8f5d99.csv
nm,Intensity
526.508,830.0
527.055,830.2
527.602,830.5
528.149,828.7
528.695,830.2
529.241,829.7
529.787,830.1
530.334,830.3
530.879,829.5
531.425,832.0
531.971,834.6
532.516,830.0
533.062,828.9
533.607,830.9
534.152,1105.7
534.697,1044.2
535.242,983.6
535.786,951.3
536.331,932.1
536.876,919.4
537.42,919.2
537.964,919.2
538.508,917.6
539.052,917.1
539.596,922.4
540.14,927.6
540.683,920.7
541.227,918.3
541.77,915.7
542.313,916.0
542.856,919.9
543.399,922.6
543.942,918.6
544.485,922.7
545.027,920.0
545.57,922.5
546.112,924.2
546.654,924.3
547.196,928.7
547.738,929.3
548.28,926.8
548.822,929.8
549.363,935.0
549.905,932.9
550.446,935.8
550.988,941.1
551.529,936.8
552.07,939.3
552.611,944.6
553.152,943.5
553.692,940.1
554.233,935.9
554.773,943.8
555.314,942.8
555.854,953.5
556.394,954.8
556.934,958.5
557.474,980.3
558.014,963.6
558.553,959.7
559.093,951.9
559.632,960.3
560.172,956.2
560.711,954.8
561.25,961.4
561.789,956.3
562.328,966.1
562.867,968.5
563.406,969.5
563.944,967.4
564.483,971.0
565.021,980.5
565.559,995.3
566.098,993.2
566.636,977.4
567.174,976.5
567.711,989.9
568.249,983.3
568.787,978.4
569.324,984.6
569.862,988.8
570.399,1000.8
570.936,1021.8
571.474,1037.4
572.011,1010.1
572.548,994.6
573.084,1000.7
573.621,1001.2
574.158,1000.6
574.694,1001.6
575.231,1008.9
575.767,998.0
576.303,1015.4
576.84,1013.7
577.376,1008.4
577.912,1009.3
578.447,1006.7
578.983,1003.5
579.519,1007.8
580.054,1016.9
580.59,1017.6
581.125,1023.9
581.661,1043.2
582.196,1228.4
582.731,1030.2
583.266,1022.3
583.801,1022.7
584.336,1026.0
584.87,1029.8
585.405,1043.2
585.94,1134.8
586.474,1092.0
587.008,1043.7
587.543,1035.1
588.077,1028.9
588.611,1031.0
589.145,1030.6
589.679,1036.3
590.213,1029.2
590.747,1038.4
591.28,1035.0
591.814,1036.6
592.347,1031.7
592.881,1033.4
593.414,1042.0
593.947,1031.9
594.48,1037.6
595.014,1040.5
595.547,1040.7
596.079,1041.5
596.612,1042.8
597.145,1042.7
597.678,1042.9
598.21,1042.9
598.743,1046.2
599.275,1044.3
599.807,1044.5
600.34,1044.9
600.872,1044.9
601.404,1042.7
601.936,1043.1
602.468,1052.9
603.0,1044.5
603.532,1045.4
604.063,1045.8
604.595,1045.0
605.126,1049.0
605.658,1032.8
606.189,1044.5
606.721,1043.0
607.252,1047.1
607.783,1040.3
608.314,1051.0
608.845,1040.6
609.376,1049.4
609.907,1042.4
610.438,1043.3
610.968,1043.4
611.499,1042.7
612.03,1048.4
612.56,1052.1
613.091,1055.1
613.621,1057.1
614.151,1054.5
614.681,1052.5
615.212,1047.7
615.742,1053.4
616.272,1053.3
616.802,1061.1
617.332,1058.1
617.861,1058.4
618.391,1061.3
618.921,1057.1
619.45,1062.8
619.98,1063.5
620.509,1060.8
621.039,1063.1
621.568,1056.9
622.097,1054.8
622.627,1067.9
623.156,1068.3
623.685,1066.8
624.214,1069.3
624.743,1071.0
625.272,1067.5
625.801,1074.6
626.33,1069.0
626.858,1075.4
627.387,1073.7
627.916,1081.1
628.444,1079.6
628.973,1085.1
629.501,1083.3
630.029,1088.4
630.558,1085.3
631.086,1102.1
631.614,1123.2
632.142,1118.8
632.67,1102.9
633.198,1101.2
633.726,1095.9
634.254,1095.3
634.782,1091.3
635.31,1090.2
635.838,1106.6
636.365,1128.6
636.893,1132.9
637.421,1104.7
637.948,1100.0
638.476,1095.4
639.003,1102.1
639.531,1104.8
640.058,1108.3
640.585,1107.7
641.113,1106.1
641.64,1106.3
642.167,1109.8
642.694,1111.3
643.221,1109.2
643.748,1102.6
644.275,1100.8
644.802,1106.3
645.329,1106.3
645.856,1111.3
646.382,1108.7
646.909,1114.0
647.436,1110.3
647.962,1107.7
648.489,1110.0
649.016,1106.2
649.542,1112.7
650.069,1110.4
650.595,1102.7
651.121,1102.7
651.648,1110.3
652.174,1108.3
652.7,1116.8
653.227,1110.8
653.753,1116.1
654.279,1110.2
654.805,1112.4
655.331,1112.3
655.857,1119.7
656.383,1110.6
656.909,1120.5
657.435,1116.1
657.961,1118.7
658.487,1118.5
659.013,1113.6
659.538,1113.4
660.064,1118.1
660.59,1113.9
661.116,1108.0
661.641,1117.7
662.167,1110.4
662.692,1109.2
663.087,1102.4

File: VLFR_06-PET_bio_Raman_5a0947cf.csv
nm,Intensity
528.635,1840.4
529.14,1840.5
529.645,1840.5
530.151,1843.0
530.656,1842.5
531.161,1844.7
531.666,1886.9
532.171,3930.5
532.676,1846.2
533.181,1864.4
533.686,4486.6
534.191,10814.2
534.696,8499.4
535.201,6184.1
535.705,4629.4
536.21,3606.5
536.715,3230.8
537.219,3001.9
537.724,2903.5
538.228,2946.3
538.733,2946.2
539.237,2992.7
539.741,3224.7
540.246,2951.3
540.75,2747.7
541.254,2637.7
541.758,2588.0
542.262,2628.5
542.766,2649.7
543.27,2607.1
543.774,2702.6
544.278,2635.7
544.781,2687.7
545.285,2693.8
545.789,2709.5
546.292,2733.1
546.796,2739.3
547.299,2785.8
547.803,2755.0
548.306,2785.2
548.809,2818.2
549.313,2802.3
549.816,2808.5
550.319,3046.5
550.822,3681.8
551.325,2925.8
551.828,2921.1
552.331,2980.5
552.834,3537.3
553.337,2992.7
553.839,3043.3
554.342,3031.0
554.845,3077.7
555.347,3391.2
555.85,3771.1
556.352,3846.0
556.854,3966.3
557.357,5228.1
557.859,4575.5
558.361,4233.7
558.863,3798.9
559.365,3402.9
559.867,3368.5
560.369,3324.8
560.871,3391.1
561.373,3497.6
561.875,3581.7
562.377,3665.1
562.878,3844.4
563.38,3801.9
563.881,3674.4
564.383,3732.5
564.884,4212.5
565.386,4865.4
565.887,5209.8
566.388,4210.1
566.889,3781.1
567.391,4223.2
567.892,4437.2
568.393,3908.9
568.893,3900.5
569.394,3985.0
569.895,4245.1
570.396,4875.9
570.897,6396.7
571.397,7382.4
571.898,5663.3
572.398,4645.4
572.899,4186.3
573.399,4221.4
573.899,4365.9
574.399,4342.5
574.9,4384.5
575.4,4817.8
575.9,4404.2
576.4,4801.8
576.899,4720.8
577.399,4434.7
577.899,4353.2
578.399,4388.0
578.898,4305.1
579.398,4388.9
579.897,4450.2
580.397,4577.6
580.896,4803.7
581.396,5116.1
581.895,10985.1
582.394,9758.6
582.893,4904.2
583.392,4715.5
583.891,4794.2
584.39,4807.5
584.889,5026.6
585.387,6627.1
585.886,11356.1
586.385,8835.5
586.883,5413.1
587.382,4987.7
587.88,4853.9
588.379,4804.8
588.877,4796.1
589.375,4797.8
589.873,4794.3
590.371,4787.9
590.869,4822.4
591.367,4846.1
591.865,4832.6
592.363,4880.4
592.86,4865.9
593.358,4900.8
593.856,4886.1
594.353,4929.0
594.851,4952.9
595.348,4926.5
595.845,4989.5
596.342,5006.9
596.84,5024.5
597.337,4962.2
597.834,4951.5
598.331,4974.9
598.827,5037.7
599.324,5037.4
599.821,5045.3
600.318,5047.7
600.814,5025.2
601.311,5111.8
601.807,5007.9
602.303,5121.0
602.8,5117.5
603.296,5140.6
603.792,5117.1
604.288,4979.8
604.784,5170.5
605.28,5105.9
605.776,5105.2
606.272,5124.7
606.767,5221.6
607.263,5057.1
607.758,5130.5
608.254,5126.9
608.749,5172.4
609.244,5229.4
609.74,5122.6
610.235,5116.6
610.73,5149.4
611.225,5124.3
611.72,5161.7
612.215,5126.3
612.709,5158.0
613.204,5181.0
613.699,5173.7
614.193,5216.6
614.688,5205.6
615.182,5223.6
615.676,5227.2
616.171,5360.3
616.665,5307.6
617.159,5285.0
617.653,5324.2
618.147,5325.5
618.641,5430.1
619.134,5346.6
619.628,5435.4
620.122,5385.0
620.615,5288.3
621.109,5400.8
621.602,5412.6
622.095,5316.0
622.588,5554.9
623.082,5479.4
623.575,5456.7
624.068,5553.6
624.56,5626.9
625.053,5610.3
625.546,5551.3
626.039,5510.3
626.531,5572.0
627.024,5603.3
627.516,5629.5
628.008,5750.7
628.501,5916.2
628.993,6098.7
629.485,6223.0
629.977,6070.9
630.469,6092.0
630.961,6561.7
631.452,7709.1
631.944,7803.9
632.436,7358.6
632.927,6936.1
633.418,6861.8
633.91,6597.9
634.401,6300.7
634.892,6409.4
635.383,6452.5
635.874,7014.5
636.365,8491.6
636.856,7613.9
637.347,6817.2
637.837,6467.8
638.328,6470.7
638.818,6375.4
639.309,6290.1
639.799,6361.3
640.289,6345.1
640.78,6250.0
641.27,6358.4
641.76,6302.4
642.249,6512.9
642.739,6454.9
643.229,6316.6
643.719,6461.8
644.208,6441.0
644.698,6330.8
645.187,6304.0
645.676,6433.0
646.165,6290.0
646.655,6265.7
647.144,6342.4
647.633,6361.1
648.121,6459.6
648.61,6364.0
649.099,6584.5
649.587,6262.3
650.076,6083.4
650.564,6401.3
651.053,6364.2
651.541,6183.0
652.029,6170.4
652.517,6105.2
653.005,5948.3
653.493,6011.6
653.981,6106.1
654.468,5980.7
654.956,6029.8
655.444,5914.4
655.931,6018.2
656.418,5925.4
656.906,5836.8
657.393,5790.7
657.88,5776.1
658.367,5708.0
658.854,5615.7
659.341,5517.3
659.827,5491.6
660.314,5445.4
660.8,5356.4
661.044,5485.6

File: VLFR_06-PET_bio_Raman_5ae87d83.csv
nm,Intensity
528.65,1847.45
529.155,1848.95
529.66,1847.8
530.165,1847.3
530.67,1847.5
531.175,1850.85
531.68,1875.8
532.185,3118.3
532.69,1850.8
533.194,1856.6
533.699,3049.6
534.204,5389.15
534.708,4473.5
535.213,3754.45
535.717,3166.35
536.222,2777.25
536.726,2680.35
537.231,2590.1
537.735,2589.5
538.239,2626.35
538.743,2651.7
539.247,2671.2
539.751,2775.7
540.255,2658.55
540.759,2586.05
541.263,2541.9
541.767,2525.25
542.271,2545.15
542.775,2591.0
543.279,2571.95
543.782,2608.95
544.286,2578.85
544.789,2591.65
545.293,2619.4
545.796,2598.3
546.3,2610.9
546.803,2606.35
547.306,2658.3
547.81,2669.5
548.313,2672.55
548.816,2658.85
549.319,2683.25
549.822,2653.3
550.325,2749.65
550.828,3028.6
551.331,2728.7
551.834,2723.35
552.337,2713.75
552.839,2992.7
553.342,2773.7
553.844,2761.45
554.347,2762.05
554.849,2799.5
555.352,2900.25
555.854,3024.0
556.357,3110.9
556.859,3127.95
557.361,3643.5
557.863,3341.2
558.365,3197.3
558.867,3091.5
559.369,2920.75
559.871,2893.0
560.373,2914.9
560.875,2943.25
561.377,2944.3
561.878,3007.3
562.38,3053.9
562.881,3129.75
563.383,3144.4
563.884,3048.3
564.386,3124.55
564.887,3313.3
565.388,3615.15
565.89,3797.8
566.391,3337.85
566.892,3193.5
567.393,3338.15
567.894,3410.75
568.395,3224.45
568.896,3237.65
569.396,3304.35
569.897,3438.8
570.398,3764.3
570.898,4322.15
571.399,4850.0
571.9,4090.1
572.4,3652.45
572.9,3500.8
573.401,3509.7
573.901,3582.5
574.401,3588.95
574.901,3593.5
575.401,3747.75
575.901,3625.75
576.401,3815.95
576.901,3815.85
577.401,3611.45
577.901,3563.35
578.4,3589.25
578.9,3666.3
579.399,3669.0
579.899,3737.8
580.398,3752.35
580.898,3780.8
581.397,4008.0
581.896,6495.75
582.395,5957.8
582.895,3907.25
583.394,3877.8
583.893,3807.85
584.391,3908.5
584.89,3939.35
585.389,4650.6
585.888,6669.7
586.386,5479.2
586.885,4170.3
587.384,3926.35
587.882,3916.95
588.38,3909.3
588.879,3925.35
589.377,3891.3
589.875,3882.3
590.373,3886.25
590.871,3917.7
591.369,3888.4
591.867,3895.4
592.365,3964.15
592.863,3913.55
593.361,3908.6
593.858,3919.55
594.356,3959.75
594.853,3942.0
595.351,3987.3
595.848,4015.4
596.345,3965.25
596.843,3998.05
597.34,3984.2
597.837,3989.7
598.334,3949.8
598.831,3986.2
599.328,4070.3
599.824,3990.05
600.321,4008.35
600.818,4097.7
601.314,4060.7
601.811,4063.95
602.307,4020.6
602.804,4040.55
603.3,4090.65
603.796,4071.25
604.293,4074.65
604.789,4079.55
605.285,4054.7
605.781,4129.9
606.277,4059.55
606.772,4076.4
607.268,4126.7
607.764,4114.65
608.259,4101.25
608.755,4126.55
609.25,4126.55
609.746,4135.2
610.241,4135.5
610.736,4176.15
611.231,4201.2
611.727,4166.9
612.222,4178.3
612.716,4166.5
613.211,4173.55
613.706,4116.0
614.201,4195.35
614.695,4215.85
615.19,4264.6
615.684,4187.3
616.179,4307.05
616.673,4250.2
617.168,4293.2
617.662,4249.2
618.156,4363.25
618.65,4325.6
619.144,4347.8
619.638,4258.3
620.131,4263.0
620.625,4310.65
621.119,4273.55
621.612,4397.1
622.106,4341.1
622.599,4406.35
623.093,4389.8
623.586,4438.6
624.079,4379.5
624.572,4422.8
625.065,4518.4
625.558,4493.1
626.051,4449.6
626.544,4458.65
627.037,4412.35
627.529,4487.5
628.022,4571.55
628.514,4662.8
629.007,4791.9
629.499,4742.3
629.991,4622.8
630.483,4723.1
630.976,5036.95
631.468,5726.2
631.959,5619.25
632.451,5349.5
632.943,5167.9
633.435,5116.2
633.926,5029.75
634.418,4952.15
634.909,4875.9
635.401,4947.4
635.892,5362.9
636.383,5926.25
636.874,5625.15
637.365,5158.95
637.856,4862.8
638.347,4980.2
638.838,4970.75
639.329,4870.45
639.819,4886.9
640.31,4870.55
640.8,4863.25
641.291,4872.0
641.781,4901.85
642.271,4950.45
642.761,4952.25
643.251,4770.75
643.741,4923.7
644.231,4915.25
644.721,4858.35
645.211,4921.55
645.7,4918.4
646.19,4951.8
646.679,4945.05
647.169,4815.4
647.658,4974.4
648.147,4858.35
648.636,4715.85
649.125,4772.2
649.614,4727.2
650.103,4927.2
650.592,4801.8
651.08,4765.15
651.569,4762.8
652.058,4871.0
652.546,4763.55
653.034,4612.85
653.523,4674.05
654.011,4665.1
654.499,4635.4
654.987,4649.75
655.475,4539.7
655.963,4649.75
656.45,4598.4
656.938,4540.1
657.425,4574.95
657.913,4452.5
658.4,4435.95
658.888,4442.5
659.375,4382.35
659.862,4444.3
660.349,4354.15
660.836,4243.2
661.079,4305.75

File: VLFR_06-PET_bio_Raman_5d772afa.csv
nm,Intensity
526.493,829.1
527.039,829.4
527.586,829.1
528.133,829.65
528.679,829.1
529.225,829.35
529.771,829.1
530.317,830.1
530.863,828.5
531.409,828.6
531.955,830.5
532.5,830.0
533.046,829.05
533.591,837.6
534.136,1831.85
534.681,1547.45
535.226,1264.75
535.771,1094.3
536.315,991.0
536.86,946.15
537.404,932.1
537.948,921.85
538.493,926.65
539.037,926.75
539.58,937.45
540.124,938.9
540.668,907.6
541.211,895.3
541.755,889.7
542.298,890.0
542.841,891.85
543.384,889.35
543.927,899.5
544.47,889.15
545.013,893.9
545.555,893.45
546.098,894.8
546.64,896.35
547.182,896.75
547.724,897.8
548.266,898.45
548.808,901.75
549.35,898.4
549.892,903.35
550.433,912.1
550.974,918.4
551.516,907.95
552.057,905.55
552.598,912.3
553.139,924.25
553.68,911.3
554.22,910.2
554.761,913.85
555.301,925.2
555.842,957.95
556.382,959.8
556.922,966.8
557.462,1065.9
558.002,987.95
558.542,982.1
559.082,947.3
559.621,927.15
560.161,925.35
560.7,931.35
561.239,930.8
561.778,936.7
562.317,945.9
562.856,957.85
563.395,955.5
563.934,946.15
564.472,954.3
565.011,983.9
565.549,1031.2
566.088,1032.5
566.626,967.0
567.164,954.6
567.702,1009.75
568.24,961.85
568.777,956.25
569.315,959.8
569.853,979.2
570.39,1012.95
570.927,1109.9
571.465,1193.55
572.002,1078.55
572.539,999.9
573.076,979.95
573.612,978.25
574.149,998.7
574.686,984.15
575.222,1003.4
575.759,988.35
576.295,1006.25
576.831,1018.1
577.367,996.15
577.903,982.1
578.439,986.95
578.975,984.75
579.511,990.85
580.046,991.75
580.582,999.5
581.117,1009.1
581.653,1068.05
582.188,1935.05
582.723,1043.65
583.258,1007.55
583.793,1005.7
584.328,1012.55
584.863,1018.3
585.398,1091.9
585.932,1483.0
586.467,1307.75
587.001,1051.5
587.535,1017.35
588.07,1014.8
588.604,1014.6
589.138,1013.65
589.672,1007.65
590.206,1009.25
590.739,1010.4
591.273,1009.95
591.807,1010.6
592.34,1007.9
592.873,1011.05
593.407,1008.9
593.94,1012.55
594.473,1010.7
595.006,1014.5
595.539,1015.75
596.072,1017.2
596.605,1018.95
597.138,1024.25
597.67,1017.5
598.203,1023.45
598.735,1020.55
599.268,1019.35
599.8,1020.15
600.332,1026.6
600.865,1025.05
601.397,1020.55
601.929,1022.2
602.46,1024.65
602.992,1025.55
603.524,1024.8
604.056,1027.55
604.587,1023.2
605.119,1025.25
605.65,1016.6
606.182,1022.75
606.713,1021.15
607.244,1017.75
607.775,1014.05
608.306,1023.05
608.837,1023.5
609.368,1020.75
609.899,1026.2
610.43,1026.15
610.961,1026.15
611.491,1024.9
612.022,1027.8
612.552,1028.35
613.083,1033.95
613.613,1035.3
614.143,1039.75
614.673,1037.5
615.203,1032.7
615.734,1036.8
616.263,1036.9
616.793,1039.55
617.323,1043.5
617.853,1044.55
618.383,1049.15
618.912,1045.3
619.442,1039.6
619.971,1041.45
620.501,1041.45
621.03,1033.75
621.56,1043.4
622.089,1045.55
622.618,1048.85
623.147,1048.25
623.676,1048.65
624.205,1053.0
624.734,1060.4
625.263,1058.3
625.792,1063.0
626.321,1057.25
626.849,1056.95
627.378,1062.0
627.906,1063.85
628.435,1078.7
628.963,1095.75
629.492,1097.2
630.02,1088.2
630.548,1092.35
631.077,1144.25
631.605,1247.45
632.133,1235.7
632.661,1169.55
633.189,1153.8
633.717,1148.7
634.245,1121.1
634.773,1110.1
635.3,1114.9
635.828,1164.9
636.356,1261.5
636.883,1265.1
637.411,1148.4
637.938,1118.8
638.466,1116.75
638.993,1113.8
639.521,1117.95
640.048,1116.4
640.575,1118.5
641.103,1119.25
641.63,1123.1
642.157,1135.35
642.684,1133.0
643.211,1124.75
643.738,1124.45
644.265,1119.25
644.792,1125.75
645.319,1123.1
645.845,1121.65
646.372,1135.25
646.899,1132.2
647.425,1133.3
647.952,1138.1
648.479,1133.9
649.005,1138.7
649.532,1138.8
650.058,1137.75
650.585,1133.75
651.111,1141.8
651.637,1139.8
652.164,1141.25
652.69,1145.65
653.216,1143.3
653.742,1144.45
654.268,1144.15
654.794,1145.05
655.32,1144.25
655.846,1146.8
656.372,1141.4
656.898,1148.25
657.424,1148.2
657.95,1143.05
658.476,1149.4
659.002,1149.7
659.528,1150.25
660.053,1156.65
660.579,1158.1
661.105,1145.15
661.63,1146.0
662.156,1150.95
662.681,1144.8
663.076,1145.6