Folder: MPX_specDB/spectra (part 36)

File: VLFR_02-HDPE_bio_Raman_9f3aff18.csv
nm,Intensity
528.629,1852.7
529.134,1852.85
529.639,1851.4
530.145,1853.4
530.65,1852.45
531.155,1853.85
531.66,1875.1
532.165,2573.5
532.67,1853.75
533.175,1852.3
533.68,1865.15
534.185,1900.75
534.69,1896.85
535.195,1893.2
535.699,1882.6
536.204,1881.85
536.709,1880.0
537.213,1877.05
537.718,1878.8
538.222,1877.2
538.727,1877.45
539.231,1874.25
539.735,1876.2
540.239,1877.95
540.744,1873.6
541.248,1872.35
541.752,1877.15
542.256,1876.75
542.76,1875.85
543.264,1875.9
543.768,1873.55
544.271,1877.75
544.775,1875.9
545.279,1876.4
545.783,1874.6
546.286,1876.85
546.79,1876.5
547.293,1876.25
547.797,1879.2
548.3,1876.45
548.803,1881.35
549.306,1878.25
549.81,1878.15
550.313,1878.4
550.816,1880.35
551.319,1878.35
551.822,1880.05
552.325,1882.05
552.828,1879.25
553.33,1881.0
553.833,1879.6
554.336,1880.35
554.838,1881.35
555.341,1884.2
555.843,1883.45
556.346,1883.0
556.848,1885.15
557.35,1885.95
557.853,1886.2
558.355,1887.05
558.857,1887.45
559.359,1892.6
559.861,1887.45
560.363,1888.25
560.865,1887.5
561.367,1888.3
561.869,1886.35
562.37,1891.35
562.872,1891.3
563.374,1897.2
563.875,1968.65
564.376,1915.35
564.878,1904.1
565.379,1904.6
565.881,1963.8
566.382,1964.5
566.883,1897.8
567.384,1902.05
567.885,1896.5
568.386,1895.15
568.887,1895.3
569.388,1896.8
569.888,1899.9
570.389,1899.75
570.89,1901.5
571.39,2033.65
571.891,1923.55
572.391,1905.05
572.892,1895.8
573.392,1898.95
573.892,1908.9
574.393,1897.6
574.893,1899.75
575.393,1973.9
575.893,1957.25
576.393,1986.85
576.893,1960.95
577.392,1920.95
577.892,1901.1
578.392,1895.25
578.891,1896.9
579.391,1896.25
579.89,1898.3
580.39,1896.85
580.889,1899.05
581.388,1897.9
581.888,1898.85
582.387,1896.15
582.886,1891.6
583.385,1894.15
583.884,1895.1
584.383,1896.6
584.881,1892.65
585.38,1893.55
585.879,1893.4
586.377,1894.45
586.876,1893.25
587.374,1894.1
587.873,1894.35
588.371,1893.65
588.869,1895.9
589.368,1894.7
589.866,1894.05
590.364,1895.3
590.862,1894.0
591.36,1896.35
591.857,1892.25
592.355,1899.8
592.853,1895.05
593.35,1897.1
593.848,1894.1
594.345,1898.0
594.843,1893.95
595.34,1901.0
595.837,1900.95
596.335,1897.65
596.832,1894.45
597.329,1898.8
597.826,1898.75
598.323,1899.65
598.819,1900.5
599.316,1901.7
599.813,1902.6
600.309,1901.2
600.806,1900.45
601.302,1899.75
601.799,1903.6
602.295,1904.8
602.791,1900.15
603.288,1900.2
603.784,1900.2
604.28,1897.0
604.776,1899.05
605.272,1894.85
605.767,1898.55
606.263,1895.05
606.759,1897.25
607.254,1897.3
607.75,1897.65
608.245,1898.2
608.74,1897.25
609.236,1895.15
609.731,1894.3
610.226,1894.85
610.721,1901.35
611.216,1899.15
611.711,1900.25
612.206,1896.55
612.7,1896.8
613.195,1893.6
613.69,1895.0
614.184,1892.35
614.679,1896.3
615.173,1894.6
615.667,1896.25
616.161,1895.35
616.656,1895.2
617.15,1903.4
617.644,1899.25
618.137,1902.6
618.631,1901.85
619.125,1902.25
619.619,1903.8
620.112,1904.6
620.606,1909.55
621.099,1908.4
621.592,1928.6
622.086,1942.9
622.579,1930.35
623.072,1911.45
623.565,1905.2
624.058,1906.45
624.551,1906.15
625.043,1905.65
625.536,1910.95
626.029,1931.45
626.521,2033.6
627.014,2513.75
627.506,2425.8
627.998,2304.25
628.49,2563.2
628.983,2269.8
629.475,2198.2
629.966,2100.55
630.458,2099.5
630.95,1987.95
631.442,1928.65
631.933,1917.95
632.425,1908.2
632.916,1905.65
633.408,1900.35
633.899,1898.45
634.39,1891.45
634.881,1893.8
635.372,1889.3
635.863,1889.75
636.354,1892.1
636.845,1889.35
637.336,1886.1
637.826,1882.9
638.317,1886.5
638.807,1884.75
639.298,1886.25
639.788,1883.9
640.278,1885.25
640.768,1882.5
641.258,1884.3
641.748,1883.05
642.238,1881.5
642.728,1882.5
643.217,1880.25
643.707,1880.55
644.197,1883.95
644.686,1883.15
645.175,1880.75
645.664,1880.2
646.154,1880.9
646.643,1877.6
647.132,1877.95
647.621,1880.7
648.109,1883.15
648.598,1883.25
649.087,1878.55
649.575,1879.75
650.064,1879.05
650.552,1880.9
651.04,1877.45
651.528,1875.6
652.017,1877.75
652.505,1877.2
652.992,1878.65
653.48,1877.55
653.968,1874.5
654.456,1879.2
654.943,1879.35
655.431,1875.35
655.918,1876.55
656.405,1874.45
656.893,1873.5
657.38,1877.05
657.867,1874.1
658.354,1876.7
658.84,1874.55
659.327,1871.65
659.814,1873.85
660.3,1872.65
660.787,1873.05
661.03,1873.85

File: VLFR_02-HDPE_bio_Raman_16d68728.csv
nm,Intensity
528.65,1855.8
529.155,1855.85
529.66,1854.7
530.165,1855.65
530.67,1856.5
531.175,1857.2
531.68,1887.75
532.185,2982.3
532.69,1855.25
533.194,1855.7
533.699,1903.55
534.204,2035.6
534.708,2037.6
535.213,2070.4
535.717,2084.35
536.222,2082.1
536.726,2044.9
537.231,2071.2
537.735,2055.9
538.239,2061.2
538.743,2047.0
539.247,2046.4
539.751,2041.85
540.255,2035.6
540.759,2047.95
541.263,2057.3
541.767,2053.4
542.271,2048.1
542.775,2063.2
543.279,2054.6
543.782,2080.05
544.286,2118.6
544.789,2067.45
545.293,2073.3
545.796,2087.95
546.3,2272.95
546.803,2148.7
547.306,2084.45
547.81,2077.45
548.313,2085.2
548.816,2090.45
549.319,2104.4
549.822,2125.0
550.325,2188.5
550.828,2096.7
551.331,2092.6
551.834,2103.5
552.337,2094.4
552.839,2084.5
553.342,2088.3
553.844,2087.65
554.347,2091.8
554.849,2098.75
555.352,2099.25
555.854,2101.4
556.357,2107.95
556.859,2114.75
557.361,2104.8
557.863,2109.1
558.365,2118.25
558.867,2112.4
559.369,2113.85
559.871,2117.05
560.373,2120.2
560.875,2137.0
561.377,2142.1
561.878,2273.7
562.38,3471.7
562.881,2171.95
563.383,2153.9
563.884,2217.95
564.386,2185.75
564.887,2184.65
565.388,2171.7
565.89,2221.65
566.391,2310.75
566.892,2194.65
567.393,2191.05
567.894,2179.05
568.395,2165.6
568.896,2176.1
569.396,2169.8
569.897,2180.35
570.398,2199.9
570.898,2199.75
571.399,2346.25
571.9,2247.4
572.4,2219.1
572.9,2214.35
573.401,2206.8
573.901,2225.95
574.401,2224.5
574.901,2227.65
575.401,2283.1
575.901,2326.35
576.401,2425.95
576.901,2368.7
577.401,2327.15
577.901,2290.25
578.4,2303.35
578.9,2319.0
579.399,2357.5
579.899,2367.9
580.398,2396.35
580.898,2411.25
581.397,2434.2
581.896,2480.9
582.395,2495.7
582.895,2529.3
583.394,2549.55
583.893,2594.05
584.391,2617.5
584.89,2629.85
585.389,2659.3
585.888,2652.2
586.386,2677.35
586.885,2706.25
587.384,2727.4
587.882,2737.75
588.38,2778.7
588.879,2776.8
589.377,2791.75
589.875,2829.2
590.373,2878.7
590.871,2894.1
591.369,2951.2
591.867,2981.25
592.365,3008.75
592.863,3063.25
593.361,3064.5
593.858,3103.45
594.356,3127.0
594.853,3193.35
595.351,3264.05
595.848,3292.15
596.345,3350.55
596.843,3397.65
597.34,3447.9
597.837,3488.75
598.334,3502.65
598.831,3536.25
599.328,3624.35
599.824,3653.0
600.321,3660.85
600.818,3689.55
601.314,3648.6
601.811,3676.9
602.307,3668.35
602.804,3673.4
603.3,3569.4
603.796,3603.25
604.293,3544.65
604.789,3470.8
605.285,3442.2
605.781,3400.3
606.277,3340.8
606.772,3284.7
607.268,3255.45
607.764,3218.25
608.259,3165.1
608.755,3137.95
609.25,3108.55
609.746,3036.4
610.241,3043.6
610.736,2983.4
611.231,3002.7
611.727,2984.05
612.222,2937.25
612.716,2910.0
613.211,2880.75
613.706,2863.65
614.201,2884.65
614.695,2855.1
615.19,2815.15
615.684,2814.95
616.179,2779.9
616.673,2772.7
617.168,2775.95
617.662,2745.7
618.156,2732.5
618.65,2752.9
619.144,2741.65
619.638,2734.55
620.131,2717.7
620.625,2702.65
621.119,2689.6
621.612,2714.35
622.106,2713.3
622.599,2709.7
623.093,2663.85
623.586,2641.7
624.079,2631.15
624.572,2634.4
625.065,2608.2
625.558,2628.25
626.051,2636.7
626.544,2764.4
627.037,3345.4
627.529,3228.65
628.022,3000.7
628.514,3652.85
629.007,3185.05
629.499,2995.75
629.991,2844.3
630.483,2840.05
630.976,2704.5
631.468,2606.65
631.959,2583.55
632.451,2573.7
632.943,2578.6
633.435,2577.3
633.926,2577.05
634.418,2547.5
634.909,2541.4
635.401,2577.0
635.892,2545.65
636.383,2551.6
636.874,2543.35
637.365,2548.8
637.856,2560.6
638.347,2561.65
638.838,2562.75
639.329,2557.2
639.819,2561.85
640.31,2567.6
640.8,2558.75
641.291,2599.6
641.781,2575.35
642.271,2590.1
642.761,2602.45
643.251,2580.75
643.741,2608.4
644.231,2627.55
644.721,2594.65
645.211,2611.5
645.7,2593.2
646.19,2600.2
646.679,2634.65
647.169,2650.9
647.658,2611.95
648.147,2627.55
648.636,2673.15
649.125,2680.8
649.614,2716.1
650.103,2763.2
650.592,2728.45
651.08,2687.35
651.569,2630.65
652.058,2649.75
652.546,2639.9
653.034,2666.75
653.523,2652.1
654.011,2629.2
654.499,2613.95
654.987,2605.4
655.475,2618.1
655.963,2587.95
656.45,2554.4
656.938,2547.6
657.425,2528.0
657.913,2505.15
658.4,2473.7
658.888,2494.15
659.375,2444.95
659.862,2459.95
660.349,2420.55
660.836,2392.4
661.079,2398.2

File: VLFR_02-HDPE_bio_Raman_29be2997.csv
nm,Intensity
528.629,1850.6
529.134,1850.25
529.639,1850.6
530.145,1850.8
530.65,1850.85
531.155,1851.9
531.66,1878.55
532.165,2838.4
532.67,1851.95
533.175,1850.85
533.68,1883.55
534.185,1964.3
534.69,1966.35
535.195,1959.55
535.699,1932.0
536.204,1924.2
536.709,1926.15
537.213,1924.25
537.718,1919.7
538.222,1923.05
538.727,1933.35
539.231,1942.95
539.735,1918.15
540.239,1917.55
540.744,1915.85
541.248,1914.5
541.752,1917.2
542.256,1919.4
542.76,1926.95
543.264,1918.5
543.768,1919.0
544.271,1913.55
544.775,1911.95
545.279,1915.7
545.783,1913.6
546.286,1922.0
546.79,1921.3
547.293,1921.05
547.797,1920.8
548.3,1919.95
548.803,1925.05
549.306,1922.7
549.81,1926.2
550.313,1927.95
550.816,1935.8
551.319,1934.0
551.822,1927.7
552.325,1929.6
552.828,1931.55
553.33,1929.7
553.833,1931.8
554.336,1931.55
554.838,1934.7
555.341,1936.5
555.843,1940.15
556.346,1936.6
556.848,1934.15
557.35,1940.8
557.853,1941.4
558.355,1940.7
558.857,1944.4
559.359,1939.9
559.861,1947.7
560.363,1938.55
560.865,1936.75
561.367,1941.05
561.869,1947.65
562.37,1952.85
562.872,1954.15
563.374,1962.0
563.875,2084.45
564.376,1988.0
564.878,1978.75
565.379,1975.25
565.881,2061.0
566.382,2063.6
566.883,1969.55
567.384,1984.35
567.885,1961.35
568.386,1962.0
568.887,1962.3
569.388,1963.2
569.888,1965.45
570.389,1974.85
570.89,1984.9
571.39,2190.0
571.891,2032.0
572.391,1986.85
572.892,1964.15
573.392,1969.65
573.892,1983.35
574.393,1964.4
574.893,1967.65
575.393,2082.1
575.893,2065.2
576.393,2126.85
576.893,2073.25
577.392,2013.05
577.892,1966.25
578.392,1964.05
578.891,1961.0
579.391,1960.45
579.89,1964.25
580.39,1963.5
580.889,1965.6
581.388,1965.0
581.888,1960.5
582.387,1958.1
582.886,1955.55
583.385,1955.55
583.884,1957.7
584.383,1952.8
584.881,1951.35
585.38,1951.65
585.879,1956.3
586.377,1953.55
586.876,1948.4
587.374,1955.05
587.873,1952.65
588.371,1956.0
588.869,1954.65
589.368,1953.9
589.866,1951.1
590.364,1960.65
590.862,1947.55
591.36,1953.55
591.857,1957.6
592.355,1958.05
592.853,1962.55
593.35,1963.0
593.848,1960.1
594.345,1960.9
594.843,1959.4
595.34,1964.75
595.837,1967.35
596.335,1964.85
596.832,1973.8
597.329,1963.05
597.826,1970.15
598.323,1969.5
598.819,1978.05
599.316,1979.5
599.813,1974.3
600.309,1974.05
600.806,1965.4
601.302,1972.05
601.799,1972.7
602.295,1975.65
602.791,1980.1
603.288,1981.4
603.784,1978.55
604.28,1979.95
604.776,1978.2
605.272,1978.7
605.767,1973.5
606.263,1969.85
606.759,1972.3
607.254,1973.7
607.75,1975.2
608.245,1973.45
608.74,1967.05
609.236,1970.5
609.731,1966.15
610.226,1968.55
610.721,1974.0
611.216,1974.0
611.711,1970.8
612.206,1976.15
612.7,1969.15
613.195,1967.85
613.69,1973.9
614.184,1962.35
614.679,1972.95
615.173,1966.0
615.667,1971.05
616.161,1966.95
616.656,1968.25
617.15,1982.45
617.644,1979.95
618.137,1971.6
618.631,1987.8
619.125,1981.45
619.619,1988.3
620.112,1984.6
620.606,1983.65
621.099,2002.55
621.592,2019.85
622.086,2050.7
622.579,2038.2
623.072,1996.65
623.565,1986.55
624.058,1985.45
624.551,1985.75
625.043,1985.35
625.536,2001.05
626.029,2029.4
626.521,2201.5
627.014,3149.2
627.506,2885.05
627.998,2683.65
628.49,3249.55
628.983,2593.0
629.475,2482.85
629.966,2322.25
630.458,2303.6
630.95,2140.95
631.442,2024.0
631.933,1997.3
632.425,1991.0
632.916,1976.05
633.408,1970.25
633.899,1968.15
634.39,1969.7
634.881,1956.5
635.372,1956.3
635.863,1955.65
636.354,1951.35
636.845,1950.85
637.336,1949.55
637.826,1948.3
638.317,1945.75
638.807,1946.35
639.298,1945.15
639.788,1947.6
640.278,1948.55
640.768,1942.0
641.258,1946.25
641.748,1940.8
642.238,1938.55
642.728,1939.05
643.217,1939.05
643.707,1939.15
644.197,1936.35
644.686,1940.4
645.175,1937.35
645.664,1940.05
646.154,1943.9
646.643,1943.9
647.132,1942.25
647.621,1938.1
648.109,1937.2
648.598,1945.05
649.087,1939.05
649.575,1945.05
650.064,1939.25
650.552,1940.65
651.04,1933.6
651.528,1941.3
652.017,1931.8
652.505,1936.5
652.992,1940.2
653.48,1927.6
653.968,1933.85
654.456,1931.1
654.943,1928.7
655.431,1925.6
655.918,1920.65
656.405,1926.9
656.893,1922.5
657.38,1920.3
657.867,1916.75
658.354,1916.2
658.84,1917.8
659.327,1918.15
659.814,1918.65
660.3,1909.9
660.787,1910.65
661.03,1915.35

File: VLFR_02-HDPE_bio_Raman_30a2274a.csv
nm,Intensity
526.494,833.96
527.041,834.32
527.588,834.26
528.135,833.96
528.682,834.5
529.229,835.1
529.775,834.16
530.321,834.02
530.868,834.12
531.414,834.54
531.96,850.14
532.506,836.86
533.051,834.86
533.597,834.4
534.142,853.54
534.687,852.52
535.232,851.12
535.777,848.52
536.322,846.7
536.867,846.78
537.411,846.32
537.956,845.64
538.5,845.8
539.044,847.54
539.588,847.22
540.132,845.76
540.676,845.58
541.22,845.24
541.763,845.1
542.306,843.96
542.85,843.48
543.393,843.62
543.936,845.44
544.479,846.74
545.021,850.82
545.564,847.44
546.106,845.64
546.649,844.54
547.191,844.2
547.733,844.74
548.275,844.74
548.817,844.86
549.359,845.76
549.9,845.64
550.442,847.26
550.983,847.24
551.524,845.18
552.066,845.44
552.607,845.02
553.148,844.64
553.688,844.88
554.229,845.96
554.77,844.98
555.31,844.84
555.85,844.5
556.39,845.56
556.931,845.2
557.471,844.52
558.01,846.04
558.55,845.6
559.09,845.26
559.629,845.4
560.169,845.84
560.708,845.6
561.247,846.94
561.786,846.5
562.325,847.82
562.864,869.0
563.403,868.62
563.941,852.48
564.48,846.82
565.018,849.52
565.557,848.42
566.095,854.62
566.633,847.72
567.171,848.92
567.709,849.46
568.247,849.96
568.784,849.2
569.322,847.62
569.859,847.68
570.397,847.16
570.934,847.12
571.471,855.92
572.008,848.62
572.545,848.26
573.082,847.56
573.619,847.88
574.155,849.88
574.692,848.42
575.228,849.36
575.765,852.5
576.301,856.84
576.837,853.38
577.373,852.14
577.909,849.16
578.445,849.1
578.981,849.02
579.516,848.76
580.052,849.66
580.587,849.36
581.123,850.32
581.658,850.6
582.193,850.02
582.728,852.02
583.263,850.72
583.798,850.92
584.333,851.4
584.868,851.38
585.402,851.98
585.937,852.86
586.471,852.52
587.005,853.62
587.54,853.3
588.074,852.72
588.608,853.16
589.142,852.26
589.676,853.36
590.21,853.52
590.743,854.04
591.277,854.26
591.81,853.9
592.344,854.72
592.877,853.96
593.411,855.06
593.944,855.2
594.477,855.64
595.01,856.82
595.543,856.3
596.076,856.88
596.608,857.34
597.141,857.86
597.674,857.54
598.206,860.12
598.739,859.0
599.271,859.9
599.803,860.18
600.335,860.24
600.868,860.38
601.4,860.02
601.931,859.94
602.463,861.2
602.995,861.54
603.527,859.78
604.058,860.3
604.59,859.96
605.121,858.9
605.653,858.9
606.184,859.0
606.715,857.3
607.246,856.42
607.778,857.92
608.309,857.42
608.839,857.02
609.37,857.3
609.901,858.56
610.432,857.5
610.962,856.52
611.493,856.54
612.023,857.02
612.554,857.12
613.084,855.86
613.614,856.04
614.145,857.44
614.675,856.66
615.205,857.6
615.735,855.7
616.265,856.3
616.795,857.18
617.324,856.62
617.854,856.92
618.384,856.38
618.913,856.74
619.443,856.6
619.972,856.42
620.502,857.46
621.031,858.58
621.56,858.2
622.089,860.04
622.618,859.8
623.147,857.04
623.676,855.84
624.205,857.16
624.734,857.58
625.263,856.68
625.792,857.5
626.32,860.02
626.849,877.3
627.377,912.46
627.906,886.96
628.434,902.9
628.963,890.52
629.491,882.84
630.019,875.24
630.547,873.28
631.076,863.3
631.604,858.08
632.132,856.32
632.66,856.82
633.188,856.6
633.715,856.78
634.243,856.92
634.771,855.62
635.299,856.64
635.826,855.42
636.354,856.56
636.881,856.48
637.409,856.9
637.936,855.78
638.464,856.8
638.991,858.5
639.518,856.84
640.045,856.68
640.573,856.66
641.1,857.42
641.627,857.92
642.154,859.26
642.681,858.5
643.208,858.56
643.735,859.02
644.261,858.44
644.788,857.5
645.315,858.82
645.842,858.6
646.368,858.22
646.895,859.5
647.421,860.76
647.948,860.32
648.474,861.9
649.001,860.98
649.527,861.14
650.054,862.06
650.58,860.6
651.106,861.62
651.633,859.76
652.159,861.16
652.685,862.58
653.211,861.98
653.737,859.42
654.263,859.14
654.789,858.06
655.315,857.86
655.841,855.9
656.367,856.08
656.893,856.24
657.419,856.18
657.945,856.32
658.47,855.72
658.996,855.24
659.522,854.66
660.047,854.4
660.573,853.86
661.099,853.78
661.624,852.02
662.15,852.68
662.675,853.22
663.07,852.34

File: VLFR_02-HDPE_bio_Raman_37ae104b.csv
nm,Intensity
526.494,834.7
527.041,834.4
527.588,834.6
528.135,834.8
528.682,835.2
529.229,834.1
529.775,835.5
530.321,834.9
530.868,833.7
531.414,834.8
531.96,845.9
532.506,836.1
533.051,835.2
533.597,834.0
534.142,886.6
534.687,886.6
535.232,881.0
535.777,867.0
536.322,860.2
536.867,856.2
537.411,855.0
537.956,856.7
538.5,853.9
539.044,852.6
539.588,853.6
540.132,851.6
540.676,851.4
541.22,849.6
541.763,848.7
542.306,850.0
542.85,847.3
543.393,849.0
543.936,846.8
544.479,848.6
545.021,847.7
545.564,848.4
546.106,849.1
546.649,847.9
547.191,848.1
547.733,850.2
548.275,846.1
548.817,849.2
549.359,846.2
549.9,850.1
550.442,850.1
550.983,849.7
551.524,847.9
552.066,848.7
552.607,848.8
553.148,849.4
553.688,849.2
554.229,849.1
554.77,851.5
555.31,851.5
555.85,850.9
556.39,852.6
556.931,851.6
557.471,853.8
558.01,853.2
558.55,853.6
559.09,854.0
559.629,855.8
560.169,850.4
560.708,852.8
561.247,854.0
561.786,853.1
562.325,854.1
562.864,854.9
563.403,858.8
563.941,912.7
564.48,869.9
565.018,864.1
565.557,862.4
566.095,896.4
566.633,860.2
567.171,860.0
567.709,862.4
568.247,856.0
568.784,856.5
569.322,855.9
569.859,856.7
570.397,859.3
570.934,863.2
571.471,947.7
572.008,873.7
572.545,861.9
573.082,857.1
573.619,860.0
574.155,863.6
574.692,858.3
575.228,859.2
575.765,884.1
576.301,971.1
576.837,917.7
577.373,902.3
577.909,866.9
578.445,863.5
578.981,863.8
579.516,859.7
580.052,863.3
580.587,860.8
581.123,860.3
581.658,861.0
582.193,863.5
582.728,862.9
583.263,866.3
583.798,863.7
584.333,867.6
584.868,867.7
585.402,868.3
585.937,869.9
586.471,871.8
587.005,870.2
587.54,875.2
588.074,875.4
588.608,875.1
589.142,873.7
589.676,875.7
590.21,878.7
590.743,884.3
591.277,883.5
591.81,888.6
592.344,889.4
592.877,889.6
593.411,887.0
593.944,892.8
594.477,891.0
595.01,895.4
595.543,892.4
596.076,893.1
596.608,894.4
597.141,898.6
597.674,894.5
598.206,895.7
598.739,894.1
599.271,898.6
599.803,897.6
600.335,895.0
600.868,893.9
601.4,892.6
601.931,896.7
602.463,892.5
602.995,890.2
603.527,889.4
604.058,887.5
604.59,886.4
605.121,884.5
605.653,881.6
606.184,882.9
606.715,880.6
607.246,877.9
607.778,877.9
608.309,879.2
608.839,879.0
609.37,878.7
609.901,875.8
610.432,877.4
610.962,875.2
611.493,873.8
612.023,874.8
612.554,875.9
613.084,873.3
613.614,875.4
614.145,875.2
614.675,874.7
615.205,874.6
615.735,874.2
616.265,874.3
616.795,879.0
617.324,879.1
617.854,877.5
618.384,878.7
618.913,877.7
619.443,879.4
619.972,880.1
620.502,884.0
621.031,887.7
621.56,897.4
622.089,921.4
622.618,917.8
623.147,894.6
623.676,881.7
624.205,883.2
624.734,879.4
625.263,881.5
625.792,892.3
626.32,917.9
626.849,1157.6
627.377,1502.6
627.906,1236.0
628.434,1461.1
628.963,1221.1
629.491,1137.4
630.019,1048.0
630.547,1035.0
631.076,941.3
631.604,894.6
632.132,883.7
632.66,879.8
633.188,875.1
633.715,874.1
634.243,871.7
634.771,872.2
635.299,868.8
635.826,868.5
636.354,869.2
636.881,866.0
637.409,866.0
637.936,865.1
638.464,863.8
638.991,866.2
639.518,865.6
640.045,862.8
640.573,865.6
641.1,864.2
641.627,863.8
642.154,866.5
642.681,867.2
643.208,864.2
643.735,863.6
644.261,863.4
644.788,864.9
645.315,864.9
645.842,863.6
646.368,866.3
646.895,862.7
647.421,866.9
647.948,862.2
648.474,863.6
649.001,864.4
649.527,864.3
650.054,865.1
650.58,865.4
651.106,866.7
651.633,864.9
652.159,863.0
652.685,865.7
653.211,864.7
653.737,860.9
654.263,861.7
654.789,862.4
655.315,858.9
655.841,863.0
656.367,858.8
656.893,859.4
657.419,861.3
657.945,858.1
658.47,860.2
658.996,859.9
659.522,860.8
660.047,859.8
660.573,858.4
661.099,858.0
661.624,855.5
662.15,856.7
662.675,857.1
663.07,856.2

File: VLFR_02-HDPE_bio_Raman_37f9e83a.csv
nm,Intensity
526.549,830.55
527.096,830.45
527.643,829.95
528.19,831.1
528.737,829.65
529.283,830.7
529.83,831.1
530.376,831.25
530.922,830.6
531.468,829.6
532.014,842.2
532.559,830.75
533.105,830.4
533.65,832.35
534.196,892.75
534.741,885.85
535.286,879.5
535.83,862.35
536.375,855.55
536.92,854.65
537.464,852.45
538.008,853.35
538.553,851.7
539.097,847.75
539.641,846.8
540.184,845.35
540.728,843.9
541.271,845.75
541.815,846.55
542.358,846.2
542.901,845.75
543.444,845.0
543.987,846.2
544.53,845.1
545.072,845.75
545.615,844.1
546.157,846.45
546.699,845.65
547.242,845.4
547.784,844.7
548.325,846.2
548.867,844.3
549.409,845.75
549.95,845.05
550.492,845.85
551.033,844.4
551.574,845.35
552.115,845.2
552.656,845.85
553.197,846.55
553.737,847.5
554.278,848.45
554.818,846.8
555.358,849.2
555.899,848.85
556.439,850.05
556.979,851.45
557.518,852.35
558.058,854.55
558.598,854.1
559.137,852.9
559.677,854.15
560.216,852.3
560.755,851.6
561.294,850.95
561.833,853.5
562.372,853.7
562.91,856.15
563.449,858.1
563.987,955.3
564.526,875.4
565.064,868.85
565.602,865.25
566.14,988.65
566.678,865.85
567.216,860.15
567.754,861.45
568.291,857.55
568.829,856.15
569.366,858.55
569.904,860.3
570.441,863.55
570.978,867.1
571.515,1026.95
572.052,883.0
572.589,866.6
573.125,864.55
573.662,865.6
574.199,869.5
574.735,864.9
575.271,873.5
575.807,915.55
576.344,997.45
576.88,940.4
577.415,912.2
577.951,884.5
578.487,881.5
579.023,883.8
579.558,888.45
580.094,889.6
580.629,889.9
581.164,889.75
581.699,894.45
582.234,898.35
582.769,899.65
583.304,901.65
583.839,902.5
584.374,903.45
584.908,908.3
585.443,914.05
585.977,914.35
586.511,916.35
587.046,922.7
587.58,925.6
588.114,927.55
588.648,932.35
589.182,932.2
589.716,936.8
590.249,940.0
590.783,943.7
591.316,950.25
591.85,951.0
592.383,956.75
592.917,954.15
593.45,956.95
593.983,958.35
594.516,958.5
595.049,960.9
595.582,961.55
596.115,960.5
596.647,964.65
597.18,967.9
597.712,966.85
598.245,970.8
598.777,967.1
599.31,968.9
599.842,972.7
600.374,968.05
600.906,966.1
601.438,968.25
601.97,969.5
602.502,963.4
603.034,963.75
603.565,959.75
604.097,962.3
604.628,953.8
605.16,951.0
605.691,946.3
606.223,942.55
606.754,942.45
607.285,941.65
607.816,937.1
608.347,933.8
608.878,930.8
609.409,931.45
609.94,928.15
610.47,928.05
611.001,927.35
611.532,925.85
612.062,921.2
612.593,922.9
613.123,922.25
613.653,919.95
614.184,919.65
614.714,917.5
615.244,916.7
615.774,917.1
616.304,915.2
616.834,917.05
617.364,918.8
617.894,922.25
618.423,917.85
618.953,915.75
619.482,919.6
620.012,923.35
620.541,917.1
621.071,921.3
621.6,937.05
622.13,958.4
622.659,954.35
623.188,924.4
623.717,919.8
624.246,917.05
624.775,917.3
625.304,920.8
625.833,928.5
626.362,961.55
626.89,1262.5
627.419,1627.2
627.948,1324.55
628.476,1632.2
629.005,1320.25
629.533,1229.65
630.061,1133.5
630.59,1111.65
631.118,994.25
631.646,936.6
632.175,926.2
632.703,917.3
633.231,917.7
633.759,912.65
634.287,911.5
634.815,910.7
635.342,909.9
635.87,905.85
636.398,906.05
636.926,908.0
637.453,905.6
637.981,903.0
638.509,905.35
639.036,903.75
639.563,905.3
640.091,904.55
640.618,902.55
641.146,904.15
641.673,900.95
642.2,903.4
642.727,905.4
643.254,902.55
643.781,902.4
644.309,900.55
644.836,902.95
645.362,900.8
645.889,901.8
646.416,901.35
646.943,901.85
647.47,900.45
647.997,901.55
648.523,901.95
649.05,903.1
649.577,898.1
650.103,899.25
650.63,897.35
651.156,896.7
651.683,894.75
652.209,898.4
652.735,899.25
653.262,895.8
653.788,896.2
654.314,896.55
654.841,895.7
655.367,896.95
655.893,893.8
656.419,892.15
656.945,891.1
657.471,891.55
657.997,889.85
658.523,889.75
659.049,889.1
659.575,888.9
660.101,888.15
660.627,885.8
661.153,884.45
661.679,883.2
662.205,880.55
662.731,881.8
663.125,879.4