Folder: MPX_specDB/spectra (part 74)

File: VLFR_06-PET_bio_Raman_494e72ec.csv
nm,Intensity
528.637,1840.0
529.143,1840.5
529.648,1838.2
530.153,1840.8
530.659,1839.8
531.164,1842.1
531.669,1881.7
532.174,3970.4
532.679,1846.4
533.184,1861.9
533.689,4717.9
534.194,9895.6
534.699,8037.1
535.203,6066.5
535.708,4370.9
536.213,3500.9
536.717,3150.1
537.222,3039.0
537.726,2946.1
538.231,2985.3
538.735,2942.6
539.24,2973.2
539.744,3205.7
540.248,2988.9
540.752,2800.9
541.256,2684.6
541.761,2697.7
542.265,2713.0
542.769,2723.1
543.272,2723.7
543.776,2766.7
544.28,2764.7
544.784,2787.5
545.288,2805.0
545.791,2837.3
546.295,2837.0
546.798,2849.3
547.302,2830.9
547.805,2849.2
548.308,2902.7
548.812,2905.1
549.315,2904.7
549.818,2932.1
550.321,3165.1
550.824,3682.5
551.327,3039.6
551.83,3065.6
552.333,3122.1
552.836,3644.4
553.339,3117.4
553.842,3174.9
554.344,3187.3
554.847,3197.0
555.349,3497.8
555.852,3851.7
556.354,3982.3
556.857,4045.2
557.359,5258.0
557.861,4464.6
558.363,4198.5
558.866,3972.2
559.368,3527.7
559.87,3492.8
560.372,3492.5
560.873,3539.8
561.375,3646.0
561.877,3921.9
562.379,4437.1
562.88,4072.5
563.382,3958.9
563.883,3832.4
564.385,3960.5
564.886,4386.4
565.388,5000.2
565.889,5285.5
566.39,4430.7
566.891,4047.6
567.392,4401.5
567.893,4532.4
568.394,4053.9
568.895,4057.4
569.396,4191.3
569.897,4499.8
570.398,5072.5
570.898,6430.9
571.399,7313.8
571.899,5799.5
572.4,4752.4
572.9,4444.3
573.4,4392.1
573.901,4643.4
574.401,4532.7
574.901,4533.4
575.401,4980.7
575.901,4658.6
576.401,5069.9
576.901,5027.3
577.401,4709.9
577.9,4525.5
578.4,4598.3
578.9,4628.4
579.399,4717.3
579.899,4660.6
580.398,4823.2
580.897,5014.1
581.397,5375.6
581.896,11335.8
582.395,9506.4
582.894,5213.8
583.393,4951.0
583.892,4921.3
584.391,5067.9
584.889,5304.8
585.388,6918.2
585.887,11273.0
586.385,8974.3
586.884,5694.1
587.382,5212.9
587.881,5139.3
588.379,5178.0
588.877,5144.7
589.375,4969.3
589.874,4991.7
590.372,5037.1
590.87,5021.4
591.367,5104.0
591.865,4993.6
592.363,5169.7
592.861,5097.8
593.358,5071.5
593.856,5123.3
594.353,5118.0
594.851,5089.1
595.348,5140.4
595.845,5253.9
596.342,5238.7
596.84,5261.1
597.337,5167.7
597.833,5240.0
598.33,5280.9
598.827,5287.7
599.324,5182.7
599.821,5296.3
600.317,5392.4
600.814,5399.7
601.31,5339.6
601.807,5334.8
602.303,5315.2
602.799,5377.1
603.295,5362.9
603.791,5363.1
604.287,5326.7
604.783,5343.1
605.279,5363.2
605.775,5375.8
606.271,5453.1
606.766,5421.7
607.262,5404.4
607.757,5454.6
608.253,5448.0
608.748,5337.7
609.243,5429.0
609.738,5422.3
610.233,5445.5
610.729,5537.9
611.223,5405.8
611.718,5554.9
612.213,5443.1
612.708,5431.8
613.202,5470.7
613.697,5550.2
614.192,5481.2
614.686,5635.8
615.18,5424.8
615.675,5578.0
616.169,5579.3
616.663,5609.6
617.157,5600.2
617.651,5720.8
618.145,5680.0
618.638,5697.8
619.132,5672.6
619.626,5647.6
620.119,5724.6
620.613,5680.7
621.106,5597.7
621.599,5700.1
622.093,5782.3
622.586,5668.3
623.079,5789.8
623.572,5674.6
624.065,5813.0
624.558,5814.6
625.05,5946.9
625.543,5782.7
626.036,5756.0
626.528,5804.4
627.02,5729.6
627.513,6032.2
628.005,6137.0
628.497,6188.0
628.989,6502.6
629.481,6355.0
629.973,6297.5
630.465,6238.6
630.957,6891.2
631.449,8019.9
631.94,8119.1
632.432,7457.6
632.923,7113.5
633.414,7039.7
633.906,6883.6
634.397,6447.7
634.888,6410.5
635.379,6724.8
635.87,7353.5
636.361,8616.4
636.852,8041.3
637.342,6939.3
637.833,6647.7
638.323,6500.1
638.814,6439.2
639.304,6496.2
639.794,6428.2
640.285,6569.2
640.775,6546.0
641.265,6412.0
641.755,6437.8
642.244,6641.9
642.734,6463.2
643.224,6445.6
643.713,6618.2
644.203,6488.0
644.692,6511.5
645.181,6565.1
645.671,6455.5
646.16,6358.8
646.649,6520.9
647.138,6458.4
647.627,6541.7
648.115,6409.0
648.604,6421.1
649.093,6357.8
649.581,6323.6
650.07,6277.0
650.558,6293.7
651.046,6298.8
651.534,6344.0
652.023,6398.1
652.511,6134.4
652.998,6117.7
653.486,6012.9
653.974,6178.9
654.462,5978.7
654.949,5962.0
655.437,6062.5
655.924,6012.3
656.411,5799.5
656.898,5874.1
657.385,5913.7
657.872,5909.2
658.359,5792.5
658.846,5797.0
659.333,5507.3
659.82,5443.0
660.306,5688.1
660.793,5609.2
661.036,5529.3

File: VLFR_06-PET_bio_Raman_579f4fae.csv
nm,Intensity
528.626,1864.5
529.132,1865.2
529.637,1866.1
530.143,1864.6
530.648,1865.4
531.153,1867.9
531.658,1930.3
532.164,5216.1
532.669,1869.5
533.174,1882.5
533.679,3853.5
534.184,8906.4
534.689,6841.3
535.194,5343.0
535.699,4092.4
536.203,3260.8
536.708,3026.4
537.213,2922.0
537.717,2838.6
538.222,2831.2
538.726,2869.3
539.231,2855.4
539.735,3043.8
540.239,2904.5
540.744,2707.1
541.248,2652.9
541.752,2647.1
542.256,2622.7
542.76,2619.5
543.264,2620.2
543.768,2674.3
544.272,2640.4
544.776,2662.4
545.28,2692.7
545.784,2690.1
546.287,2689.1
546.791,2680.3
547.294,2733.0
547.798,2733.8
548.301,2738.3
548.805,2765.2
549.308,2771.6
549.811,2727.8
550.315,2889.9
550.818,3401.7
551.321,2789.5
551.824,2846.7
552.327,2878.7
552.83,3314.8
553.333,2886.1
553.835,2889.7
554.338,2911.4
554.841,2952.8
555.343,3136.7
555.846,3469.6
556.349,3500.6
556.851,3632.9
557.353,4491.3
557.856,4048.4
558.358,3728.7
558.86,3516.6
559.362,3202.0
559.864,3129.8
560.366,3134.6
560.868,3189.8
561.37,3258.4
561.872,3270.6
562.374,3444.3
562.876,3524.8
563.377,3456.6
563.879,3326.6
564.38,3403.1
564.882,3794.7
565.383,4239.4
565.885,4648.6
566.386,3813.9
566.887,3540.0
567.388,3748.9
567.889,3941.2
568.391,3565.9
568.892,3528.9
569.392,3666.4
569.893,3891.5
570.394,4306.1
570.895,5344.8
571.395,6286.8
571.896,5027.9
572.397,4179.0
572.897,3850.2
573.397,3831.6
573.898,3994.7
574.398,3877.1
574.898,3974.0
575.398,4290.2
575.898,3969.7
576.398,4298.4
576.898,4259.8
577.398,4015.5
577.898,3948.8
578.398,3967.0
578.897,3992.0
579.397,3977.9
579.896,3981.7
580.396,4078.0
580.895,4243.0
581.395,4554.0
581.894,8758.6
582.393,8456.4
582.892,4336.6
583.391,4190.3
583.89,4250.7
584.389,4332.0
584.888,4446.8
585.387,5629.5
585.886,9222.7
586.384,7486.4
586.883,4782.6
587.381,4414.7
587.88,4337.1
588.378,4361.8
588.876,4319.6
589.375,4339.8
589.873,4289.3
590.371,4290.1
590.869,4392.3
591.367,4311.4
591.865,4378.3
592.363,4404.6
592.86,4477.6
593.358,4341.7
593.856,4413.4
594.353,4418.8
594.851,4412.6
595.348,4480.8
595.845,4505.9
596.342,4509.1
596.84,4603.2
597.337,4560.7
597.834,4626.2
598.331,4602.3
598.828,4601.8
599.324,4697.0
599.821,4661.8
600.318,4711.6
600.814,4723.3
601.311,4739.4
601.807,4776.8
602.304,4800.2
602.8,4811.4
603.296,4768.0
603.792,4835.0
604.288,4982.7
604.784,4934.7
605.28,4845.2
605.776,4969.6
606.272,4972.7
606.767,4924.2
607.263,5031.9
607.759,4979.5
608.254,4982.9
608.749,5104.0
609.245,5039.5
609.74,5104.9
610.235,5180.8
610.73,5134.5
611.225,5203.3
611.72,5260.0
612.215,5124.7
612.71,5153.4
613.204,5227.1
613.699,5163.4
614.194,5252.0
614.688,5236.8
615.182,5272.2
615.677,5229.4
616.171,5356.1
616.665,5368.0
617.159,5301.6
617.653,5327.1
618.147,5463.1
618.641,5337.9
619.135,5392.6
619.628,5338.8
620.122,5348.2
620.615,5281.5
621.109,5293.7
621.602,5384.4
622.095,5296.2
622.589,5292.9
623.082,5415.3
623.575,5404.9
624.068,5394.0
624.561,5475.1
625.053,5553.2
625.546,5444.9
626.039,5468.1
626.531,5365.9
627.024,5377.3
627.516,5426.8
628.008,5512.8
628.501,5617.8
628.993,5789.6
629.485,5700.3
629.977,5728.4
630.469,5637.9
630.96,6026.6
631.452,6805.2
631.944,7040.4
632.435,6620.1
632.927,6192.2
633.418,6229.8
633.91,5943.8
634.401,5768.1
634.892,5740.8
635.383,5808.8
635.874,6373.2
636.365,7381.3
636.856,6998.5
637.346,6125.4
637.837,5698.1
638.327,5831.0
638.818,5757.1
639.308,5610.9
639.799,5605.8
640.289,5674.2
640.779,5632.5
641.269,5624.8
641.759,5732.6
642.249,5837.5
642.738,5768.5
643.228,5556.5
643.718,5736.3
644.207,5651.8
644.697,5522.2
645.186,5711.6
645.675,5712.0
646.164,5564.7
646.653,5576.4
647.142,5513.0
647.631,5686.9
648.12,5658.7
648.609,5509.3
649.098,5728.4
649.586,5459.5
650.075,5316.4
650.563,5457.0
651.051,5380.8
651.539,5610.1
652.027,5515.6
652.515,5458.0
653.003,5281.3
653.491,5355.2
653.979,5332.1
654.467,5239.3
654.954,5165.3
655.442,5412.8
655.929,5294.1
656.416,5157.9
656.904,5173.2
657.391,5125.5
657.878,5041.1
658.365,5035.1
658.851,5188.6
659.338,4867.1
659.825,4997.5
660.311,4944.8
660.798,4966.2
661.041,4934.3

File: VLFR_06-PET_bio_Raman_711b8232.csv
nm,Intensity
528.626,1867.0
529.132,1867.6
529.637,1868.1
530.143,1866.6
530.648,1867.4
531.153,1867.6
531.658,1907.2
532.164,4477.2
532.669,1871.2
533.174,1875.6
533.679,2554.0
534.184,4815.5
534.689,3990.1
535.194,3386.4
535.699,2850.2
536.203,2535.2
536.708,2441.4
537.213,2410.1
537.717,2369.4
538.222,2378.1
538.726,2384.6
539.231,2410.8
539.735,2449.3
540.239,2410.9
540.744,2320.0
541.248,2318.3
541.752,2297.8
542.256,2313.8
542.76,2329.7
543.264,2312.3
543.768,2367.8
544.272,2342.9
544.776,2348.0
545.28,2368.4
545.784,2357.7
546.287,2348.8
546.791,2388.0
547.294,2407.7
547.798,2392.4
548.301,2392.5
548.805,2428.6
549.308,2437.6
549.811,2418.1
550.315,2474.6
550.818,2733.5
551.321,2472.7
551.824,2482.6
552.327,2482.3
552.83,2661.5
553.333,2527.4
553.835,2541.6
554.338,2528.7
554.841,2552.2
555.343,2614.4
555.846,2810.3
556.349,2836.3
556.851,2891.1
557.353,3193.4
557.856,3034.1
558.358,2905.1
558.86,2810.5
559.362,2720.3
559.864,2688.9
560.366,2670.6
560.868,2715.8
561.37,2770.2
561.872,2758.8
562.374,2790.5
562.876,2862.7
563.377,2865.1
563.879,2806.4
564.38,2804.7
564.882,2978.3
565.383,3149.6
565.885,3291.6
566.386,2989.9
566.887,2946.2
567.388,3053.6
567.889,3067.5
568.391,2932.5
568.892,2937.0
569.392,2971.9
569.893,3053.8
570.394,3252.7
570.895,3672.7
571.395,4021.4
571.896,3580.4
572.397,3267.6
572.897,3143.6
573.397,3095.6
573.898,3159.9
574.398,3094.8
574.898,3148.4
575.398,3293.0
575.898,3184.8
576.398,3354.5
576.898,3423.3
577.398,3225.4
577.898,3169.3
578.398,3174.5
578.897,3168.6
579.397,3187.1
579.896,3224.8
580.396,3222.0
580.895,3305.8
581.395,3414.8
581.894,5083.3
582.393,5235.2
582.892,3331.2
583.391,3307.9
583.89,3319.6
584.389,3331.4
584.888,3409.0
585.387,3826.4
585.886,5225.6
586.384,4587.5
586.883,3565.3
587.381,3380.2
587.88,3369.9
588.378,3363.4
588.876,3324.0
589.375,3313.1
589.873,3295.9
590.371,3328.6
590.869,3322.9
591.367,3325.9
591.865,3344.1
592.363,3347.0
592.86,3331.3
593.358,3332.9
593.856,3315.2
594.353,3335.9
594.851,3329.2
595.348,3372.2
595.845,3392.4
596.342,3365.2
596.84,3359.1
597.337,3355.9
597.834,3382.8
598.331,3371.5
598.828,3361.7
599.324,3405.9
599.821,3338.5
600.318,3401.8
600.814,3383.0
601.311,3367.0
601.807,3405.8
602.304,3398.7
602.8,3438.1
603.296,3382.9
603.792,3415.5
604.288,3382.8
604.784,3428.8
605.28,3402.7
605.776,3387.4
606.272,3442.9
606.767,3411.1
607.263,3382.5
607.759,3394.7
608.254,3421.8
608.749,3430.2
609.245,3427.3
609.74,3445.7
610.235,3416.1
610.73,3439.1
611.225,3442.5
611.72,3396.6
612.215,3439.7
612.71,3450.0
613.204,3399.7
613.699,3464.9
614.194,3465.7
614.688,3422.6
615.182,3480.2
615.677,3489.1
616.171,3445.6
616.665,3519.6
617.159,3492.2
617.653,3539.1
618.147,3541.3
618.641,3509.7
619.135,3545.7
619.628,3529.4
620.122,3534.9
620.615,3539.0
621.109,3538.5
621.602,3509.0
622.095,3564.1
622.589,3573.5
623.082,3579.7
623.575,3550.0
624.068,3623.5
624.561,3595.8
625.053,3623.8
625.546,3630.6
626.039,3630.7
626.531,3700.9
627.024,3814.4
627.516,3719.0
628.008,3996.9
628.501,4197.0
628.993,4068.2
629.485,4116.1
629.977,3988.7
630.469,3919.3
630.96,4046.0
631.452,4573.8
631.944,4507.2
632.435,4100.9
632.927,4065.9
633.418,3999.3
633.91,3921.1
634.401,3872.9
634.892,3759.4
635.383,3844.7
635.874,4048.2
636.365,4465.8
636.856,4298.4
637.346,4032.6
637.837,3849.5
638.327,3850.6
638.818,3791.1
639.308,3840.0
639.799,3811.2
640.289,3801.5
640.779,3816.8
641.269,3692.4
641.759,3814.5
642.249,3873.9
642.738,3827.1
643.228,3715.0
643.718,3828.4
644.207,3821.0
644.697,3750.2
645.186,3753.3
645.675,3749.7
646.164,3748.5
646.653,3784.9
647.142,3718.9
647.631,3703.0
648.12,3733.4
648.609,3686.7
649.098,3658.8
649.586,3622.9
650.075,3677.9
650.563,3687.5
651.051,3652.6
651.539,3692.6
652.027,3591.8
652.515,3646.5
653.003,3570.2
653.491,3602.2
653.979,3508.4
654.467,3517.5
654.954,3565.0
655.442,3499.3
655.929,3511.2
656.416,3537.1
656.904,3471.1
657.391,3411.2
657.878,3378.7
658.365,3369.7
658.851,3365.0
659.338,3334.4
659.825,3292.9
660.311,3282.8
660.798,3290.4
661.041,3324.0

File: VLFR_06-PET_bio_Raman_742b656d.csv
nm,Intensity
526.493,828.35
527.039,827.95
527.586,829.1
528.133,828.75
528.679,829.95
529.225,829.05
529.771,828.7
530.317,829.8
530.863,829.25
531.409,829.5
531.955,830.9
532.5,829.1
533.046,829.1
533.591,829.75
534.136,1017.6
534.681,941.95
535.226,938.7
535.771,935.3
536.315,900.55
536.86,884.3
537.404,883.2
537.948,895.15
538.493,891.2
539.037,874.1
539.58,871.35
540.124,876.05
540.668,877.6
541.211,877.75
541.755,875.05
542.298,875.25
542.841,877.7
543.384,882.4
543.927,882.05
544.47,880.05
545.013,878.4
545.555,882.0
546.098,881.1
546.64,881.05
547.182,884.15
547.724,887.65
548.266,886.4
548.808,887.8
549.35,890.65
549.892,890.7
550.433,893.85
550.974,896.8
551.516,900.65
552.057,899.5
552.598,893.55
553.139,889.3
553.68,888.6
554.22,889.0
554.761,888.25
555.301,889.6
555.842,892.8
556.382,893.15
556.922,896.6
557.462,899.75
558.002,897.3
558.542,897.35
559.082,897.45
559.621,897.9
560.161,898.0
560.7,900.85
561.239,898.45
561.778,903.25
562.317,901.1
562.856,901.25
563.395,903.8
563.934,903.5
564.472,905.8
565.011,908.5
565.549,911.3
566.088,913.4
566.626,910.1
567.164,909.8
567.702,913.2
568.24,911.55
568.777,913.35
569.315,914.95
569.853,918.65
570.39,919.95
570.927,924.85
571.465,929.45
572.002,925.15
572.539,921.7
573.076,922.55
573.612,919.4
574.149,923.0
574.686,922.95
575.222,926.7
575.759,925.8
576.295,927.05
576.831,928.9
577.367,931.3
577.903,927.65
578.439,929.0
578.975,930.6
579.511,934.2
580.046,932.7
580.582,935.95
581.117,934.95
581.653,941.7
582.188,988.5
582.723,952.75
583.258,973.1
583.793,942.25
584.328,941.5
584.863,945.55
585.398,944.4
585.932,967.4
586.467,957.9
587.001,944.85
587.535,946.25
588.07,945.4
588.604,947.2
589.138,943.4
589.672,948.8
590.206,946.75
590.739,947.25
591.273,947.0
591.807,949.4
592.34,946.1
592.873,950.75
593.407,947.75
593.94,949.7
594.473,947.4
595.006,949.3
595.539,951.3
596.072,948.7
596.605,950.65
597.138,950.85
597.67,952.3
598.203,953.55
598.735,953.2
599.268,958.1
599.8,957.35
600.332,956.65
600.865,956.05
601.397,955.05
601.929,956.5
602.46,955.7
602.992,956.05
603.524,960.35
604.056,958.1
604.587,960.2
605.119,955.75
605.65,957.7
606.182,953.35
606.713,957.35
607.244,952.5
607.775,955.95
608.306,954.5
608.837,958.4
609.368,957.5
609.899,954.7
610.43,957.05
610.961,955.75
611.491,959.85
612.022,957.25
612.552,957.8
613.083,959.1
613.613,960.95
614.143,957.7
614.673,961.4
615.203,961.45
615.734,961.85
616.263,959.9
616.793,962.05
617.323,962.0
617.853,961.85
618.383,962.8
618.912,959.9
619.442,962.9
619.971,960.9
620.501,960.9
621.03,967.55
621.56,962.25
622.089,964.15
622.618,966.05
623.147,967.45
623.676,967.95
624.205,967.8
624.734,968.6
625.263,970.05
625.792,970.4
626.321,970.2
626.849,970.9
627.378,971.25
627.906,972.3
628.435,974.75
628.963,974.65
629.492,977.1
630.02,974.9
630.548,977.9
631.077,981.3
631.605,988.65
632.133,990.95
632.661,987.0
633.189,984.1
633.717,982.8
634.245,986.4
634.773,987.2
635.3,987.95
635.828,989.0
636.356,995.95
636.883,996.3
637.411,990.8
637.938,992.25
638.466,989.35
638.993,993.95
639.521,994.7
640.048,996.7
640.575,999.3
641.103,1001.5
641.63,1004.3
642.157,1007.05
642.684,1011.6
643.211,1015.5
643.738,1013.75
644.265,1011.3
644.792,1012.3
645.319,1010.8
645.845,1017.65
646.372,1021.75
646.899,1033.7
647.425,1038.4
647.952,1059.8
648.479,1081.25
649.005,1118.7
649.532,1149.35
650.058,1170.4
650.585,1204.5
651.111,1242.65
651.637,1206.9
652.164,1150.1
652.69,1107.45
653.216,1082.35
653.742,1066.7
654.268,1051.7
654.794,1041.4
655.32,1031.85
655.846,1025.4
656.372,1017.1
656.898,1012.9
657.424,1011.6
657.95,1004.8
658.476,1005.7
659.002,1000.45
659.528,998.7
660.053,997.9
660.579,997.1
661.105,993.65
661.63,992.9
662.156,987.0
662.681,993.3
663.076,987.75

File: VLFR_06-PET_bio_Raman_1869aea0.csv
nm,Intensity
526.493,829.0
527.039,828.3
527.586,828.95
528.133,828.3
528.679,829.2
529.225,828.9
529.771,829.7
530.317,829.4
530.863,829.65
531.409,829.65
531.955,831.45
532.5,830.15
533.046,829.85
533.591,837.05
534.136,1813.1
534.681,1626.45
535.226,1408.35
535.771,1299.5
536.315,1232.1
536.86,1200.65
537.404,1185.75
537.948,1186.75
538.493,1195.05
539.037,1199.05
539.58,1206.5
540.124,1211.1
540.668,1188.55
541.211,1187.2
541.755,1192.7
542.298,1193.45
542.841,1203.9
543.384,1206.4
543.927,1213.65
544.47,1213.0
545.013,1216.45
545.555,1221.1
546.098,1228.3
546.64,1232.35
547.182,1238.45
547.724,1242.85
548.266,1244.85
548.808,1251.45
549.35,1254.7
549.892,1256.35
550.433,1273.15
550.974,1279.65
551.516,1271.75
552.057,1278.3
552.598,1285.75
553.139,1292.3
553.68,1292.3
554.22,1290.95
554.761,1289.95
555.301,1304.9
555.842,1331.75
556.382,1338.05
556.922,1350.45
557.462,1414.7
558.002,1369.6
558.542,1353.1
559.082,1338.15
559.621,1330.75
560.161,1342.05
560.7,1340.0
561.239,1343.2
561.778,1349.1
562.317,1360.1
562.856,1367.45
563.395,1380.15
563.934,1389.35
564.472,1397.4
565.011,1425.2
565.549,1457.8
566.088,1462.75
566.626,1422.45
567.164,1414.05
567.702,1464.2
568.24,1426.1
568.777,1432.25
569.315,1453.95
569.853,1469.8
570.39,1500.7
570.927,1566.55
571.465,1617.35
572.002,1537.7
572.539,1499.15
573.076,1492.2
573.612,1507.45
574.149,1512.95
574.686,1511.5
575.222,1529.55
575.759,1517.3
576.295,1536.7
576.831,1553.1
577.367,1537.7
577.903,1538.6
578.439,1547.4
578.975,1565.15
579.511,1562.75
580.046,1579.0
580.582,1577.75
581.117,1587.5
581.653,1630.55
582.188,2241.4
582.723,1592.85
583.258,1563.5
583.793,1544.2
584.328,1549.6
584.863,1556.5
585.398,1604.05
585.932,1889.35
586.467,1772.8
587.001,1590.15
587.535,1568.9
588.07,1554.5
588.604,1557.45
589.138,1557.5
589.672,1551.75
590.206,1552.3
590.739,1560.9
591.273,1557.3
591.807,1556.85
592.34,1562.15
592.873,1560.1
593.407,1561.3
593.94,1552.45
594.473,1570.9
595.006,1569.4
595.539,1573.65
596.072,1573.6
596.605,1579.9
597.138,1581.25
597.67,1574.55
598.203,1586.65
598.735,1596.5
599.268,1591.25
599.8,1592.75
600.332,1588.65
600.865,1583.1
601.397,1581.1
601.929,1579.35
602.46,1577.8
602.992,1583.55
603.524,1587.55
604.056,1595.85
604.587,1581.4
605.119,1577.05
605.65,1567.5
606.182,1565.0
606.713,1560.25
607.244,1563.25
607.775,1571.5
608.306,1569.5
608.837,1575.95
609.368,1566.8
609.899,1564.75
610.43,1567.35
610.961,1569.35
611.491,1560.55
612.022,1566.8
612.552,1572.2
613.083,1587.25
613.613,1585.75
614.143,1596.35
614.673,1583.2
615.203,1581.65
615.734,1576.0
616.263,1581.8
616.793,1580.55
617.323,1587.1
617.853,1585.8
618.383,1591.35
618.912,1582.15
619.442,1571.65
619.971,1571.8
620.501,1568.35
621.03,1564.35
621.56,1557.75
622.089,1570.85
622.618,1569.95
623.147,1568.35
623.676,1570.75
624.205,1565.85
624.734,1573.75
625.263,1575.5
625.792,1564.9
626.321,1564.35
626.849,1559.3
627.378,1557.75
627.906,1565.0
628.435,1561.5
628.963,1583.35
629.492,1584.55
630.02,1575.1
630.548,1574.0
631.077,1604.25
631.605,1667.5
632.133,1660.55
632.661,1616.85
633.189,1605.15
633.717,1585.05
634.245,1565.7
634.773,1547.5
635.3,1558.6
635.828,1596.2
636.356,1649.65
636.883,1652.7
637.411,1561.8
637.938,1538.6
638.466,1536.2
638.993,1540.15
639.521,1537.4
640.048,1530.2
640.575,1526.3
641.103,1518.65
641.63,1515.35
642.157,1520.15
642.684,1512.05
643.211,1503.1
643.738,1497.2
644.265,1490.0
644.792,1485.0
645.319,1487.8
645.845,1484.95
646.372,1469.3
646.899,1476.15
647.425,1469.25
647.952,1466.8
648.479,1466.95
649.005,1450.2
649.532,1454.0
650.058,1449.6
650.585,1437.9
651.111,1443.95
651.637,1434.35
652.164,1440.55
652.69,1433.35
653.216,1428.9
653.742,1424.8
654.268,1422.55
654.794,1420.7
655.32,1417.45
655.846,1415.2
656.372,1410.25
656.898,1404.2
657.424,1403.75
657.95,1394.8
658.476,1399.45
659.002,1390.65
659.528,1387.85
660.053,1383.5
660.579,1381.05
661.105,1376.35
661.63,1369.7
662.156,1358.6
662.681,1359.45
663.076,1354.3

File: VLFR_06-PET_bio_Raman_6708e6bd.csv
nm,Intensity
526.493,828.75
527.039,829.9
527.586,829.95
528.133,828.6
528.679,829.25
529.225,828.3
529.771,829.65
530.317,829.4
530.863,829.15
531.409,829.4
531.955,829.5
532.5,829.3
533.046,828.7
533.591,829.65
534.136,950.5
534.681,888.9
535.226,878.65
535.771,877.4
536.315,875.1
536.86,876.35
537.404,889.65
537.948,897.0
538.493,895.85
539.037,879.35
539.58,871.6
540.124,872.95
540.668,870.2
541.211,869.85
541.755,870.2
542.298,871.75
542.841,870.75
543.384,870.45
543.927,873.0
544.47,878.1
545.013,889.1
545.555,893.75
546.098,882.05
546.64,879.5
547.182,881.9
547.724,882.95
548.266,883.95
548.808,887.7
549.35,891.45
549.892,892.85
550.433,892.15
550.974,890.3
551.516,885.5
552.057,882.7
552.598,877.7
553.139,877.45
553.68,877.15
554.22,876.7
554.761,878.95
555.301,875.1
555.842,876.1
556.382,875.25
556.922,876.3
557.462,879.8
558.002,878.2
558.542,879.0
559.082,876.35
559.621,876.85
560.161,877.35
560.7,880.65
561.239,881.6
561.778,884.75
562.317,1045.45
562.856,885.1
563.395,881.65
563.934,883.3
564.472,882.75
565.011,887.95
565.549,890.35
566.088,886.8
566.626,887.4
567.164,892.55
567.702,887.85
568.24,885.5
568.777,884.55
569.315,886.55
569.853,885.15
570.39,887.65
570.927,888.8
571.465,888.2
572.002,888.05
572.539,888.4
573.076,887.35
573.612,889.45
574.149,890.1
574.686,889.1
575.222,889.35
575.759,889.45
576.295,891.2
576.831,891.4
577.367,891.7
577.903,891.6
578.439,890.75
578.975,891.5
579.511,896.3
580.046,893.2
580.582,894.7
581.117,898.05
581.653,899.35
582.188,908.65
582.723,896.05
583.258,898.05
583.793,897.55
584.328,894.6
584.863,898.2
585.398,896.85
585.932,902.45
586.467,899.75
587.001,897.55
587.535,896.2
588.07,898.45
588.604,897.6
589.138,897.05
589.672,897.6
590.206,898.75
590.739,899.1
591.273,900.0
591.807,897.3
592.34,897.35
592.873,897.75
593.407,898.5
593.94,898.45
594.473,899.85
595.006,900.75
595.539,899.4
596.072,899.35
596.605,899.3
597.138,901.25
597.67,900.75
598.203,902.85
598.735,901.65
599.268,903.95
599.8,901.2
600.332,901.0
600.865,901.8
601.397,902.25
601.929,900.2
602.46,901.4
602.992,899.15
603.524,901.5
604.056,902.0
604.587,901.6
605.119,902.7
605.65,899.15
606.182,901.4
606.713,901.75
607.244,899.5
607.775,901.5
608.306,902.9
608.837,901.55
609.368,901.45
609.899,900.8
610.43,900.45
610.961,902.95
611.491,903.5
612.022,899.5
612.552,901.2
613.083,900.95
613.613,904.6
614.143,902.85
614.673,901.15
615.203,902.9
615.734,900.55
616.263,903.05
616.793,900.7
617.323,904.35
617.853,901.55
618.383,902.95
618.912,903.45
619.442,899.55
619.971,901.2
620.501,898.25
621.03,900.25
621.56,902.95
622.089,902.1
622.618,901.75
623.147,902.15
623.676,901.85
624.205,901.9
624.734,904.4
625.263,903.45
625.792,903.0
626.321,902.55
626.849,904.65
627.378,902.95
627.906,899.6
628.435,903.25
628.963,902.25
629.492,901.7
630.02,903.85
630.548,902.35
631.077,905.0
631.605,906.6
632.133,907.15
632.661,904.35
633.189,904.15
633.717,905.9
634.245,901.95
634.773,903.4
635.3,903.9
635.828,906.3
636.356,907.75
636.883,908.55
637.411,907.1
637.938,906.0
638.466,908.65
638.993,907.65
639.521,910.75
640.048,911.95
640.575,913.95
641.103,917.45
641.63,918.15
642.157,921.8
642.684,923.2
643.211,923.9
643.738,927.15
644.265,931.75
644.792,932.85
645.319,935.8
645.845,944.85
646.372,953.95
646.899,962.7
647.425,968.15
647.952,970.0
648.479,968.4
649.005,973.6
649.532,978.05
650.058,971.8
650.585,965.4
651.111,960.05
651.637,957.1
652.164,963.6
652.69,967.2
653.216,972.7
653.742,978.6
654.268,978.95
654.794,972.35
655.32,960.95
655.846,949.15
656.372,937.25
656.898,925.8
657.424,917.9
657.95,914.95
658.476,906.65
659.002,904.05
659.528,899.85
660.053,896.95
660.579,896.85
661.105,893.1
661.63,893.45
662.156,892.45
662.681,891.35
663.076,892.65