Folder: MPX_specDB/spectra (part 5)

File: VLFR_01-LDPE_bio_Raman_39ad75eb.csv
nm,Intensity
526.495,829.7
527.042,829.0
527.589,829.9
528.136,829.4
528.682,829.7
529.229,829.3
529.775,829.5
530.321,828.9
530.867,828.6
531.413,829.3
531.959,832.2
532.505,830.0
533.051,829.4
533.596,833.0
534.141,1211.0
534.687,1238.2
535.232,1233.2
535.777,1249.3
536.321,1266.1
536.866,1265.4
537.41,1274.9
537.955,1279.0
538.499,1288.8
539.043,1292.1
539.587,1301.5
540.131,1300.9
540.675,1304.8
541.219,1309.0
541.762,1320.3
542.305,1323.3
542.849,1336.8
543.392,1347.7
543.935,1356.3
544.478,1350.2
545.02,1366.5
545.563,1378.5
546.106,1389.8
546.648,1389.9
547.19,1406.7
547.732,1401.5
548.274,1418.3
548.816,1431.1
549.358,1437.7
549.9,1442.6
550.441,1443.6
550.983,1456.5
551.524,1468.1
552.065,1468.0
552.606,1479.1
553.147,1486.1
553.688,1493.0
554.229,1497.2
554.769,1508.6
555.31,1500.0
555.85,1509.3
556.391,1514.1
556.931,1520.9
557.471,1514.3
558.011,1510.0
558.551,1511.9
559.09,1524.5
559.63,1541.6
560.169,1551.2
560.709,1551.0
561.248,1559.4
561.787,1568.1
562.326,1575.2
562.865,1582.2
563.404,1591.2
563.943,1608.6
564.481,1624.8
565.02,1624.5
565.558,1627.4
566.096,1629.7
566.634,1639.4
567.172,1633.8
567.71,1639.5
568.248,1644.2
568.786,1662.6
569.324,1677.1
569.861,1686.6
570.399,1707.3
570.936,1703.9
571.473,1705.7
572.01,1721.6
572.547,1726.5
573.084,1743.3
573.621,1764.4
574.158,1758.5
574.694,1761.5
575.231,1769.7
575.767,1775.3
576.303,1802.7
576.84,1794.1
577.376,1808.6
577.912,1804.5
578.448,1816.3
578.984,1820.2
579.519,1822.6
580.055,1827.4
580.59,1834.0
581.126,1830.9
581.661,1855.8
582.196,1857.5
582.731,1848.0
583.267,1856.3
583.801,1855.0
584.336,1861.8
584.871,1835.1
585.406,1861.3
585.94,1868.4
586.475,1859.2
587.009,1877.1
587.543,1873.6
588.078,1877.1
588.612,1885.1
589.146,1879.7
589.68,1873.1
590.214,1886.1
590.747,1891.6
591.281,1867.0
591.815,1883.5
592.348,1880.4
592.881,1866.2
593.415,1854.4
593.948,1858.8
594.481,1858.9
595.014,1858.8
595.547,1889.0
596.08,1887.5
596.613,1880.3
597.146,1897.9
597.678,1883.2
598.211,1907.3
598.743,1903.9
599.276,1896.9
599.808,1894.8
600.34,1888.2
600.872,1878.2
601.404,1886.7
601.936,1890.9
602.468,1887.3
603.0,1883.3
603.532,1894.2
604.064,1890.7
604.595,1887.1
605.127,1867.4
605.658,1850.2
606.189,1846.6
606.721,1849.7
607.252,1846.6
607.783,1863.8
608.314,1863.1
608.845,1861.1
609.376,1869.5
609.907,1862.0
610.438,1865.4
610.968,1851.2
611.499,1880.6
612.029,1884.4
612.56,1895.2
613.09,1896.7
613.621,1905.8
614.151,1900.5
614.681,1897.2
615.211,1899.2
615.741,1884.5
616.271,1885.9
616.801,1895.9
617.331,1903.7
617.861,1901.6
618.39,1894.5
618.92,1879.8
619.45,1890.3
619.979,1901.9
620.509,1872.0
621.038,1877.5
621.567,1881.0
622.096,1888.5
622.626,1892.8
623.155,1886.7
623.684,1897.0
624.213,1882.4
624.742,1896.8
625.271,1888.6
625.799,1883.8
626.328,1878.0
626.857,1882.5
627.386,1892.0
627.914,1895.7
628.443,1880.0
628.971,1881.0
629.5,1873.8
630.028,1888.2
630.556,1879.2
631.084,1882.5
631.613,1879.8
632.141,1877.0
632.669,1865.5
633.197,1846.6
633.725,1855.3
634.253,1846.6
634.781,1848.3
635.308,1843.1
635.836,1854.8
636.364,1852.3
636.891,1853.9
637.419,1842.9
637.947,1848.3
638.474,1838.0
639.002,1838.0
639.529,1835.2
640.056,1818.9
640.584,1824.2
641.111,1833.8
641.638,1838.7
642.165,1817.9
642.692,1824.2
643.219,1807.2
643.746,1798.6
644.273,1790.7
644.8,1804.5
645.327,1791.5
645.854,1782.2
646.381,1799.2
646.908,1788.0
647.434,1786.2
647.961,1788.5
648.488,1773.0
649.014,1774.2
649.541,1786.3
650.067,1780.0
650.594,1780.8
651.12,1770.3
651.646,1768.6
652.173,1780.3
652.699,1765.4
653.225,1778.1
653.752,1768.4
654.278,1771.5
654.804,1761.3
655.33,1769.8
655.856,1763.2
656.382,1765.7
656.908,1764.9
657.434,1760.8
657.96,1768.8
658.486,1769.0
659.012,1766.1
659.538,1789.7
660.064,1778.7
660.589,1769.0
661.115,1780.0
661.641,1747.7
662.166,1767.6
662.692,1752.9
663.086,1756.5

File: VLFR_01-LDPE_bio_Raman_46e5b816.csv
nm,Intensity
528.626,1868.1
529.132,1868.8
529.637,1867.2
530.143,1866.9
530.648,1869.2
531.153,1868.8
531.658,1910.9
532.164,4755.6
532.669,1870.2
533.174,1870.2
533.679,1973.5
534.184,2313.9
534.689,2288.3
535.194,2271.7
535.699,2228.6
536.203,2187.2
536.708,2206.8
537.213,2175.2
537.717,2199.5
538.222,2171.9
538.726,2176.9
539.231,2158.0
539.735,2148.6
540.239,2150.9
540.744,2149.3
541.248,2146.6
541.752,2153.3
542.256,2159.8
542.76,2148.0
543.264,2132.6
543.768,2156.3
544.272,2138.9
544.776,2142.7
545.28,2146.2
545.784,2157.8
546.287,2142.9
546.791,2163.1
547.294,2153.4
547.798,2156.9
548.301,2171.5
548.805,2148.6
549.308,2161.5
549.811,2160.4
550.315,2166.4
550.818,2160.7
551.321,2166.4
551.824,2191.9
552.327,2177.1
552.83,2175.8
553.333,2192.3
553.835,2206.5
554.338,2220.8
554.841,2219.3
555.343,2238.4
555.846,2245.3
556.349,2249.9
556.851,2267.0
557.353,2287.7
557.856,2304.5
558.358,2336.9
558.86,2321.2
559.362,2321.5
559.864,2335.8
560.366,2332.7
560.868,2378.5
561.37,2393.2
561.872,2403.4
562.374,2452.3
562.876,2478.7
563.377,2514.7
563.879,2817.5
564.38,2710.7
564.882,2665.0
565.383,2681.1
565.885,2852.4
566.386,2887.6
566.887,2764.1
567.388,2781.1
567.889,2799.0
568.391,2814.0
568.892,2881.3
569.392,2988.8
569.893,3016.6
570.394,3088.9
570.895,3190.8
571.395,3879.1
571.896,3686.3
572.397,3658.6
572.897,3671.1
573.397,3825.0
573.898,3959.8
574.398,4133.2
574.898,4330.1
575.398,4733.6
575.898,5198.7
576.398,5783.9
576.898,5982.3
577.398,6024.8
577.898,6280.6
578.398,6622.1
578.897,7114.8
579.397,7520.7
579.896,7992.5
580.396,8512.7
580.895,9052.2
581.395,9535.8
581.894,10120.6
582.393,10135.8
582.892,10642.3
583.391,11285.6
583.89,11634.2
584.389,11990.7
584.888,12272.3
585.387,12911.2
585.886,13147.0
586.384,13636.6
586.883,14376.4
587.381,15127.9
587.88,15490.3
588.378,16120.3
588.876,16551.7
589.375,16901.5
589.873,17898.4
590.371,18053.9
590.869,19155.7
591.367,19663.7
591.865,19639.5
592.363,20201.9
592.86,20482.4
593.358,20954.7
593.856,20515.6
594.353,21027.2
594.851,21199.3
595.348,22156.5
595.845,22531.1
596.342,22742.2
596.84,23237.1
597.337,23502.6
597.834,23268.7
598.331,24258.1
598.828,25548.5
599.324,25026.6
599.821,25759.7
600.318,25994.1
600.814,25860.4
601.311,25387.1
601.807,25842.2
602.304,25475.2
602.8,25274.4
603.296,24807.7
603.792,23738.9
604.288,22596.5
604.784,21856.6
605.28,21599.5
605.776,20701.1
606.272,20034.2
606.767,18839.1
607.263,18603.2
607.759,18084.8
608.254,17196.4
608.749,16669.6
609.245,15911.4
609.74,15577.9
610.235,15542.4
610.73,15321.5
611.225,14618.9
611.72,14276.4
612.215,14033.4
612.71,13957.1
613.204,13718.0
613.699,13126.1
614.194,13044.7
614.688,12969.9
615.182,12254.4
615.677,12200.4
616.171,12063.8
616.665,11780.2
617.159,11476.4
617.653,11222.1
618.147,11203.7
618.641,10859.9
619.135,10908.0
619.628,10478.8
620.122,10723.3
620.615,10731.7
621.109,10238.5
621.602,10431.6
622.095,10251.8
622.589,10353.7
623.082,10280.9
623.575,10294.8
624.068,9885.7
624.561,9874.5
625.053,9883.1
625.546,9853.9
626.039,10003.7
626.531,10284.7
627.024,13352.9
627.516,13369.3
628.008,12445.2
628.501,14523.3
628.993,12705.8
629.485,12249.0
629.977,11910.6
630.469,11764.2
630.96,10933.8
631.452,10590.2
631.944,10250.6
632.435,10230.9
632.927,10329.3
633.418,10405.2
633.91,10418.0
634.401,10692.6
634.892,10685.6
635.383,10630.8
635.874,10462.9
636.365,11005.7
636.856,10884.6
637.346,11144.8
637.837,11051.9
638.327,11121.5
638.818,11179.5
639.308,11278.0
639.799,11485.7
640.289,11569.5
640.779,11501.5
641.269,11410.0
641.759,11292.0
642.249,11640.7
642.738,12025.6
643.228,11946.6
643.718,11709.9
644.207,11959.8
644.697,12062.5
645.186,11895.8
645.675,12135.2
646.164,11964.5
646.653,11872.0
647.142,11737.2
647.631,11748.7
648.12,11940.4
648.609,11650.0
649.098,12074.7
649.586,11832.8
650.075,11469.7
650.563,11379.2
651.051,11879.6
651.539,11370.7
652.027,11393.8
652.515,11193.9
653.003,11219.5
653.491,11141.9
653.979,10870.2
654.467,10734.1
654.954,10962.7
655.442,10669.0
655.929,10612.7
656.416,10344.3
656.904,10338.1
657.391,10070.2
657.878,9937.7
658.365,9254.1
658.851,9208.8
659.338,8482.3
659.825,8572.9
660.311,8463.8
660.798,8061.9
661.041,8088.2

File: VLFR_01-LDPE_bio_Raman_49a399cc.csv
nm,Intensity
528.65,1856.6
529.155,1855.55
529.66,1855.65
530.165,1855.3
530.67,1856.15
531.175,1856.25
531.68,1869.35
532.185,2559.5
532.69,1856.35
533.194,1855.05
533.699,1905.9
534.204,2053.5
534.708,2058.05
535.213,2070.25
535.717,2071.7
536.222,2054.75
536.726,2047.65
537.231,2067.5
537.735,2060.8
538.239,2069.0
538.743,2116.95
539.247,2134.1
539.751,2062.4
540.255,2051.75
540.759,2054.25
541.263,2064.1
541.767,2053.8
542.271,2062.7
542.775,2087.6
543.279,2079.3
543.782,2077.5
544.286,2083.55
544.789,2053.65
545.293,2058.8
545.796,2076.5
546.3,2230.35
546.803,2135.4
547.306,2076.75
547.81,2073.9
548.313,2066.05
548.816,2076.45
549.319,2086.55
549.822,2100.55
550.325,2137.95
550.828,2096.8
551.331,2097.5
551.834,2103.95
552.337,2080.95
552.839,2074.05
553.342,2080.1
553.844,2077.4
554.347,2074.65
554.849,2078.1
555.352,2072.75
555.854,2078.65
556.357,2075.7
556.859,2091.8
557.361,2079.05
557.863,2085.7
558.365,2083.2
558.867,2088.95
559.369,2079.65
559.871,2091.35
560.373,2092.65
560.875,2100.85
561.377,2125.5
561.878,2220.9
562.38,3146.1
562.881,2147.0
563.383,2130.95
563.884,2197.4
564.386,2159.55
564.887,2157.15
565.388,2140.85
565.89,2197.1
566.391,2268.35
566.892,2173.05
567.393,2166.7
567.894,2148.05
568.395,2156.5
568.896,2166.15
569.396,2169.25
569.897,2175.0
570.398,2203.0
570.898,2220.05
571.399,2341.4
571.9,2271.95
572.4,2247.1
572.9,2236.4
573.401,2230.5
573.901,2225.85
574.401,2225.1
574.901,2213.9
575.401,2238.85
575.901,2303.6
576.401,2380.2
576.901,2335.15
577.401,2257.05
577.901,2228.7
578.4,2219.3
578.9,2227.25
579.399,2227.25
579.899,2231.0
580.398,2237.1
580.898,2232.3
581.397,2241.1
581.896,2234.9
582.395,2233.25
582.895,2248.55
583.394,2234.85
583.893,2270.05
584.391,2256.7
584.89,2260.05
585.389,2253.05
585.888,2265.9
586.386,2256.4
586.885,2271.9
587.384,2288.05
587.882,2299.9
588.38,2296.8
588.879,2297.3
589.377,2290.6
589.875,2302.1
590.373,2306.45
590.871,2327.65
591.369,2327.6
591.867,2335.3
592.365,2335.65
592.863,2334.7
593.361,2338.9
593.858,2333.6
594.356,2354.2
594.853,2358.6
595.351,2392.3
595.848,2377.35
596.345,2411.45
596.843,2387.95
597.34,2422.0
597.837,2437.05
598.334,2424.4
598.831,2436.05
599.328,2437.6
599.824,2441.1
600.321,2457.8
600.818,2465.45
601.314,2445.4
601.811,2444.4
602.307,2437.2
602.804,2441.1
603.3,2427.55
603.796,2422.45
604.293,2400.95
604.789,2385.35
605.285,2381.95
605.781,2375.65
606.277,2365.0
606.772,2357.35
607.268,2346.6
607.764,2329.65
608.259,2327.7
608.755,2336.5
609.25,2326.75
609.746,2304.6
610.241,2313.05
610.736,2301.05
611.231,2308.8
611.727,2299.85
612.222,2295.9
612.716,2283.95
613.211,2293.75
613.706,2285.65
614.201,2289.45
614.695,2293.6
615.19,2279.05
615.684,2273.5
616.179,2288.1
616.673,2277.1
617.168,2278.8
617.662,2273.2
618.156,2279.85
618.65,2270.3
619.144,2280.3
619.638,2282.0
620.131,2285.1
620.625,2276.3
621.119,2294.95
621.612,2318.75
622.106,2337.05
622.599,2330.4
623.093,2294.05
623.586,2260.7
624.079,2263.8
624.572,2262.25
625.065,2260.55
625.558,2285.1
626.051,2305.75
626.544,2462.6
627.037,3342.6
627.529,3331.6
628.022,3060.65
628.514,3529.5
629.007,3121.7
629.499,2935.3
629.991,2786.1
630.483,2727.75
630.976,2498.85
631.468,2353.0
631.959,2284.75
632.451,2266.65
632.943,2243.6
633.435,2254.15
633.926,2219.75
634.418,2231.5
634.909,2223.8
635.401,2211.95
635.892,2215.95
636.383,2224.65
636.874,2215.05
637.365,2208.5
637.856,2214.8
638.347,2230.5
638.838,2208.35
639.329,2211.05
639.819,2200.45
640.31,2201.1
640.8,2195.55
641.291,2213.3
641.781,2197.0
642.271,2200.85
642.761,2211.95
643.251,2200.75
643.741,2204.45
644.231,2204.45
644.721,2202.15
645.211,2213.9
645.7,2209.15
646.19,2206.85
646.679,2212.95
647.169,2206.1
647.658,2210.15
648.147,2200.95
648.636,2213.05
649.125,2223.55
649.614,2276.9
650.103,2260.65
650.592,2243.3
651.08,2217.5
651.569,2208.6
652.058,2201.4
652.546,2191.2
653.034,2190.45
653.523,2171.1
654.011,2183.05
654.499,2183.75
654.987,2160.45
655.475,2167.8
655.963,2147.3
656.45,2146.25
656.938,2152.5
657.425,2135.8
657.913,2144.5
658.4,2120.4
658.888,2116.95
659.375,2106.05
659.862,2110.1
660.349,2090.6
660.836,2089.9
661.079,2091.0

File: VLFR_01-LDPE_bio_Raman_53c47a77.csv
nm,Intensity
526.495,829.5
527.042,830.8
527.589,829.4
528.136,829.2
528.682,829.0
529.229,828.6
529.775,829.2
530.321,828.0
530.867,829.1
531.413,828.7
531.959,828.4
532.505,831.7
533.051,829.2
533.596,830.0
534.141,907.5
534.687,893.8
535.232,879.2
535.777,868.9
536.321,863.6
536.866,860.2
537.41,861.1
537.955,858.8
538.499,857.8
539.043,853.0
539.587,850.9
540.131,847.5
540.675,847.9
541.219,846.1
541.762,846.0
542.305,843.1
542.849,847.2
543.392,847.1
543.935,847.4
544.478,844.7
545.02,842.7
545.563,844.8
546.106,841.8
546.648,843.4
547.19,843.9
547.732,843.9
548.274,841.6
548.816,841.9
549.358,842.6
549.9,841.0
550.441,844.0
550.983,843.7
551.524,842.3
552.065,842.7
552.606,843.2
553.147,844.0
553.688,844.7
554.229,847.0
554.769,846.5
555.31,847.3
555.85,852.7
556.391,849.9
556.931,854.0
557.471,856.2
558.011,859.1
558.551,862.5
559.09,855.9
559.63,854.9
560.169,854.9
560.709,855.8
561.248,856.3
561.787,858.0
562.326,859.6
562.865,866.6
563.404,870.0
563.943,931.0
564.481,889.8
565.02,885.5
565.558,881.5
566.096,964.0
566.634,884.8
567.172,879.3
567.71,882.8
568.248,880.6
568.786,878.4
569.324,880.4
569.861,886.5
570.399,892.7
570.936,905.9
571.473,1009.7
572.01,946.2
572.547,922.9
573.084,917.8
573.621,928.9
574.158,942.7
574.694,939.9
575.231,953.3
575.767,1021.1
576.303,1119.3
576.84,1080.1
577.376,1060.5
577.912,1037.9
578.448,1054.4
578.984,1080.7
579.519,1098.1
580.055,1124.1
580.59,1143.3
581.126,1171.0
581.661,1187.3
582.196,1212.6
582.731,1232.2
583.267,1254.0
583.801,1272.4
584.336,1277.9
584.871,1292.3
585.406,1306.6
585.94,1322.9
586.475,1339.9
587.009,1352.7
587.543,1367.0
588.078,1373.3
588.612,1385.9
589.146,1400.8
589.68,1410.7
590.214,1422.8
590.747,1448.9
591.281,1464.7
591.815,1458.1
592.348,1465.3
592.881,1466.8
593.415,1468.4
593.948,1468.7
594.481,1472.3
595.014,1485.9
595.547,1487.8
596.08,1493.7
596.613,1501.1
597.146,1510.2
597.678,1523.6
598.211,1551.0
598.743,1541.0
599.276,1565.1
599.808,1568.5
600.34,1563.2
600.872,1566.7
601.404,1557.0
601.936,1533.7
602.468,1540.4
603.0,1514.0
603.532,1496.6
604.064,1484.8
604.595,1458.4
605.127,1416.6
605.658,1389.8
606.189,1363.4
606.721,1338.0
607.252,1325.9
607.783,1309.1
608.314,1292.3
608.845,1279.3
609.376,1267.6
609.907,1251.0
610.438,1240.1
610.968,1223.1
611.499,1217.6
612.029,1212.1
612.56,1205.5
613.09,1199.7
613.621,1194.5
614.151,1184.9
614.681,1172.2
615.211,1168.0
615.741,1162.4
616.271,1145.0
616.801,1154.1
617.331,1143.3
617.861,1145.5
618.39,1132.5
618.92,1131.4
619.45,1133.2
619.979,1123.9
620.509,1125.2
621.038,1125.9
621.567,1134.8
622.096,1157.4
622.626,1155.7
623.155,1131.0
623.684,1119.3
624.213,1120.3
624.742,1123.2
625.271,1127.8
625.799,1140.3
626.328,1161.7
626.857,1392.5
627.386,1853.8
627.914,1577.2
628.443,1805.7
628.971,1676.8
629.5,1557.3
630.028,1460.9
630.556,1434.6
631.084,1285.3
631.613,1210.2
632.141,1199.7
632.669,1182.1
633.197,1178.1
633.725,1174.8
634.253,1177.3
634.781,1176.9
635.308,1171.6
635.836,1188.7
636.364,1185.7
636.891,1187.2
637.419,1180.9
637.947,1188.8
638.474,1186.1
639.002,1183.3
639.529,1185.7
640.056,1184.0
640.584,1192.2
641.111,1188.0
641.638,1195.7
642.165,1197.3
642.692,1191.3
643.219,1198.6
643.746,1192.2
644.273,1190.7
644.8,1198.9
645.327,1182.5
645.854,1187.6
646.381,1189.9
646.908,1187.3
647.434,1189.5
647.961,1188.4
648.488,1185.7
649.014,1184.4
649.541,1180.7
650.067,1181.8
650.594,1179.5
651.12,1173.6
651.646,1180.2
652.173,1173.9
652.699,1175.3
653.225,1173.5
653.752,1173.1
654.278,1173.6
654.804,1167.1
655.33,1165.7
655.856,1159.9
656.382,1146.4
656.908,1152.8
657.434,1142.2
657.96,1141.9
658.486,1136.6
659.012,1119.9
659.538,1112.6
660.064,1102.3
660.589,1093.7
661.115,1084.7
661.641,1070.5
662.166,1061.6
662.692,1058.0
663.086,1051.9

File: VLFR_01-LDPE_bio_Raman_78b9e601.csv
nm,Intensity
528.65,1838.2
529.155,1837.5
529.66,1838.45
530.165,1838.2
530.67,1838.75
531.175,1839.45
531.68,1847.9
532.185,2532.45
532.69,1839.05
533.194,1838.8
533.699,1896.8
534.204,1988.1
534.708,1978.6
535.213,1955.2
535.717,1936.45
536.222,1926.3
536.726,1917.0
537.231,1914.65
537.735,1918.3
538.239,1917.0
538.743,1906.0
539.247,1899.35
539.751,1895.9
540.255,1900.15
540.759,1897.0
541.263,1895.15
541.767,1895.2
542.271,1892.4
542.775,1897.75
543.279,1889.9
543.782,1893.75
544.286,1897.7
544.789,1893.4
545.293,1887.35
545.796,1892.7
546.3,1890.85
546.803,1887.65
547.306,1893.75
547.81,1888.6
548.313,1891.25
548.816,1887.95
549.319,1888.2
549.822,1887.2
550.325,1885.75
550.828,1886.8
551.331,1889.15
551.834,1889.3
552.337,1893.15
552.839,1892.55
553.342,1896.8
553.844,1898.25
554.347,1898.3
554.849,1905.75
555.352,1901.9
555.854,1912.05
556.357,1914.15
556.859,1916.55
557.361,1921.25
557.863,1933.4
558.365,1937.15
558.867,1930.65
559.369,1926.45
559.871,1921.15
560.373,1923.95
560.875,1929.35
561.377,1919.9
561.878,1925.5
562.38,1939.35
562.881,1948.8
563.383,1961.4
563.884,2148.2
564.386,2019.75
564.887,1996.25
565.388,1973.55
565.89,2081.65
566.391,2059.0
566.892,1975.8
567.393,1983.3
567.894,1959.15
568.395,1954.8
568.896,1962.45
569.396,1970.9
569.897,1969.1
570.398,1993.6
570.898,2016.35
571.399,2330.3
571.9,2112.3
572.4,2043.6
572.9,2023.8
573.401,2035.3
573.901,2066.25
574.401,2058.9
574.901,2073.65
575.401,2202.85
575.901,2315.25
576.401,2481.05
576.901,2442.35
577.401,2302.4
577.901,2281.25
578.4,2293.35
578.9,2374.15
579.399,2404.3
579.899,2484.5
580.398,2485.35
580.898,2570.55
581.397,2585.3
581.896,2656.25
582.395,2677.3
582.895,2711.8
583.394,2690.75
583.893,2758.7
584.391,2752.25
584.89,2714.0
585.389,2724.85
585.888,2745.5
586.386,2719.95
586.885,2700.65
587.384,2696.4
587.882,2694.75
588.38,2696.7
588.879,2704.25
589.377,2722.3
589.875,2666.6
590.373,2681.35
590.871,2676.55
591.369,2718.1
591.867,2703.9
592.365,2693.35
592.863,2687.0
593.361,2697.65
593.858,2716.7
594.356,2712.15
594.853,2737.4
595.351,2755.4
595.848,2775.4
596.345,2822.55
596.843,2825.2
597.34,2879.9
597.837,2922.55
598.334,2923.25
598.831,2945.8
599.328,3001.15
599.824,2983.75
600.321,3047.5
600.818,3029.4
601.314,3043.65
601.811,3001.7
602.307,3004.95
602.804,2985.1
603.3,2966.0
603.796,2958.25
604.293,2910.85
604.789,2869.75
605.285,2838.95
605.781,2776.4
606.277,2737.15
606.772,2709.7
607.268,2664.15
607.764,2633.75
608.259,2613.0
608.755,2561.8
609.25,2558.55
609.746,2512.65
610.241,2514.45
610.736,2489.9
611.231,2476.1
611.727,2465.95
612.222,2440.0
612.716,2420.9
613.211,2404.0
613.706,2403.95
614.201,2402.75
614.695,2378.95
615.19,2370.35
615.684,2354.85
616.179,2335.45
616.673,2341.3
617.168,2349.6
617.662,2352.05
618.156,2361.3
618.65,2339.9
619.144,2332.85
619.638,2361.85
620.131,2366.05
620.625,2359.75
621.119,2393.25
621.612,2427.5
622.106,2519.5
622.599,2479.35
623.093,2416.05
623.586,2367.35
624.079,2395.2
624.572,2387.6
625.065,2411.25
625.558,2444.35
626.051,2492.65
626.544,2852.7
627.037,4771.15
627.529,4407.15
628.022,4057.05
628.514,5043.7
629.007,4118.05
629.499,3758.45
629.991,3494.65
630.483,3379.45
630.976,2948.3
631.468,2700.3
631.959,2651.55
632.451,2583.75
632.943,2560.05
633.435,2567.05
633.926,2508.85
634.418,2528.7
634.909,2514.8
635.401,2525.3
635.892,2505.1
636.383,2535.75
636.874,2475.1
637.365,2490.9
637.856,2468.1
638.347,2459.2
638.838,2446.7
639.329,2457.7
639.819,2430.65
640.31,2422.9
640.8,2407.2
641.291,2413.9
641.781,2389.05
642.271,2385.3
642.761,2370.75
643.251,2385.65
643.741,2362.6
644.231,2363.8
644.721,2362.45
645.211,2351.9
645.7,2345.9
646.19,2337.35
646.679,2336.35
647.169,2332.15
647.658,2336.1
648.147,2319.85
648.636,2332.8
649.125,2306.5
649.614,2319.75
650.103,2312.55
650.592,2287.35
651.08,2302.0
651.569,2308.1
652.058,2339.0
652.546,2298.8
653.034,2281.8
653.523,2302.05
654.011,2289.8
654.499,2265.85
654.987,2306.05
655.475,2299.3
655.963,2276.8
656.45,2251.65
656.938,2254.9
657.425,2239.65
657.913,2237.6
658.4,2215.45
658.888,2197.45
659.375,2176.65
659.862,2186.65
660.349,2161.75
660.836,2148.1
661.079,2140.2

File: VLFR_01-LDPE_bio_Raman_82d22de2.csv
nm,Intensity
526.547,832.7
527.095,832.35
527.642,832.6
528.189,831.9
528.736,832.1
529.283,832.65
529.829,833.1
530.376,831.5
530.922,832.6
531.468,832.6
532.014,839.5
532.56,832.1
533.106,833.3
533.651,833.45
534.196,906.85
534.742,895.15
535.287,883.1
535.832,871.3
536.376,866.95
536.921,864.15
537.465,864.95
538.01,862.7
538.554,860.75
539.098,857.4
539.642,858.15
540.186,857.4
540.729,854.8
541.273,854.35
541.816,853.05
542.36,853.3
542.903,851.0
543.446,852.1
543.988,852.55
544.531,850.85
545.074,852.2
545.616,851.35
546.158,850.8
546.701,850.6
547.243,850.35
547.785,850.5
548.326,850.0
548.868,850.5
549.41,849.35
549.951,849.7
550.492,851.7
551.034,850.1
551.575,850.55
552.116,850.65
552.656,850.55
553.197,853.45
553.738,853.95
554.278,855.75
554.819,856.5
555.359,856.95
555.899,856.35
556.439,858.55
556.979,860.4
557.519,861.65
558.058,864.5
558.598,864.65
559.137,866.8
559.677,864.75
560.216,865.7
560.755,864.5
561.294,866.6
561.833,869.1
562.371,870.2
562.91,873.35
563.449,881.05
563.987,930.3
564.525,896.65
565.064,891.0
565.602,887.35
566.14,942.15
566.678,893.1
567.216,890.7
567.753,891.5
568.291,892.6
568.828,893.05
569.366,898.45
569.903,900.85
570.44,909.8
570.977,915.45
571.514,1006.8
572.051,941.15
572.588,932.5
573.125,931.95
573.661,940.75
574.198,952.05
574.734,952.95
575.271,964.35
575.807,1004.1
576.343,1093.65
576.879,1063.35
577.415,1044.7
577.951,1034.5
578.486,1048.4
579.022,1062.9
579.557,1082.75
580.093,1104.3
580.628,1122.45
581.164,1138.1
581.699,1158.45
582.234,1173.75
582.769,1197.65
583.304,1207.75
583.838,1229.2
584.373,1236.45
584.908,1258.7
585.442,1276.4
585.977,1290.75
586.511,1318.4
587.045,1342.4
587.58,1367.3
588.114,1394.5
588.648,1411.4
589.182,1439.3
589.715,1463.75
590.249,1497.5
590.783,1514.45
591.316,1544.9
591.85,1559.8
592.383,1580.2
592.917,1591.65
593.45,1607.9
593.983,1622.85
594.516,1632.15
595.049,1657.3
595.582,1674.3
596.115,1694.75
596.648,1724.3
597.18,1742.8
597.713,1765.8
598.245,1790.3
598.778,1826.6
599.31,1850.25
599.842,1865.25
600.375,1865.15
600.907,1862.75
601.439,1860.05
601.971,1852.7
602.503,1833.55
603.034,1812.3
603.566,1785.85
604.098,1743.75
604.629,1710.35
605.161,1658.0
605.692,1614.3
606.224,1568.95
606.755,1536.75
607.286,1503.35
607.817,1487.35
608.348,1458.75
608.879,1437.9
609.41,1414.4
609.941,1388.95
610.472,1371.55
611.002,1357.95
611.533,1340.1
612.063,1329.15
612.594,1317.3
613.124,1312.75
613.655,1301.0
614.185,1292.5
614.715,1278.4
615.245,1262.75
615.775,1252.6
616.305,1242.45
616.835,1237.9
617.365,1228.15
617.895,1225.5
618.425,1209.25
618.954,1200.2
619.484,1200.0
620.013,1194.3
620.543,1184.75
621.072,1182.85
621.602,1189.1
622.131,1199.1
622.66,1198.55
623.189,1169.3
623.718,1159.9
624.247,1161.85
624.776,1155.05
625.305,1155.55
625.834,1155.55
626.363,1174.7
626.891,1358.25
627.42,1608.15
627.949,1427.4
628.477,1635.1
629.006,1460.8
629.534,1393.0
630.062,1309.3
630.591,1302.6
631.119,1211.95
631.647,1167.1
632.175,1153.95
632.703,1142.75
633.231,1143.6
633.759,1142.75
634.287,1138.6
634.815,1144.9
635.343,1140.75
635.871,1144.15
636.398,1148.15
636.926,1149.1
637.454,1150.7
637.981,1151.25
638.509,1159.25
639.036,1159.65
639.564,1166.8
640.091,1171.7
640.618,1174.9
641.146,1182.8
641.673,1185.4
642.2,1186.9
642.727,1192.7
643.254,1189.4
643.781,1191.9
644.308,1198.4
644.835,1197.3
645.362,1203.0
645.889,1196.55
646.416,1206.05
646.942,1212.45
647.469,1212.7
647.996,1213.4
648.522,1209.55
649.049,1208.1
649.576,1210.25
650.102,1207.7
650.629,1208.15
651.155,1210.3
651.682,1214.3
652.208,1215.1
652.734,1217.4
653.261,1218.6
653.787,1214.7
654.313,1215.35
654.839,1218.6
655.365,1213.95
655.892,1203.4
656.418,1204.05
656.944,1195.35
657.47,1188.7
657.996,1178.35
658.522,1171.6
659.048,1165.7
659.574,1151.05
660.099,1138.45
660.625,1131.5
661.151,1113.8
661.677,1102.25
662.203,1092.85
662.728,1076.35
663.123,1071.85