Folder: MPX_specDB/spectra (part 143)

File: VLFR_08-PLA_bio_Raman_e0cb33ee.csv
nm,Intensity
526.508,829.3
527.055,829.7
527.602,828.4
528.149,830.6
528.695,829.9
529.241,830.3
529.787,829.9
530.334,831.5
530.879,830.0
531.425,830.3
531.971,836.7
532.516,829.3
533.062,828.3
533.607,832.9
534.152,1058.8
534.697,1016.7
535.242,975.6
535.786,963.5
536.331,953.2
536.876,958.8
537.42,949.3
537.964,951.5
538.508,938.2
539.052,937.5
539.596,935.6
540.14,932.8
540.683,946.3
541.227,950.6
541.77,945.9
542.313,939.4
542.856,944.8
543.399,961.3
543.942,972.3
544.485,955.6
545.027,944.0
545.57,941.2
546.112,940.8
546.654,942.4
547.196,943.2
547.738,945.3
548.28,945.3
548.822,947.6
549.363,952.8
549.905,950.7
550.446,951.7
550.988,953.0
551.529,958.1
552.07,961.4
552.611,962.4
553.152,965.2
553.692,959.7
554.233,966.9
554.773,963.1
555.314,955.9
555.854,950.0
556.394,955.7
556.934,957.9
557.474,972.3
558.014,1089.9
558.553,992.0
559.093,973.5
559.632,967.3
560.172,972.0
560.711,968.4
561.25,960.8
561.789,963.7
562.328,961.0
562.867,979.6
563.406,1008.2
563.944,987.2
564.483,978.8
565.021,999.6
565.559,996.4
566.098,1023.5
566.636,992.9
567.174,974.1
567.711,978.3
568.249,981.0
568.787,983.8
569.324,988.7
569.862,981.5
570.399,975.0
570.936,980.5
571.474,999.3
572.011,1008.7
572.548,994.8
573.084,1001.3
573.621,1000.6
574.158,997.1
574.694,1009.1
575.231,992.2
575.767,989.7
576.303,1009.6
576.84,1068.3
577.376,1014.3
577.912,987.0
578.447,989.0
578.983,990.2
579.519,988.8
580.054,994.9
580.59,995.2
581.125,991.0
581.661,991.0
582.196,994.1
582.731,999.8
583.266,994.4
583.801,995.4
584.336,996.0
584.87,999.4
585.405,994.3
585.94,999.1
586.474,1013.4
587.008,1048.6
587.543,1062.1
588.077,1025.0
588.611,1002.4
589.145,995.3
589.679,995.5
590.213,994.1
590.747,995.2
591.28,999.9
591.814,996.1
592.347,998.9
592.881,992.7
593.414,996.3
593.947,990.2
594.48,993.2
595.014,998.1
595.547,992.7
596.079,999.5
596.612,997.5
597.145,995.6
597.678,998.4
598.21,997.0
598.743,999.4
599.275,999.5
599.807,997.4
600.34,991.5
600.872,998.7
601.404,996.6
601.936,996.9
602.468,994.9
603.0,997.6
603.532,993.7
604.063,999.0
604.595,989.8
605.126,987.8
605.658,988.0
606.189,993.2
606.721,991.4
607.252,988.8
607.783,989.4
608.314,987.8
608.845,990.0
609.376,990.0
609.907,987.4
610.438,987.3
610.968,988.4
611.499,987.3
612.03,994.1
612.56,984.8
613.091,994.2
613.621,991.1
614.151,993.3
614.681,993.4
615.212,991.1
615.742,990.8
616.272,989.3
616.802,991.4
617.332,994.2
617.861,988.2
618.391,991.2
618.921,989.7
619.45,988.0
619.98,990.0
620.509,987.7
621.039,985.3
621.568,989.9
622.097,988.5
622.627,997.0
623.156,1007.5
623.685,1002.0
624.214,996.3
624.743,987.2
625.272,988.2
625.801,987.6
626.33,987.9
626.858,987.1
627.387,992.9
627.916,998.9
628.444,1067.7
628.973,1049.6
629.501,1053.1
630.029,1059.6
630.558,1111.4
631.086,1508.9
631.614,1257.4
632.142,1116.8
632.67,1096.6
633.198,1189.6
633.726,1158.3
634.254,1055.9
634.782,1008.1
635.31,990.7
635.838,983.4
636.365,980.4
636.893,979.0
637.421,973.1
637.948,981.6
638.476,974.0
639.003,971.5
639.531,964.0
640.058,969.3
640.585,969.4
641.113,970.4
641.64,970.6
642.167,970.6
642.694,969.7
643.221,967.2
643.748,963.3
644.275,962.1
644.802,960.6
645.329,956.6
645.856,954.9
646.382,954.2
646.909,954.9
647.436,955.6
647.962,958.6
648.489,951.3
649.016,953.4
649.542,951.8
650.069,952.2
650.595,948.8
651.121,945.8
651.648,951.0
652.174,943.9
652.7,948.2
653.227,943.6
653.753,943.4
654.279,950.4
654.805,948.4
655.331,944.6
655.857,945.7
656.383,945.8
656.909,939.2
657.435,946.9
657.961,944.4
658.487,941.1
659.013,945.8
659.538,947.1
660.064,941.9
660.59,942.6
661.116,942.1
661.641,939.9
662.167,940.7
662.692,939.1
663.087,934.0

File: VLFR_08-PLA_bio_Raman_e6e25c18.csv
nm,Intensity
528.626,1862.1
529.132,1861.2
529.637,1861.9
530.143,1861.3
530.648,1860.7
531.153,1864.2
531.658,1915.5
532.164,4637.2
532.669,1864.8
533.174,1866.3
533.679,2134.0
534.184,2894.9
534.689,2690.9
535.194,2577.8
535.699,2461.1
536.203,2414.9
536.708,2460.0
537.213,2384.7
537.717,2414.9
538.222,2351.2
538.726,2323.5
539.231,2308.4
539.735,2268.9
540.239,2311.2
540.744,2399.2
541.248,2396.4
541.752,2315.3
542.256,2317.1
542.76,2327.6
543.264,2411.2
543.768,2540.0
544.272,2417.5
544.776,2339.3
545.28,2296.6
545.784,2296.2
546.287,2304.9
546.791,2313.5
547.294,2333.2
547.798,2309.8
548.301,2315.7
548.805,2338.9
549.308,2341.3
549.811,2335.5
550.315,2344.2
550.818,2382.6
551.321,2394.0
551.824,2405.5
552.327,2421.6
552.83,2429.7
553.333,2424.6
553.835,2462.7
554.338,2421.5
554.841,2398.0
555.343,2380.1
555.846,2374.3
556.349,2385.5
556.851,2409.3
557.353,2512.5
557.856,3100.2
558.358,2881.9
558.86,2526.4
559.362,2494.3
559.864,2445.7
560.366,2442.4
560.868,2453.4
561.37,2412.0
561.872,2432.4
562.374,2429.7
562.876,2547.6
563.377,2729.6
563.879,2591.1
564.38,2515.5
564.882,2627.8
565.383,2640.3
565.885,2795.5
566.386,2727.7
566.887,2504.1
567.388,2507.7
567.889,2559.7
568.391,2536.7
568.892,2518.4
569.392,2495.3
569.893,2507.5
570.394,2497.7
570.895,2526.1
571.395,2625.7
571.896,2682.9
572.397,2620.3
572.897,2607.4
573.397,2627.0
573.898,2620.0
574.398,2684.6
574.898,2594.9
575.398,2543.2
575.898,2573.4
576.398,2839.4
576.898,3060.1
577.398,2668.3
577.898,2538.8
578.398,2541.7
578.897,2531.0
579.397,2526.8
579.896,2552.8
580.396,2531.7
580.895,2531.1
581.395,2539.5
581.894,2555.5
582.393,2529.7
582.892,2556.0
583.391,2549.4
583.89,2543.8
584.389,2538.7
584.888,2544.1
585.387,2533.6
585.886,2563.5
586.384,2626.3
586.883,2858.8
587.381,3008.2
587.88,2779.2
588.378,2566.1
588.876,2546.4
589.375,2516.6
589.873,2497.1
590.371,2515.0
590.869,2521.3
591.367,2535.3
591.865,2506.0
592.363,2525.7
592.86,2514.8
593.358,2509.3
593.856,2509.2
594.353,2522.8
594.851,2518.2
595.348,2516.4
595.845,2526.0
596.342,2516.8
596.84,2533.7
597.337,2537.8
597.834,2516.9
598.331,2524.8
598.828,2520.0
599.324,2509.1
599.821,2506.9
600.318,2519.0
600.814,2520.5
601.311,2513.3
601.807,2517.5
602.304,2513.7
602.8,2523.8
603.296,2508.1
603.792,2546.4
604.288,2489.7
604.784,2498.3
605.28,2496.9
605.776,2493.6
606.272,2494.0
606.767,2524.6
607.263,2523.4
607.759,2512.2
608.254,2516.1
608.749,2524.7
609.245,2493.3
609.74,2505.2
610.235,2504.4
610.73,2497.0
611.225,2494.2
611.72,2522.3
612.215,2491.8
612.71,2482.4
613.204,2515.7
613.699,2499.3
614.194,2484.3
614.688,2495.3
615.182,2517.0
615.677,2516.5
616.171,2517.3
616.665,2526.1
617.159,2513.2
617.653,2497.3
618.147,2486.9
618.641,2494.0
619.135,2480.2
619.628,2491.5
620.122,2470.3
620.615,2494.4
621.109,2490.4
621.602,2500.2
622.095,2491.9
622.589,2548.1
623.082,2592.7
623.575,2554.8
624.068,2531.4
624.561,2487.3
625.053,2484.5
625.546,2467.9
626.039,2468.4
626.531,2463.9
627.024,2468.1
627.516,2488.7
628.008,2661.5
628.501,3052.9
628.993,2914.0
629.485,2952.6
629.977,2977.4
630.469,3427.1
630.96,5679.2
631.452,4579.8
631.944,3483.7
632.435,3257.8
632.927,3678.3
633.418,3872.6
633.91,3273.8
634.401,2775.6
634.892,2564.1
635.383,2471.4
635.874,2456.0
636.365,2428.7
636.856,2391.7
637.346,2396.9
637.837,2387.6
638.327,2383.7
638.818,2357.2
639.308,2370.2
639.799,2388.0
640.289,2367.2
640.779,2341.7
641.269,2361.5
641.759,2347.2
642.249,2351.4
642.738,2346.0
643.228,2343.5
643.718,2327.2
644.207,2327.9
644.697,2302.8
645.186,2295.9
645.675,2304.3
646.164,2301.0
646.653,2288.8
647.142,2293.8
647.631,2274.7
648.12,2293.3
648.609,2264.1
649.098,2271.5
649.586,2242.5
650.075,2248.7
650.563,2252.3
651.051,2250.7
651.539,2248.0
652.027,2230.0
652.515,2239.3
653.003,2229.1
653.491,2228.2
653.979,2231.2
654.467,2203.2
654.954,2217.4
655.442,2196.2
655.929,2209.5
656.416,2199.3
656.904,2191.3
657.391,2190.7
657.878,2199.7
658.365,2177.2
658.851,2171.8
659.338,2183.7
659.825,2157.9
660.311,2156.0
660.798,2152.9
661.041,2155.4

File: VLFR_08-PLA_bio_Raman_e9a29d0e.csv
nm,Intensity
528.637,1836.7
529.143,1838.2
529.648,1839.1
530.153,1837.6
530.659,1838.7
531.164,1840.9
531.669,1894.9
532.174,3832.2
532.679,1842.1
533.184,1845.0
533.689,2381.9
534.194,3485.0
534.699,3196.1
535.203,2952.4
535.708,2800.4
536.213,2733.2
536.717,2759.4
537.222,2669.8
537.726,2715.1
538.231,2582.3
538.735,2548.0
539.24,2561.2
539.744,2453.1
540.248,2559.7
540.752,2667.6
541.256,2625.3
541.761,2565.3
542.265,2504.0
542.769,2540.8
543.272,2780.5
543.776,2850.1
544.28,2677.3
544.784,2554.4
545.288,2522.9
545.791,2482.3
546.295,2515.5
546.798,2523.8
547.302,2525.1
547.805,2519.3
548.308,2552.6
548.812,2547.8
549.315,2582.0
549.818,2545.4
550.321,2580.6
550.824,2617.9
551.327,2621.0
551.83,2689.0
552.333,2694.2
552.836,2710.7
553.339,2642.7
553.842,2771.0
554.344,2707.3
554.847,2672.2
555.349,2610.6
555.852,2606.2
556.354,2618.6
556.857,2654.8
557.359,2843.7
557.861,3877.7
558.363,3418.9
558.866,2880.8
559.368,2788.9
559.87,2736.7
560.372,2705.1
560.873,2699.5
561.375,2670.5
561.877,2694.7
562.379,2715.9
562.88,2875.3
563.382,3161.8
563.883,2964.7
564.385,2837.6
564.886,3025.2
565.388,3048.3
565.889,3244.1
566.39,3150.4
566.891,2794.2
567.392,2803.9
567.893,2903.0
568.394,2851.5
568.895,2855.6
569.396,2832.7
569.897,2824.3
570.398,2816.9
570.898,2865.9
571.399,3025.2
571.899,3108.4
572.4,3008.1
572.9,2998.5
573.4,3035.4
573.901,2987.4
574.401,3123.0
574.901,2915.1
575.401,2844.6
575.901,2933.9
576.401,3391.6
576.901,3705.1
577.401,3012.1
577.9,2898.4
578.4,2875.0
578.9,2822.4
579.399,2852.4
579.899,2859.1
580.398,2860.4
580.897,2860.5
581.397,2851.2
581.896,2851.1
582.395,2869.4
582.894,2872.6
583.393,2865.0
583.892,2847.5
584.391,2897.9
584.889,2872.0
585.388,2887.3
585.887,2865.2
586.385,3012.0
586.884,3413.4
587.382,3609.4
587.881,3281.6
588.379,2911.7
588.877,2891.3
589.375,2860.6
589.874,2840.8
590.372,2864.1
590.87,2845.0
591.367,2841.6
591.865,2857.0
592.363,2856.2
592.861,2817.6
593.358,2860.3
593.856,2840.7
594.353,2846.8
594.851,2817.2
595.348,2837.8
595.845,2852.9
596.342,2872.9
596.84,2841.1
597.337,2843.0
597.833,2850.5
598.33,2882.1
598.827,2865.0
599.324,2822.6
599.821,2849.2
600.317,2855.8
600.814,2846.6
601.31,2841.9
601.807,2838.9
602.303,2865.8
602.799,2819.3
603.295,2834.4
603.791,2837.0
604.287,2833.2
604.783,2837.4
605.279,2850.4
605.775,2838.1
606.271,2823.0
606.766,2832.9
607.262,2815.8
607.757,2869.3
608.253,2841.3
608.748,2828.4
609.243,2787.3
609.738,2824.8
610.233,2827.4
610.729,2843.3
611.223,2828.2
611.718,2804.5
612.213,2817.2
612.708,2757.2
613.202,2835.3
613.697,2803.7
614.192,2823.2
614.686,2814.0
615.18,2828.4
615.675,2788.7
616.169,2784.8
616.663,2841.3
617.157,2808.7
617.651,2797.3
618.145,2810.3
618.638,2782.2
619.132,2784.3
619.626,2779.0
620.119,2788.3
620.613,2782.0
621.106,2791.6
621.599,2803.9
622.093,2815.6
622.586,2861.0
623.079,2947.9
623.572,2853.9
624.065,2801.9
624.558,2766.9
625.05,2770.0
625.543,2765.3
626.036,2733.8
626.528,2738.0
627.02,2755.4
627.513,2796.1
628.005,3077.3
628.497,3556.9
628.989,3348.0
629.481,3444.0
629.973,3471.4
630.465,4171.1
630.957,7340.2
631.449,5779.8
631.94,4170.7
632.432,3876.8
632.923,4598.9
633.414,4809.9
633.906,3899.5
634.397,3183.2
634.888,2835.8
635.379,2740.7
635.87,2689.1
636.361,2700.2
636.852,2666.5
637.342,2642.2
637.833,2623.1
638.323,2647.8
638.814,2642.1
639.304,2596.7
639.794,2601.4
640.285,2612.9
640.775,2610.7
641.265,2602.8
641.755,2590.5
642.244,2601.1
642.734,2577.6
643.224,2542.8
643.713,2564.6
644.203,2546.1
644.692,2501.4
645.181,2540.8
645.671,2496.6
646.16,2495.5
646.649,2489.6
647.138,2502.3
647.627,2469.3
648.115,2478.7
648.604,2471.8
649.093,2470.7
649.581,2454.6
650.07,2435.3
650.558,2455.5
651.046,2432.3
651.534,2390.5
652.023,2392.7
652.511,2404.5
652.998,2411.8
653.486,2389.8
653.974,2391.5
654.462,2359.2
654.949,2348.7
655.437,2363.3
655.924,2344.9
656.411,2344.0
656.898,2332.9
657.385,2334.4
657.872,2345.4
658.359,2331.0
658.846,2312.4
659.333,2310.5
659.82,2291.3
660.306,2297.1
660.793,2297.3
661.036,2286.2

File: VLFR_08-PLA_bio_Raman_e11959af.csv
nm,Intensity
526.495,830.7
527.042,828.2
527.589,828.6
528.136,831.9
528.682,830.7
529.229,828.8
529.775,828.7
530.321,828.1
530.867,829.4
531.413,828.1
531.959,836.7
532.505,831.6
533.051,828.1
533.596,833.6
534.141,1197.3
534.687,1118.5
535.232,1052.0
535.777,1019.8
536.321,1007.3
536.866,1005.5
537.41,990.7
537.955,987.9
538.499,964.5
539.043,957.4
539.587,955.1
540.131,945.3
540.675,973.9
541.219,979.1
541.762,962.5
542.305,952.8
542.849,958.7
543.392,999.8
543.935,1011.7
544.478,975.7
545.02,957.2
545.563,947.6
546.106,946.1
546.648,949.2
547.19,948.5
547.732,952.5
548.274,951.1
548.816,954.3
549.358,953.8
549.9,956.6
550.441,956.2
550.983,960.0
551.524,970.0
552.065,974.2
552.606,978.0
553.147,977.5
553.688,967.9
554.229,986.2
554.769,971.2
555.31,959.3
555.85,956.7
556.391,962.8
556.931,969.4
557.471,995.1
558.011,1205.5
558.551,1034.6
559.09,988.3
559.63,985.0
560.169,972.3
560.709,970.9
561.248,965.4
561.787,964.2
562.326,968.6
562.865,984.3
563.404,1048.7
563.943,1008.2
564.481,989.4
565.02,1029.5
565.558,1018.9
566.096,1078.2
566.634,1014.2
567.172,983.5
567.71,989.2
568.248,993.1
568.786,993.2
569.324,997.0
569.861,989.8
570.399,993.3
570.936,994.6
571.473,1028.5
572.01,1025.0
572.547,1010.6
573.084,1020.6
573.621,1022.4
574.158,1015.1
574.694,1041.2
575.231,1000.6
575.767,1003.6
576.303,1036.9
576.84,1148.0
577.376,1042.4
577.912,1005.6
578.448,999.2
578.984,999.6
579.519,994.7
580.055,1000.8
580.59,995.9
581.126,1000.8
581.661,1003.7
582.196,1003.4
582.731,1002.8
583.267,1003.1
583.801,1007.1
584.336,1004.2
584.871,1004.6
585.406,1004.2
585.94,1011.4
586.475,1030.0
587.009,1099.5
587.543,1142.3
588.078,1050.9
588.612,1014.6
589.146,1009.7
589.68,1011.1
590.214,1001.6
590.747,1014.5
591.281,1006.7
591.815,1007.1
592.348,1006.1
592.881,1003.0
593.415,1006.8
593.948,1005.5
594.481,1006.5
595.014,1005.9
595.547,1005.0
596.08,1006.2
596.613,1010.3
597.146,1009.9
597.678,1012.5
598.211,1014.7
598.743,1011.8
599.276,1013.6
599.808,1010.8
600.34,1012.5
600.872,1008.8
601.404,1010.8
601.936,1013.3
602.468,1012.5
603.0,1013.3
603.532,1016.1
604.064,1017.7
604.595,1013.5
605.127,1012.8
605.658,1008.1
606.189,1010.5
606.721,1008.6
607.252,1004.4
607.783,1011.2
608.314,1013.8
608.845,1023.2
609.376,1015.2
609.907,1013.6
610.438,1017.7
610.968,1015.7
611.499,1017.7
612.029,1019.3
612.56,1018.8
613.09,1024.3
613.621,1028.1
614.151,1031.1
614.681,1030.8
615.211,1028.4
615.741,1027.9
616.271,1029.7
616.801,1031.2
617.331,1030.1
617.861,1027.6
618.39,1030.8
618.92,1035.9
619.45,1029.5
619.979,1029.3
620.509,1030.8
621.038,1028.7
621.567,1029.4
622.096,1032.9
622.626,1053.2
623.155,1059.7
623.684,1051.5
624.213,1039.5
624.742,1030.7
625.271,1037.4
625.799,1031.7
626.328,1037.6
626.857,1037.0
627.386,1039.4
627.914,1056.4
628.443,1191.5
628.971,1170.6
629.5,1156.0
630.028,1167.7
630.556,1289.1
631.084,2061.6
631.613,1554.1
632.141,1303.0
632.669,1256.0
633.197,1432.8
633.725,1368.2
634.253,1175.7
634.781,1069.4
635.308,1042.8
635.836,1029.3
636.364,1032.7
636.891,1023.8
637.419,1018.0
637.947,1020.0
638.474,1011.1
639.002,1017.0
639.529,1013.4
640.056,1013.6
640.584,1011.2
641.111,1016.2
641.638,1017.3
642.165,1011.5
642.692,1008.1
643.219,1008.4
643.746,1000.9
644.273,1000.4
644.8,995.7
645.327,988.1
645.854,991.2
646.381,995.2
646.908,989.0
647.434,992.2
647.961,984.4
648.488,991.2
649.014,986.6
649.541,987.0
650.067,982.9
650.594,980.6
651.12,979.1
651.646,984.1
652.173,980.2
652.699,976.4
653.225,978.2
653.752,979.2
654.278,980.3
654.804,979.7
655.33,972.4
655.856,974.2
656.382,969.5
656.908,971.8
657.434,973.3
657.96,972.6
658.486,972.2
659.012,969.6
659.538,973.2
660.064,968.4
660.589,968.6
661.115,972.3
661.641,964.6
662.166,964.2
662.692,964.5
663.086,961.3

File: VLFR_08-PLA_bio_Raman_ea5251ca.csv
nm,Intensity
528.65,1836.2
529.155,1835.45
529.66,1834.3
530.165,1834.7
530.67,1833.8
531.175,1837.7
531.68,1870.2
532.185,4143.35
532.69,1836.95
533.194,1840.45
533.699,2412.15
534.204,3694.85
534.708,3347.3
535.213,3079.65
535.717,2806.35
536.222,2738.05
536.726,2770.4
537.231,2630.95
537.735,2639.2
538.239,2529.8
538.743,2475.85
539.247,2478.75
539.751,2362.8
540.255,2452.9
540.759,2587.05
541.263,2565.35
541.767,2452.65
542.271,2418.95
542.775,2477.0
543.279,2707.85
543.782,2821.7
544.286,2637.3
544.789,2428.5
545.293,2368.15
545.796,2338.55
546.3,2340.2
546.803,2374.35
547.306,2381.0
547.81,2366.55
548.313,2375.6
548.816,2390.1
549.319,2422.7
549.822,2403.25
550.325,2404.1
550.828,2452.4
551.331,2462.4
551.834,2510.8
552.337,2544.9
552.839,2566.55
553.342,2468.2
553.844,2617.75
554.347,2552.35
554.849,2490.75
555.352,2424.9
555.854,2399.5
556.357,2412.25
556.859,2455.45
557.361,2689.1
557.863,4030.3
558.365,3513.35
558.867,2694.9
559.369,2619.4
559.871,2558.85
560.373,2499.35
560.875,2475.4
561.377,2443.2
561.878,2466.3
562.38,2476.9
562.881,2669.05
563.383,3072.6
563.884,2791.2
564.386,2603.4
564.887,2892.35
565.388,2880.65
565.89,3096.15
566.391,3032.45
566.892,2588.6
567.393,2528.05
567.894,2675.05
568.395,2649.2
568.896,2621.3
569.396,2596.95
569.897,2564.15
570.398,2574.6
570.898,2616.95
571.399,2844.65
571.9,2933.7
572.4,2792.4
572.9,2793.8
573.401,2805.8
573.901,2773.65
574.401,2862.15
574.901,2658.65
575.401,2603.65
575.901,2652.9
576.401,3224.8
576.901,3601.05
577.401,2808.1
577.901,2618.05
578.4,2568.9
578.9,2569.8
579.399,2569.6
579.899,2561.9
580.398,2560.8
580.898,2563.0
581.397,2557.55
581.896,2567.8
582.395,2560.7
582.895,2561.25
583.394,2587.25
583.893,2590.1
584.391,2586.25
584.89,2597.2
585.389,2581.3
585.888,2604.0
586.386,2777.25
586.885,3292.0
587.384,3537.2
587.882,3160.85
588.38,2690.0
588.879,2613.5
589.377,2564.05
589.875,2569.0
590.373,2548.0
590.871,2569.45
591.369,2575.1
591.867,2560.05
592.365,2558.25
592.863,2560.85
593.361,2538.05
593.858,2555.8
594.356,2560.6
594.853,2554.9
595.351,2542.65
595.848,2583.65
596.345,2549.25
596.843,2569.4
597.34,2551.5
597.837,2558.2
598.334,2569.15
598.831,2572.4
599.328,2550.95
599.824,2556.4
600.321,2558.2
600.818,2566.35
601.314,2565.45
601.811,2551.05
602.307,2574.05
602.804,2550.5
603.3,2553.1
603.796,2527.8
604.293,2541.05
604.789,2544.5
605.285,2539.25
605.781,2519.9
606.277,2526.95
606.772,2538.5
607.268,2541.9
607.764,2544.25
608.259,2531.4
608.755,2552.15
609.25,2549.95
609.746,2521.85
610.241,2550.35
610.736,2538.05
611.231,2526.55
611.727,2549.1
612.222,2500.6
612.716,2511.15
613.211,2533.2
613.706,2509.35
614.201,2528.55
614.695,2522.6
615.19,2517.9
615.684,2519.1
616.179,2540.55
616.673,2525.5
617.168,2536.95
617.662,2510.55
618.156,2502.5
618.65,2490.75
619.144,2505.6
619.638,2490.0
620.131,2501.55
620.625,2498.7
621.119,2493.85
621.612,2497.25
622.106,2539.9
622.599,2649.45
623.093,2660.05
623.586,2652.6
624.079,2544.4
624.572,2537.45
625.065,2503.5
625.558,2489.7
626.051,2524.9
626.544,2521.0
627.037,2518.4
627.529,2560.35
628.022,2902.0
628.514,3723.85
629.007,3388.65
629.499,3436.55
629.991,3539.2
630.483,4526.3
630.976,9416.3
631.468,7049.8
631.959,4633.65
632.451,4103.85
632.943,4908.2
633.435,5443.2
633.926,4135.35
634.418,3133.0
634.909,2691.15
635.401,2555.9
635.892,2487.65
636.383,2480.15
636.874,2441.15
637.365,2411.95
637.856,2430.0
638.347,2402.85
638.838,2397.65
639.329,2419.3
639.819,2388.3
640.31,2387.55
640.8,2375.75
641.291,2404.75
641.781,2395.9
642.271,2402.1
642.761,2379.35
643.251,2364.85
643.741,2344.8
644.231,2347.45
644.721,2297.55
645.211,2320.75
645.7,2302.15
646.19,2296.15
646.679,2324.9
647.169,2272.95
647.658,2296.55
648.147,2286.55
648.636,2270.45
649.125,2274.9
649.614,2266.85
650.103,2256.3
650.592,2268.9
651.08,2251.35
651.569,2243.95
652.058,2242.9
652.546,2224.8
653.034,2237.1
653.523,2224.4
654.011,2215.25
654.499,2214.45
654.987,2210.4
655.475,2201.75
655.963,2202.95
656.45,2208.8
656.938,2182.85
657.425,2217.3
657.913,2195.05
658.4,2174.3
658.888,2184.75
659.375,2155.6
659.862,2153.8
660.349,2160.2
660.836,2146.5
661.079,2139.25

File: VLFR_08-PLA_bio_Raman_f8b94d81.csv
nm,Intensity
526.508,830.5
527.055,829.6
527.602,830.0
528.149,830.5
528.695,828.8
529.241,829.9
529.787,830.9
530.334,829.3
530.879,830.0
531.425,829.8
531.971,832.5
532.516,830.8
533.062,829.7
533.607,832.0
534.152,1021.8
534.697,980.1
535.242,943.8
535.786,926.6
536.331,915.9
536.876,918.1
537.42,901.9
537.964,903.3
538.508,893.2
539.052,893.2
539.596,889.8
540.14,884.6
540.683,901.7
541.227,902.7
541.77,892.4
542.313,889.3
542.856,889.1
543.399,907.8
543.942,926.2
544.485,899.0
545.027,885.7
545.57,881.7
546.112,879.2
546.654,883.5
547.196,882.5
547.738,883.0
548.28,882.4
548.822,882.1
549.363,886.4
549.905,886.4
550.446,889.7
550.988,890.8
551.529,894.0
552.07,893.6
552.611,898.5
553.152,898.3
553.692,894.5
554.233,900.7
554.773,892.2
555.314,886.6
555.854,884.6
556.394,888.1
556.934,888.5
557.474,902.5
558.014,1010.4
558.553,925.5
559.093,901.7
559.632,898.5
560.172,893.5
560.711,893.5
561.25,888.5
561.789,887.2
562.328,891.5
562.867,902.7
563.406,931.6
563.944,912.4
564.483,900.8
565.021,923.3
565.559,916.9
566.098,949.5
566.636,916.7
567.174,895.0
567.711,900.7
568.249,903.9
568.787,904.2
569.324,903.9
569.862,901.5
570.399,899.4
570.936,903.2
571.474,920.9
572.011,918.5
572.548,916.4
573.084,914.1
573.621,915.9
574.158,912.0
574.694,925.2
575.231,901.8
575.767,902.6
576.303,919.4
576.84,981.6
577.376,924.2
577.912,903.1
578.447,902.8
578.983,901.5
579.519,904.2
580.054,904.0
580.59,902.5
581.125,902.3
581.661,901.7
582.196,902.6
582.731,905.4
583.266,904.0
583.801,906.7
584.336,906.2
584.87,909.3
585.405,903.5
585.94,908.6
586.474,915.4
587.008,957.7
587.543,983.6
588.077,930.9
588.611,906.2
589.145,904.2
589.679,908.0
590.213,905.2
590.747,903.7
591.28,906.2
591.814,902.7
592.347,903.9
592.881,899.7
593.414,905.2
593.947,904.2
594.48,903.4
595.014,901.5
595.547,905.5
596.079,907.1
596.612,905.8
597.145,904.4
597.678,902.7
598.21,906.1
598.743,904.8
599.275,909.0
599.807,904.7
600.34,907.7
600.872,905.9
601.404,901.5
601.936,904.4
602.468,904.4
603.0,903.6
603.532,903.9
604.063,905.2
604.595,903.4
605.126,901.8
605.658,901.1
606.189,899.1
606.721,904.0
607.252,901.0
607.783,901.3
608.314,900.9
608.845,902.6
609.376,901.8
609.907,900.6
610.438,903.9
610.968,904.8
611.499,897.6
612.03,898.3
612.56,899.9
613.091,906.0
613.621,904.4
614.151,903.6
614.681,905.0
615.212,901.8
615.742,903.4
616.272,904.0
616.802,905.3
617.332,906.9
617.861,903.8
618.391,903.1
618.921,901.7
619.45,903.6
619.98,900.0
620.509,898.5
621.039,902.8
621.568,903.5
622.097,903.4
622.627,910.2
623.156,916.3
623.685,916.7
624.214,911.5
624.743,908.0
625.272,903.8
625.801,904.6
626.33,903.5
626.858,905.0
627.387,907.6
627.916,913.8
628.444,982.9
628.973,976.5
629.501,969.8
630.029,979.0
630.558,1033.3
631.086,1437.7
631.614,1195.6
632.142,1042.3
632.67,1012.4
633.198,1106.2
633.726,1079.5
634.254,974.1
634.782,922.8
635.31,906.1
635.838,905.0
636.365,899.9
636.893,900.1
637.421,895.6
637.948,896.9
638.476,895.8
639.003,896.1
639.531,896.3
640.058,893.4
640.585,893.3
641.113,894.8
641.64,897.7
642.167,895.8
642.694,895.3
643.221,894.8
643.748,892.0
644.275,887.9
644.802,889.0
645.329,887.8
645.856,889.7
646.382,890.9
646.909,889.1
647.436,887.4
647.962,886.8
648.489,886.1
649.016,888.6
649.542,885.9
650.069,885.3
650.595,884.4
651.121,884.9
651.648,884.2
652.174,885.4
652.7,883.7
653.227,884.3
653.753,884.2
654.279,881.7
654.805,882.1
655.331,883.5
655.857,882.3
656.383,882.7
656.909,884.6
657.435,885.6
657.961,885.6
658.487,883.9
659.013,881.7
659.538,882.2
660.064,880.7
660.59,881.5
661.116,880.2
661.641,880.2
662.167,880.8
662.692,879.4
663.087,876.0