Folder: MPX_specDB/spectra (part 132)

File: VLFR_08-PLA_bio_Raman_78ae3bdf.csv
nm,Intensity
526.508,829.9
527.055,830.1
527.602,830.5
528.149,829.5
528.695,831.2
529.241,829.8
529.787,831.0
530.334,829.4
530.879,830.2
531.425,831.1
531.971,839.1
532.516,832.4
533.062,829.8
533.607,829.9
534.152,893.3
534.697,885.5
535.242,883.9
535.786,879.9
536.331,881.4
536.876,882.3
537.42,879.5
537.964,879.6
538.508,877.3
539.052,880.2
539.596,880.4
540.14,878.8
540.683,882.8
541.227,882.1
541.77,882.6
542.313,883.6
542.856,882.5
543.399,884.5
543.942,890.4
544.485,886.6
545.027,887.3
545.57,886.4
546.112,886.4
546.654,891.4
547.196,888.0
547.738,888.6
548.28,890.7
548.822,891.8
549.363,890.3
549.905,893.6
550.446,898.8
550.988,894.2
551.529,895.9
552.07,898.2
552.611,900.3
553.152,897.4
553.692,900.8
554.233,901.6
554.773,896.7
555.314,900.4
555.854,899.8
556.394,897.3
556.934,900.0
557.474,899.2
558.014,919.2
558.553,905.1
559.093,904.5
559.632,905.8
560.172,904.0
560.711,904.9
561.25,901.2
561.789,903.4
562.328,904.3
562.867,904.8
563.406,911.7
563.944,907.1
564.483,903.8
565.021,916.3
565.559,911.8
566.098,914.8
566.636,909.7
567.174,906.5
567.711,908.7
568.249,909.6
568.787,912.7
569.324,915.4
569.862,910.4
570.399,911.1
570.936,912.4
571.474,913.3
572.011,915.1
572.548,913.7
573.084,918.7
573.621,918.4
574.158,913.6
574.694,918.8
575.231,917.1
575.767,913.6
576.303,912.8
576.84,928.3
577.376,921.5
577.912,919.9
578.447,917.6
578.983,917.9
579.519,916.6
580.054,917.7
580.59,917.9
581.125,917.6
581.661,919.6
582.196,916.3
582.731,921.1
583.266,918.8
583.801,919.8
584.336,919.3
584.87,922.4
585.405,918.1
585.94,923.4
586.474,923.2
587.008,931.4
587.543,932.1
588.077,919.6
588.611,922.1
589.145,921.0
589.679,922.0
590.213,916.6
590.747,920.4
591.28,918.1
591.814,921.2
592.347,920.9
592.881,919.2
593.414,917.5
593.947,921.6
594.48,918.4
595.014,920.4
595.547,918.6
596.079,915.1
596.612,917.2
597.145,920.4
597.678,917.0
598.21,917.9
598.743,917.1
599.275,923.8
599.807,917.3
600.34,919.6
600.872,918.3
601.404,918.8
601.936,914.5
602.468,915.9
603.0,917.5
603.532,919.9
604.063,915.1
604.595,915.2
605.126,912.1
605.658,911.6
606.189,910.9
606.721,916.6
607.252,911.8
607.783,914.6
608.314,914.9
608.845,914.9
609.376,914.3
609.907,915.1
610.438,910.9
610.968,910.4
611.499,911.0
612.03,911.8
612.56,915.2
613.091,910.8
613.621,913.2
614.151,913.6
614.681,917.4
615.212,911.5
615.742,913.8
616.272,909.1
616.802,910.7
617.332,910.9
617.861,908.1
618.391,910.2
618.921,914.3
619.45,913.9
619.98,910.2
620.509,909.8
621.039,908.5
621.568,907.4
622.097,910.4
622.627,911.0
623.156,906.7
623.685,911.1
624.214,911.3
624.743,909.2
625.272,907.5
625.801,906.6
626.33,909.6
626.858,906.8
627.387,906.6
627.916,907.7
628.444,920.6
628.973,915.1
629.501,917.6
630.029,915.3
630.558,922.6
631.086,981.9
631.614,949.3
632.142,923.4
632.67,921.0
633.198,935.2
633.726,924.2
634.254,913.9
634.782,903.0
635.31,904.2
635.838,902.6
636.365,901.0
636.893,900.1
637.421,899.2
637.948,901.1
638.476,897.8
639.003,899.0
639.531,899.1
640.058,898.9
640.585,895.7
641.113,899.5
641.64,897.4
642.167,896.8
642.694,894.8
643.221,898.2
643.748,894.3
644.275,892.3
644.802,892.6
645.329,891.0
645.856,892.8
646.382,892.0
646.909,891.1
647.436,896.9
647.962,891.1
648.489,891.0
649.016,889.0
649.542,890.0
650.069,887.1
650.595,887.2
651.121,888.8
651.648,892.9
652.174,887.5
652.7,888.6
653.227,886.0
653.753,888.4
654.279,886.5
654.805,882.5
655.331,886.9
655.857,885.6
656.383,883.8
656.909,883.5
657.435,883.3
657.961,886.3
658.487,883.4
659.013,883.0
659.538,882.3
660.064,882.2
660.59,882.3
661.116,881.7
661.641,882.2
662.167,878.0
662.692,878.8
663.087,876.4

File: VLFR_08-PLA_bio_Raman_79e27da7.csv
nm,Intensity
526.547,833.65
527.095,832.7
527.642,833.1
528.189,832.95
528.736,832.3
529.283,833.15
529.829,833.1
530.376,831.6
530.922,832.55
531.468,832.5
532.014,836.75
532.56,832.0
533.106,832.05
533.651,835.6
534.196,1076.85
534.742,1030.75
535.287,994.75
535.832,977.05
536.376,972.9
536.921,972.55
537.465,964.45
538.01,962.1
538.554,951.2
539.098,952.5
539.642,946.35
540.186,946.9
540.729,965.25
541.273,964.25
541.816,955.65
542.36,951.1
542.903,956.85
543.446,981.55
543.988,987.8
544.531,965.35
545.074,958.8
545.616,955.35
546.158,953.1
546.701,958.9
547.243,958.15
547.785,958.0
548.326,960.6
548.868,962.65
549.41,962.95
549.951,965.25
550.492,964.95
551.034,967.4
551.575,973.35
552.116,974.5
552.656,977.2
553.197,979.85
553.738,975.2
554.278,984.35
554.819,975.2
555.359,969.75
555.899,967.05
556.439,971.1
556.979,972.05
557.519,990.4
558.058,1121.7
558.598,1003.2
559.137,992.8
559.677,986.0
560.216,979.75
560.755,984.2
561.294,982.8
561.833,983.25
562.371,981.9
562.91,994.6
563.449,1031.35
563.987,1002.55
564.525,996.6
565.064,1020.5
565.602,1014.85
566.14,1049.4
566.678,1008.9
567.216,993.1
567.753,998.6
568.291,1002.6
568.828,1001.95
569.366,1003.15
569.903,995.65
570.44,998.95
570.977,1003.6
571.514,1023.25
572.051,1021.05
572.588,1016.3
573.125,1017.75
573.661,1017.95
574.198,1010.2
574.734,1031.35
575.271,1009.15
575.807,1008.2
576.343,1030.2
576.879,1087.5
577.415,1029.9
577.951,1016.0
578.486,1010.1
579.022,1011.7
579.557,1009.9
580.093,1008.75
580.628,1009.7
581.164,1007.95
581.699,1008.3
582.234,1010.7
582.769,1015.35
583.304,1014.4
583.838,1011.95
584.373,1013.75
584.908,1016.8
585.442,1014.65
585.977,1018.3
586.511,1034.55
587.045,1070.3
587.58,1091.1
588.114,1040.65
588.648,1020.3
589.182,1017.85
589.715,1014.75
590.249,1011.1
590.783,1014.5
591.316,1012.9
591.85,1013.8
592.383,1010.5
592.917,1016.8
593.45,1010.1
593.983,1008.8
594.516,1013.3
595.049,1013.45
595.582,1010.95
596.115,1013.6
596.648,1012.9
597.18,1014.05
597.713,1009.1
598.245,1016.3
598.778,1011.75
599.31,1013.05
599.842,1016.65
600.375,1011.45
600.907,1009.75
601.439,1009.35
601.971,1007.25
602.503,1008.3
603.034,1009.8
603.566,1009.75
604.098,1009.6
604.629,1007.85
605.161,1005.2
605.692,1006.45
606.224,1000.95
606.755,1002.3
607.286,999.15
607.817,1002.6
608.348,1002.0
608.879,1003.6
609.41,1003.65
609.941,1000.65
610.472,1000.35
611.002,1000.0
611.533,998.35
612.063,998.05
612.594,1001.0
613.124,1005.7
613.655,1007.3
614.185,1008.2
614.715,1003.4
615.245,1003.7
615.775,1001.5
616.305,1002.6
616.835,1003.35
617.365,1004.0
617.895,1002.05
618.425,998.45
618.954,1000.25
619.484,1004.75
620.013,999.8
620.543,998.3
621.072,996.75
621.602,998.5
622.131,1002.2
622.66,1009.0
623.189,1015.9
623.718,1007.85
624.247,1002.85
624.776,997.5
625.305,998.15
625.834,994.65
626.363,997.1
626.891,1001.3
627.42,1001.75
627.949,1016.7
628.477,1083.6
629.006,1064.4
629.534,1068.1
630.062,1073.7
630.591,1145.5
631.119,1560.15
631.647,1257.3
632.175,1134.85
632.703,1115.55
633.231,1212.25
633.759,1163.9
634.287,1067.1
634.815,1013.05
635.343,1000.65
635.871,990.25
636.398,989.75
636.926,989.95
637.454,983.95
637.981,984.8
638.509,980.45
639.036,983.2
639.564,977.4
640.091,981.0
640.618,979.1
641.146,980.1
641.673,979.55
642.2,977.5
642.727,976.75
643.254,972.55
643.781,972.0
644.308,969.95
644.835,967.9
645.362,966.4
645.889,967.4
646.416,964.4
646.942,965.75
647.469,964.6
647.996,964.5
648.522,965.05
649.049,962.0
649.576,963.0
650.102,959.65
650.629,957.85
651.155,960.0
651.682,959.7
652.208,959.85
652.734,955.7
653.261,956.6
653.787,960.3
654.313,955.85
654.839,954.75
655.365,955.65
655.892,953.85
656.418,952.7
656.944,958.25
657.47,955.0
657.996,955.5
658.522,954.55
659.048,954.15
659.574,954.9
660.099,950.4
660.625,953.05
661.151,952.35
661.677,949.75
662.203,948.25
662.728,945.9
663.123,945.55

File: VLFR_08-PLA_bio_Raman_93bc8ec3.csv
nm,Intensity
528.626,1863.6
529.132,1864.0
529.637,1863.6
530.143,1862.5
530.648,1862.9
531.153,1865.6
531.658,1915.5
532.164,4670.2
532.669,1864.8
533.174,1864.6
533.679,2053.4
534.184,2632.5
534.689,2518.3
535.194,2437.0
535.699,2358.1
536.203,2346.6
536.708,2386.5
537.213,2341.1
537.717,2347.7
538.222,2315.9
538.726,2303.3
539.231,2323.7
539.735,2271.2
540.239,2294.4
540.744,2336.2
541.248,2354.7
541.752,2317.7
542.256,2301.5
542.76,2337.1
543.264,2395.3
543.768,2441.4
544.272,2390.1
544.776,2351.0
545.28,2314.0
545.784,2305.4
546.287,2303.6
546.791,2321.8
547.294,2338.4
547.798,2323.6
548.301,2344.2
548.805,2338.7
549.308,2350.1
549.811,2353.4
550.315,2347.4
550.818,2378.9
551.321,2386.3
551.824,2412.9
552.327,2430.6
552.83,2406.2
553.333,2408.4
553.835,2447.4
554.338,2429.3
554.841,2423.3
555.343,2410.8
555.846,2411.6
556.349,2386.5
556.851,2395.8
557.353,2461.1
557.856,2856.7
558.358,2708.8
558.86,2476.7
559.362,2471.1
559.864,2455.8
560.366,2449.3
560.868,2457.6
561.37,2433.2
561.872,2457.2
562.374,2457.6
562.876,2525.6
563.377,2621.6
563.879,2546.8
564.38,2489.3
564.882,2561.9
565.383,2573.4
565.885,2682.0
566.386,2647.9
566.887,2515.6
567.388,2502.9
567.889,2528.1
568.391,2503.6
568.892,2521.1
569.392,2534.0
569.893,2517.9
570.394,2526.8
570.895,2547.8
571.395,2608.9
571.896,2629.0
572.397,2603.3
572.897,2581.0
573.397,2603.4
573.898,2575.9
574.398,2617.3
574.898,2562.2
575.398,2525.6
575.898,2559.2
576.398,2708.7
576.898,2873.6
577.398,2611.4
577.898,2536.3
578.398,2533.4
578.897,2531.0
579.397,2541.9
579.896,2533.8
580.396,2549.9
580.895,2545.3
581.395,2530.9
581.894,2539.5
582.393,2556.4
582.892,2555.7
583.391,2526.2
583.89,2541.0
584.389,2537.7
584.888,2546.6
585.387,2565.2
585.886,2545.2
586.384,2607.2
586.883,2731.8
587.381,2815.7
587.88,2700.9
588.378,2560.2
588.876,2526.7
589.375,2498.8
589.873,2528.9
590.371,2529.0
590.869,2544.7
591.367,2537.6
591.865,2531.3
592.363,2528.5
592.86,2539.1
593.358,2538.0
593.856,2496.9
594.353,2496.8
594.851,2525.5
595.348,2528.1
595.845,2540.7
596.342,2513.2
596.84,2516.0
597.337,2531.6
597.834,2513.8
598.331,2498.4
598.828,2515.1
599.324,2527.2
599.821,2525.6
600.318,2513.3
600.814,2513.2
601.311,2514.7
601.807,2514.6
602.304,2515.9
602.8,2517.3
603.296,2513.8
603.792,2518.4
604.288,2489.9
604.784,2487.7
605.28,2502.3
605.776,2496.1
606.272,2527.5
606.767,2487.6
607.263,2510.4
607.759,2478.4
608.254,2481.5
608.749,2486.1
609.245,2490.3
609.74,2487.9
610.235,2473.0
610.73,2465.8
611.225,2481.9
611.72,2464.7
612.215,2472.1
612.71,2480.8
613.204,2471.8
613.699,2453.3
614.194,2457.5
614.688,2468.3
615.182,2464.1
615.677,2458.3
616.171,2451.1
616.665,2492.8
617.159,2455.5
617.653,2454.1
618.147,2445.5
618.641,2466.6
619.135,2440.3
619.628,2456.9
620.122,2438.5
620.615,2447.6
621.109,2449.1
621.602,2444.0
622.095,2457.1
622.589,2482.1
623.082,2490.8
623.575,2483.3
624.068,2439.2
624.561,2423.0
625.053,2437.5
625.546,2414.3
626.039,2441.6
626.531,2431.5
627.024,2429.3
627.516,2436.9
628.008,2553.3
628.501,2730.0
628.993,2634.0
629.485,2658.5
629.977,2663.6
630.469,2907.9
630.96,4002.1
631.452,3570.8
631.944,2944.3
632.435,2795.7
632.927,3053.6
633.418,3140.9
633.91,2851.4
634.401,2579.3
634.892,2444.8
635.383,2393.6
635.874,2385.4
636.365,2379.1
636.856,2350.0
637.346,2359.3
637.837,2359.4
638.327,2342.7
638.818,2330.9
639.308,2334.6
639.799,2333.2
640.289,2359.4
640.779,2318.2
641.269,2321.3
641.759,2320.1
642.249,2316.7
642.738,2334.5
643.228,2298.7
643.718,2309.6
644.207,2326.6
644.697,2298.1
645.186,2271.0
645.675,2292.9
646.164,2270.9
646.653,2273.1
647.142,2258.3
647.631,2246.6
648.12,2252.5
648.609,2242.7
649.098,2233.4
649.586,2244.0
650.075,2215.0
650.563,2229.0
651.051,2239.1
651.539,2228.8
652.027,2213.0
652.515,2204.7
653.003,2213.4
653.491,2203.2
653.979,2197.0
654.467,2191.1
654.954,2206.3
655.442,2187.9
655.929,2184.9
656.416,2178.0
656.904,2182.2
657.391,2160.9
657.878,2174.6
658.365,2161.3
658.851,2151.4
659.338,2145.2
659.825,2149.2
660.311,2152.2
660.798,2139.5
661.041,2134.3

File: VLFR_08-PLA_bio_Raman_108fbacb.csv
nm,Intensity
528.65,1847.0
529.155,1848.3
529.66,1848.85
530.165,1848.75
530.67,1848.8
531.175,1849.0
531.68,1863.15
532.185,2430.95
532.69,1848.3
533.194,1847.95
533.699,1875.2
534.204,1962.05
534.708,1957.4
535.213,1959.3
535.717,1966.25
536.222,1956.0
536.726,1964.25
537.231,1961.25
537.735,1967.05
538.239,1968.55
538.743,1973.05
539.247,1976.6
539.751,1972.1
540.255,1976.2
540.759,1986.2
541.263,1985.8
541.767,1985.55
542.271,1986.3
542.775,1995.15
543.279,1998.4
543.782,2007.9
544.286,2004.2
544.789,2000.8
545.293,2012.1
545.796,2006.15
546.3,2010.75
546.803,2012.8
547.306,2022.1
547.81,2020.5
548.313,2020.15
548.816,2011.35
549.319,2024.8
549.822,2029.65
550.325,2028.25
550.828,2031.85
551.331,2035.3
551.834,2037.2
552.337,2033.65
552.839,2053.3
553.342,2039.25
553.844,2044.2
554.347,2045.95
554.849,2045.25
555.352,2048.1
555.854,2048.6
556.357,2049.6
556.859,2051.7
557.361,2060.45
557.863,2081.55
558.365,2063.5
558.867,2063.7
559.369,2067.85
559.871,2063.7
560.373,2060.85
560.875,2066.55
561.377,2066.55
561.878,2069.9
562.38,2075.3
562.881,2083.85
563.383,2084.75
563.884,2078.15
564.386,2080.0
564.887,2091.7
565.388,2085.35
565.89,2091.85
566.391,2100.15
566.892,2089.85
567.393,2085.9
567.894,2095.1
568.395,2087.6
568.896,2097.45
569.396,2094.15
569.897,2096.75
570.398,2093.55
570.898,2101.75
571.399,2105.95
571.9,2101.0
572.4,2095.45
572.9,2107.55
573.401,2110.25
573.901,2114.8
574.401,2113.05
574.901,2106.8
575.401,2103.55
575.901,2119.05
576.401,2112.5
576.901,2124.0
577.401,2108.8
577.901,2117.9
578.4,2093.8
578.9,2114.35
579.399,2107.5
579.899,2102.15
580.398,2109.25
580.898,2107.6
581.397,2106.2
581.896,2105.55
582.395,2118.15
582.895,2108.1
583.394,2122.45
583.893,2116.2
584.391,2108.65
584.89,2114.3
585.389,2111.95
585.888,2099.6
586.386,2121.7
586.885,2118.4
587.384,2128.05
587.882,2117.1
588.38,2111.05
588.879,2114.85
589.377,2098.95
589.875,2104.45
590.373,2107.45
590.871,2111.7
591.369,2112.6
591.867,2107.2
592.365,2110.9
592.863,2104.9
593.361,2106.35
593.858,2103.85
594.356,2111.1
594.853,2104.35
595.351,2103.6
595.848,2111.7
596.345,2107.2
596.843,2116.55
597.34,2110.85
597.837,2108.5
598.334,2113.8
598.831,2097.45
599.328,2105.8
599.824,2105.8
600.321,2103.25
600.818,2102.75
601.314,2106.25
601.811,2111.15
602.307,2100.7
602.804,2111.5
603.3,2106.0
603.796,2100.5
604.293,2108.8
604.789,2093.0
605.285,2092.8
605.781,2108.45
606.277,2098.45
606.772,2096.2
607.268,2107.3
607.764,2100.9
608.259,2087.55
608.755,2088.95
609.25,2090.75
609.746,2104.7
610.241,2098.15
610.736,2090.85
611.231,2102.05
611.727,2098.4
612.222,2089.95
612.716,2097.7
613.211,2087.75
613.706,2082.1
614.201,2086.95
614.695,2081.6
615.19,2088.4
615.684,2077.2
616.179,2086.35
616.673,2082.7
617.168,2089.0
617.662,2072.65
618.156,2090.45
618.65,2080.6
619.144,2075.0
619.638,2084.05
620.131,2073.0
620.625,2071.55
621.119,2075.5
621.612,2070.95
622.106,2071.15
622.599,2072.15
623.093,2073.5
623.586,2074.3
624.079,2060.25
624.572,2071.8
625.065,2075.25
625.558,2061.45
626.051,2059.0
626.544,2056.55
627.037,2058.6
627.529,2063.45
628.022,2078.0
628.514,2077.85
629.007,2070.2
629.499,2067.65
629.991,2064.5
630.483,2066.3
630.976,2147.7
631.468,2120.3
631.959,2075.1
632.451,2071.2
632.943,2075.9
633.435,2079.2
633.926,2070.45
634.418,2058.8
634.909,2046.2
635.401,2038.75
635.892,2040.15
636.383,2034.65
636.874,2031.7
637.365,2030.7
637.856,2028.5
638.347,2028.05
638.838,2031.7
639.329,2020.4
639.819,2023.3
640.31,2028.15
640.8,2012.85
641.291,2009.05
641.781,2012.9
642.271,2016.1
642.761,2009.8
643.251,2009.25
643.741,2009.7
644.231,2007.65
644.721,2003.45
645.211,2003.2
645.7,2000.4
646.19,2004.05
646.679,1997.3
647.169,2000.15
647.658,2004.45
648.147,1989.6
648.636,1993.35
649.125,1985.0
649.614,1992.95
650.103,1981.8
650.592,1990.05
651.08,1983.5
651.569,1992.35
652.058,1976.8
652.546,1987.2
653.034,1974.2
653.523,1970.05
654.011,1976.4
654.499,1969.1
654.987,1969.6
655.475,1967.7
655.963,1972.25
656.45,1965.5
656.938,1966.15
657.425,1967.5
657.913,1962.15
658.4,1953.9
658.888,1966.35
659.375,1960.1
659.862,1954.3
660.349,1950.35
660.836,1948.85
661.079,1946.75

File: VLFR_08-PLA_bio_Raman_181d763d.csv
nm,Intensity
526.495,829.9
527.042,829.8
527.589,830.5
528.136,830.0
528.682,829.7
529.229,829.2
529.775,828.3
530.321,830.0
530.867,828.0
531.413,829.9
531.959,830.5
532.505,828.9
533.051,830.0
533.596,831.6
534.141,1052.7
534.687,1021.3
535.232,976.0
535.777,964.3
536.321,951.5
536.866,957.7
537.41,947.7
537.955,943.3
538.499,934.6
539.043,936.2
539.587,931.5
540.131,928.8
540.675,937.4
541.219,942.5
541.762,936.6
542.305,927.4
542.849,935.2
543.392,951.8
543.935,964.6
544.478,941.0
545.02,932.0
545.563,934.4
546.106,928.4
546.648,931.1
547.19,942.5
547.732,936.9
548.274,931.3
548.816,939.0
549.358,940.6
549.9,939.9
550.441,941.7
550.983,943.5
551.524,949.4
552.065,947.7
552.606,948.5
553.147,951.2
553.688,947.8
554.229,962.7
554.769,951.4
555.31,949.6
555.85,946.3
556.391,947.9
556.931,948.3
557.471,960.3
558.011,1080.0
558.551,980.7
559.09,960.0
559.63,960.9
560.169,957.5
560.709,952.9
561.248,954.0
561.787,955.5
562.326,951.9
562.865,969.9
563.404,1003.1
563.943,979.0
564.481,972.8
565.02,993.1
565.558,981.4
566.096,1017.8
566.634,981.0
567.172,962.5
567.71,974.2
568.248,970.9
568.786,967.5
569.324,975.5
569.861,970.3
570.399,975.7
570.936,976.5
571.473,990.7
572.01,994.9
572.547,986.5
573.084,995.1
573.621,992.7
574.158,992.8
574.694,1007.1
575.231,982.2
575.767,980.2
576.303,996.7
576.84,1066.4
577.376,1003.7
577.912,985.1
578.448,981.2
578.984,987.5
579.519,984.5
580.055,986.4
580.59,986.9
581.126,983.8
581.661,983.7
582.196,983.9
582.731,981.7
583.267,986.8
583.801,986.3
584.336,993.5
584.871,988.9
585.406,986.9
585.94,991.4
586.475,1003.6
587.009,1046.0
587.543,1069.0
588.078,1011.6
588.612,996.8
589.146,993.3
589.68,990.3
590.214,990.9
590.747,990.2
591.281,991.5
591.815,992.9
592.348,987.2
592.881,990.0
593.415,991.9
593.948,994.3
594.481,992.2
595.014,992.1
595.547,995.9
596.08,994.0
596.613,992.3
597.146,1002.2
597.678,994.1
598.211,997.6
598.743,1000.7
599.276,998.4
599.808,996.7
600.34,1001.3
600.872,996.6
601.404,997.8
601.936,994.7
602.468,999.3
603.0,1003.6
603.532,996.8
604.064,1001.7
604.595,1001.4
605.127,998.2
605.658,999.6
606.189,1002.0
606.721,1005.6
607.252,1002.9
607.783,1003.2
608.314,1004.6
608.845,1007.7
609.376,1009.1
609.907,1009.2
610.438,1009.1
610.968,1010.0
611.499,1014.8
612.029,1012.1
612.56,1014.6
613.09,1015.4
613.621,1017.0
614.151,1023.0
614.681,1021.1
615.211,1017.9
615.741,1020.6
616.271,1022.0
616.801,1020.8
617.331,1019.9
617.861,1023.3
618.39,1019.7
618.92,1021.2
619.45,1024.4
619.979,1023.4
620.509,1023.7
621.038,1025.8
621.567,1025.1
622.096,1025.1
622.626,1033.9
623.155,1043.0
623.684,1037.9
624.213,1026.5
624.742,1029.1
625.271,1031.7
625.799,1025.9
626.328,1029.8
626.857,1031.5
627.386,1026.6
627.914,1038.4
628.443,1104.6
628.971,1091.1
629.5,1090.2
630.028,1093.0
630.556,1154.8
631.084,1569.6
631.613,1307.5
632.141,1158.6
632.669,1144.4
633.197,1242.7
633.725,1201.8
634.253,1097.3
634.781,1038.6
635.308,1020.7
635.836,1016.9
636.364,1010.7
636.891,1014.4
637.419,1011.2
637.947,1011.8
638.474,1003.6
639.002,1004.8
639.529,1001.2
640.056,999.0
640.584,1002.0
641.111,1004.8
641.638,999.7
642.165,1000.3
642.692,998.3
643.219,994.2
643.746,993.0
644.273,992.1
644.8,989.1
645.327,979.5
645.854,981.0
646.381,983.1
646.908,985.9
647.434,982.9
647.961,981.7
648.488,980.3
649.014,977.7
649.541,976.3
650.067,978.4
650.594,975.5
651.12,972.3
651.646,975.4
652.173,969.7
652.699,976.1
653.225,977.1
653.752,971.4
654.278,972.7
654.804,965.4
655.33,966.5
655.856,961.0
656.382,964.7
656.908,965.3
657.434,965.0
657.96,963.8
658.486,957.9
659.012,961.8
659.538,964.9
660.064,962.6
660.589,959.1
661.115,956.7
661.641,954.1
662.166,957.5
662.692,955.5
663.086,951.4

File: VLFR_08-PLA_bio_Raman_237b0b6f.csv
nm,Intensity
528.65,1828.9
529.155,1829.3
529.66,1829.45
530.165,1826.8
530.67,1830.3
531.175,1832.25
531.68,1873.05
532.185,3462.75
532.69,1830.55
533.194,1830.9
533.699,1971.3
534.204,2379.35
534.708,2341.6
535.213,2325.2
535.717,2290.3
536.222,2294.25
536.726,2301.45
537.231,2292.8
537.735,2322.75
538.239,2288.75
538.743,2290.75
539.247,2293.4
539.751,2293.85
540.255,2318.9
540.759,2345.5
541.263,2354.75
541.767,2339.4
542.271,2347.9
542.775,2349.85
543.279,2386.0
543.782,2425.7
544.286,2415.7
544.789,2377.6
545.293,2393.95
545.796,2407.45
546.3,2406.65
546.803,2417.55
547.306,2414.55
547.81,2420.45
548.313,2437.75
548.816,2440.35
549.319,2465.95
549.822,2450.45
550.325,2453.35
550.828,2486.8
551.331,2501.3
551.834,2516.8
552.337,2530.8
552.839,2516.9
553.342,2523.2
553.844,2539.6
554.347,2542.3
554.849,2535.5
555.352,2538.65
555.854,2534.65
556.357,2528.7
556.859,2534.15
557.361,2608.8
557.863,2782.35
558.365,2714.25
558.867,2604.3
559.369,2598.85
559.871,2610.35
560.373,2603.7
560.875,2615.1
561.377,2600.25
561.878,2650.1
562.38,2734.15
562.881,2688.75
563.383,2721.35
563.884,2673.95
564.386,2677.1
564.887,2721.85
565.388,2719.75
565.89,2741.5
566.391,2767.2
566.892,2688.7
567.393,2677.25
567.894,2708.7
568.395,2695.9
568.896,2716.6
569.396,2696.85
569.897,2713.9
570.398,2703.45
570.898,2725.85
571.399,2758.65
571.9,2782.55
572.4,2775.05
572.9,2791.6
573.401,2773.2
573.901,2747.35
574.401,2770.6
574.901,2739.75
575.401,2755.1
575.901,2783.3
576.401,2871.65
576.901,2916.05
577.401,2793.75
577.901,2726.4
578.4,2739.6
578.9,2762.75
579.399,2759.5
579.899,2759.9
580.398,2774.05
580.898,2762.85
581.397,2775.75
581.896,2757.3
582.395,2790.55
582.895,2747.8
583.394,2773.5
583.893,2770.35
584.391,2775.2
584.89,2766.45
585.389,2766.55
585.888,2745.45
586.386,2811.25
586.885,2820.15
587.384,2919.5
587.882,2841.25
588.38,2795.8
588.879,2770.8
589.377,2747.15
589.875,2743.45
590.373,2769.8
590.871,2747.85
591.369,2780.25
591.867,2759.7
592.365,2745.9
592.863,2750.4
593.361,2767.4
593.858,2757.55
594.356,2735.35
594.853,2732.5
595.351,2750.1
595.848,2759.25
596.345,2754.85
596.843,2737.0
597.34,2739.05
597.837,2748.0
598.334,2760.15
598.831,2719.6
599.328,2764.45
599.824,2775.45
600.321,2750.15
600.818,2731.0
601.314,2738.55
601.811,2733.95
602.307,2736.65
602.804,2730.3
603.3,2737.65
603.796,2738.95
604.293,2736.65
604.789,2722.6
605.285,2723.15
605.781,2706.4
606.277,2721.6
606.772,2707.95
607.268,2712.75
607.764,2725.35
608.259,2728.15
608.755,2715.75
609.25,2717.0
609.746,2736.25
610.241,2703.15
610.736,2708.75
611.231,2725.8
611.727,2700.05
612.222,2720.9
612.716,2699.05
613.211,2703.15
613.706,2682.8
614.201,2711.85
614.695,2694.7
615.19,2674.3
615.684,2681.85
616.179,2678.75
616.673,2680.3
617.168,2669.9
617.662,2683.05
618.156,2672.3
618.65,2668.1
619.144,2683.2
619.638,2685.8
620.131,2651.35
620.625,2673.3
621.119,2663.3
621.612,2646.05
622.106,2640.75
622.599,2673.05
623.093,2674.65
623.586,2675.6
624.079,2634.1
624.572,2640.35
625.065,2622.95
625.558,2627.55
626.051,2610.9
626.544,2614.6
627.037,2607.85
627.529,2628.55
628.022,2678.8
628.514,2790.95
629.007,2756.0
629.499,2752.9
629.991,2746.25
630.483,2919.0
630.976,3727.5
631.468,3272.95
631.959,2898.6
632.451,2827.1
632.943,2938.3
633.435,2991.55
633.926,2817.55
634.418,2665.3
634.909,2582.15
635.401,2562.3
635.892,2542.15
636.383,2534.55
636.874,2552.6
637.365,2522.65
637.856,2524.85
638.347,2507.35
638.838,2523.15
639.329,2511.7
639.819,2496.7
640.31,2478.2
640.8,2472.35
641.291,2471.9
641.781,2473.7
642.271,2475.6
642.761,2470.0
643.251,2461.9
643.741,2474.15
644.231,2452.3
644.721,2452.5
645.211,2453.25
645.7,2440.1
646.19,2460.7
646.679,2435.25
647.169,2438.55
647.658,2426.7
648.147,2436.5
648.636,2431.6
649.125,2397.75
649.614,2432.75
650.103,2418.25
650.592,2395.45
651.08,2394.3
651.569,2387.7
652.058,2384.75
652.546,2369.2
653.034,2347.3
653.523,2353.0
654.011,2363.05
654.499,2330.95
654.987,2327.4
655.475,2321.35
655.963,2323.85
656.45,2294.65
656.938,2285.7
657.425,2293.35
657.913,2290.7
658.4,2263.8
658.888,2256.4
659.375,2237.65
659.862,2258.2
660.349,2229.55
660.836,2231.0
661.079,2227.1