Folder: MPX_specDB/spectra (part 149)

File: VLFR_08-PLA_nobio_Raman_67de3816.csv
nm,Intensity
526.486,829.6
527.033,829.4
527.579,831.0
528.126,829.95
528.672,830.0
529.219,829.5
529.765,831.25
530.311,829.75
530.857,831.45
531.403,830.3
531.948,833.15
532.494,830.9
533.039,831.4
533.585,830.85
534.13,922.6
534.675,917.15
535.22,902.85
535.764,891.6
536.309,880.6
536.854,871.85
537.398,868.25
537.942,867.05
538.486,864.55
539.03,864.3
539.574,864.15
540.118,863.6
540.662,864.2
541.205,865.7
541.749,865.0
542.292,863.35
542.835,864.35
543.378,865.8
543.921,869.0
544.464,867.2
545.006,867.4
545.549,865.7
546.091,866.85
546.634,867.45
547.176,869.85
547.718,867.2
548.26,869.1
548.802,872.0
549.343,873.8
549.885,874.0
550.426,874.95
550.968,876.2
551.509,876.0
552.05,877.85
552.591,875.75
553.132,875.3
553.673,877.9
554.214,876.35
554.754,877.05
555.295,874.35
555.835,873.15
556.375,873.35
556.915,873.25
557.455,876.25
557.995,883.15
558.535,877.25
559.075,875.3
559.614,875.75
560.154,876.2
560.693,883.15
561.232,899.7
561.772,882.75
562.311,877.3
562.85,879.0
563.388,879.3
563.927,880.05
564.466,879.6
565.004,881.5
565.543,881.8
566.081,884.75
566.619,880.65
567.157,879.1
567.695,880.15
568.233,881.45
568.771,879.4
569.309,880.2
569.846,882.45
570.384,883.2
570.921,884.3
571.458,884.15
571.995,884.25
572.532,884.7
573.069,887.35
573.606,889.55
574.143,887.8
574.68,888.45
575.216,887.1
575.753,891.35
576.289,891.8
576.825,899.25
577.361,891.25
577.897,890.95
578.433,889.2
578.969,889.0
579.505,886.5
580.041,888.2
580.576,889.05
581.112,888.5
581.647,887.15
582.183,889.3
582.718,888.3
583.253,885.75
583.788,886.9
584.323,887.45
584.858,886.45
585.392,887.1
585.927,886.95
586.462,887.6
586.996,889.75
587.53,894.45
588.065,889.3
588.599,887.35
589.133,887.4
589.667,888.05
590.201,886.4
590.735,888.75
591.268,888.7
591.802,886.75
592.335,887.45
592.869,887.95
593.402,887.2
593.936,886.3
594.469,886.5
595.002,885.65
595.535,886.5
596.068,886.7
596.601,887.7
597.133,885.85
597.666,886.4
598.199,887.9
598.731,887.05
599.264,887.05
599.796,887.6
600.328,887.45
600.86,887.35
601.393,886.45
601.925,888.35
602.457,887.9
602.988,887.5
603.52,887.95
604.052,888.0
604.583,887.55
605.115,886.55
605.646,884.85
606.178,885.6
606.709,884.4
607.24,885.4
607.771,885.35
608.302,886.7
608.833,886.75
609.364,887.65
609.895,887.65
610.426,888.55
610.957,887.55
611.487,887.0
612.018,888.0
612.548,887.65
613.078,889.45
613.609,887.25
614.139,891.15
614.669,891.55
615.199,888.9
615.729,890.2
616.259,888.4
616.789,889.1
617.319,887.35
617.849,888.7
618.378,886.5
618.908,889.15
619.437,888.35
619.967,886.45
620.496,888.7
621.025,886.05
621.555,887.25
622.084,888.25
622.613,887.5
623.142,889.05
623.671,887.85
624.2,889.3
624.729,891.1
625.258,888.95
625.786,889.45
626.315,890.55
626.844,890.55
627.372,891.1
627.901,894.6
628.429,900.8
628.957,902.5
629.486,900.9
630.014,904.05
630.542,911.1
631.07,946.4
631.598,927.05
632.126,918.45
632.654,908.6
633.182,913.7
633.71,906.95
634.237,899.1
634.765,891.5
635.293,886.95
635.82,887.5
636.348,887.6
636.875,885.8
637.403,884.75
637.93,887.8
638.458,884.2
638.985,883.85
639.512,887.1
640.039,885.65
640.566,885.65
641.093,886.0
641.62,884.5
642.147,886.75
642.674,883.7
643.201,884.45
643.728,884.75
644.255,883.4
644.781,884.35
645.308,882.4
645.835,885.8
646.361,883.4
646.888,887.45
647.414,884.95
647.941,882.95
648.467,885.35
648.993,885.1
649.52,882.05
650.046,885.15
650.572,882.25
651.098,882.45
651.625,878.7
652.151,878.45
652.677,877.9
653.203,878.95
653.729,876.9
654.255,878.75
654.78,875.55
655.306,873.4
655.832,875.1
656.358,872.75
656.884,872.65
657.409,873.15
657.935,871.6
658.461,872.45
658.986,873.25
659.512,873.35
660.037,873.75
660.563,870.9
661.088,870.4
661.614,871.55
662.139,871.15
662.664,870.7
663.058,869.35

File: VLFR_08-PLA_nobio_Raman_68ff7cab.csv
nm,Intensity
526.547,832.4
527.094,831.7
527.641,832.9
528.188,832.2
528.734,831.6
529.281,831.3
529.827,833.9
530.373,832.9
530.92,833.4
531.466,831.7
532.011,833.9
532.557,833.1
533.103,833.0
533.648,836.0
534.193,1083.8
534.738,1044.4
535.283,1006.8
535.828,993.9
536.373,987.0
536.917,986.7
537.462,983.9
538.006,984.3
538.55,973.9
539.094,977.6
539.638,968.5
540.182,965.5
540.726,982.8
541.269,986.5
541.812,980.7
542.356,974.9
542.899,980.5
543.442,1008.4
543.985,1019.4
544.527,993.8
545.07,982.6
545.612,984.9
546.155,986.7
546.697,987.2
547.239,993.0
547.781,989.9
548.323,989.7
548.865,995.7
549.406,1002.8
549.948,997.2
550.489,996.8
551.03,1002.7
551.572,1010.8
552.113,1008.7
552.654,1011.8
553.194,1010.0
553.735,1016.6
554.276,1022.7
554.816,1016.2
555.356,1008.0
555.896,1006.3
556.437,1010.9
556.977,1012.2
557.516,1029.1
558.056,1152.1
558.596,1047.1
559.135,1027.4
559.675,1025.2
560.214,1025.4
560.753,1019.0
561.292,1018.3
561.831,1019.0
562.37,1019.0
562.909,1033.1
563.448,1061.2
563.986,1044.1
564.525,1040.3
565.063,1059.6
565.601,1058.6
566.139,1089.5
566.677,1048.1
567.215,1033.8
567.753,1040.9
568.291,1037.1
568.828,1044.4
569.366,1046.7
569.903,1047.7
570.441,1041.5
570.978,1038.4
571.515,1068.2
572.052,1060.3
572.589,1063.1
573.126,1062.2
573.662,1062.8
574.199,1062.9
574.735,1067.9
575.272,1049.0
575.808,1047.6
576.344,1077.8
576.88,1134.1
577.416,1073.2
577.952,1058.5
578.488,1050.8
579.024,1054.8
579.559,1052.4
580.095,1051.6
580.63,1059.9
581.166,1052.3
581.701,1052.9
582.236,1052.5
582.771,1058.7
583.306,1064.5
583.841,1065.4
584.376,1063.3
584.911,1059.2
585.445,1059.3
585.98,1067.5
586.514,1075.1
587.048,1119.9
587.583,1139.6
588.117,1084.1
588.651,1065.8
589.185,1062.9
589.719,1057.4
590.253,1060.9
590.786,1060.0
591.32,1063.6
591.853,1064.9
592.387,1060.9
592.92,1060.5
593.454,1055.3
593.987,1058.5
594.52,1064.7
595.053,1059.1
595.586,1057.2
596.119,1060.2
596.651,1060.2
597.184,1063.0
597.717,1064.4
598.249,1064.3
598.782,1061.5
599.314,1062.8
599.846,1057.0
600.379,1065.4
600.911,1061.2
601.443,1060.1
601.975,1056.9
602.507,1055.2
603.038,1061.7
603.57,1057.9
604.102,1059.6
604.633,1057.9
605.165,1049.6
605.696,1042.3
606.228,1048.7
606.759,1046.9
607.29,1050.7
607.821,1051.3
608.352,1051.3
608.883,1052.3
609.414,1048.6
609.945,1046.9
610.476,1046.4
611.006,1044.6
611.537,1047.5
612.067,1051.1
612.598,1051.0
613.128,1052.6
613.659,1053.5
614.189,1055.2
614.719,1046.6
615.249,1052.4
615.779,1045.6
616.309,1047.1
616.839,1051.1
617.369,1047.3
617.899,1052.6
618.428,1050.3
618.958,1048.0
619.487,1047.0
620.017,1041.7
620.546,1049.2
621.076,1047.6
621.605,1040.6
622.134,1040.9
622.663,1045.2
623.193,1056.1
623.722,1051.3
624.251,1042.2
624.78,1047.0
625.308,1049.3
625.837,1042.8
626.366,1043.6
626.895,1042.8
627.423,1047.6
627.952,1056.4
628.48,1129.2
629.009,1100.8
629.537,1110.0
630.065,1113.5
630.594,1184.2
631.122,1601.9
631.65,1290.6
632.178,1165.7
632.706,1151.8
633.234,1255.9
633.762,1208.4
634.29,1104.5
634.818,1052.5
635.346,1035.1
635.873,1029.7
636.401,1027.9
636.929,1023.7
637.456,1030.2
637.984,1021.9
638.511,1018.7
639.039,1019.2
639.566,1017.4
640.093,1017.0
640.62,1020.8
641.148,1019.6
641.675,1016.3
642.202,1020.7
642.729,1017.3
643.256,1012.1
643.783,1013.5
644.31,1007.2
644.837,1003.0
645.364,1005.1
645.891,1002.9
646.417,1001.8
646.944,1004.4
647.471,1000.7
647.997,999.0
648.524,999.5
649.051,996.1
649.577,994.8
650.104,992.5
650.63,999.2
651.157,993.7
651.683,991.4
652.209,991.9
652.736,994.1
653.262,994.3
653.788,992.6
654.314,994.0
654.84,989.4
655.366,987.2
655.893,985.8
656.419,985.8
656.945,986.3
657.471,991.2
657.997,992.6
658.522,980.9
659.048,984.0
659.574,981.8
660.1,985.5
660.626,975.9
661.152,982.3
661.677,984.1
662.203,981.7
662.729,977.3
663.123,979.8

File: VLFR_08-PLA_nobio_Raman_73e0efda.csv
cm-1,Intensity
-123.878,1855.45
-105.821,1855.55
-87.8007,1856.35
-69.8161,1857.0
-51.8675,1855.9
-33.9547,1857.0
-16.0776,1895.95
1.76388,3212.35
19.5698,1858.25
37.3403,1858.9
55.0755,2048.65
72.7754,2517.7
90.4402,2388.9
108.07,2351.0
125.665,2292.25
143.225,2273.05
160.75,2290.8
178.241,2245.5
195.697,2267.25
213.119,2233.3
230.506,2242.35
247.859,2268.45
265.178,2211.45
282.463,2248.75
299.713,2290.15
316.93,2283.8
334.113,2249.85
351.263,2259.9
368.379,2277.1
385.461,2323.15
402.51,2371.3
419.526,2315.95
436.508,2272.4
453.458,2257.15
470.374,2264.8
487.257,2252.35
504.107,2271.8
520.925,2277.55
537.71,2274.55
554.462,2282.15
571.182,2300.4
587.87,2301.75
604.525,2303.1
621.148,2309.25
637.739,2320.45
654.297,2338.4
670.824,2369.55
687.319,2360.15
703.782,2364.6
720.213,2341.45
736.613,2373.8
752.981,2360.65
769.317,2363.05
785.623,2341.8
801.897,2336.5
818.139,2343.45
834.351,2360.05
850.532,2433.2
866.681,2775.65
882.8,2629.35
898.888,2423.75
914.945,2428.8
930.972,2403.95
946.968,2403.7
962.934,2386.6
978.869,2399.45
994.774,2411.05
1010.65,2411.2
1026.49,2459.7
1042.31,2547.2
1058.09,2489.6
1073.85,2453.1
1089.57,2501.7
1105.27,2524.25
1120.93,2579.75
1136.57,2544.95
1152.18,2441.05
1167.75,2454.7
1183.3,2472.3
1198.82,2458.45
1214.31,2458.5
1229.77,2448.1
1245.2,2461.4
1260.6,2458.8
1275.97,2471.75
1291.32,2571.3
1306.63,2578.65
1321.92,2519.6
1337.18,2533.4
1352.41,2554.5
1367.61,2550.7
1382.78,2554.05
1397.93,2484.8
1413.05,2474.75
1428.14,2518.35
1443.2,2648.25
1458.23,2721.95
1473.23,2556.15
1488.21,2504.0
1503.16,2479.15
1518.08,2477.2
1532.97,2485.85
1547.84,2499.95
1562.68,2500.2
1577.49,2520.95
1592.27,2509.4
1607.03,2494.25
1621.76,2509.55
1636.46,2502.2
1651.14,2521.65
1665.78,2503.05
1680.41,2508.1
1695.0,2503.15
1709.57,2509.75
1724.11,2519.5
1738.62,2574.8
1753.11,2688.5
1767.57,2781.6
1782.01,2690.75
1796.41,2545.65
1810.8,2531.45
1825.15,2508.25
1839.48,2511.85
1853.79,2491.25
1868.06,2505.95
1882.31,2496.15
1896.54,2510.65
1910.74,2521.6
1924.91,2525.05
1939.06,2508.8
1953.19,2519.05
1967.28,2512.6
1981.35,2507.2
1995.4,2522.8
2009.42,2520.4
2023.42,2522.35
2037.39,2501.65
2051.33,2533.65
2065.25,2514.35
2079.15,2517.5
2093.01,2515.5
2106.86,2511.35
2120.68,2504.9
2134.47,2506.25
2148.24,2505.65
2161.99,2503.95
2175.71,2508.85
2189.41,2509.05
2203.08,2501.2
2216.73,2496.9
2230.35,2485.95
2243.95,2506.5
2257.52,2499.7
2271.07,2483.55
2284.6,2486.1
2298.1,2471.05
2311.58,2481.55
2325.03,2474.3
2338.46,2490.15
2351.87,2495.5
2365.25,2464.65
2378.61,2483.15
2391.94,2465.45
2405.26,2480.45
2418.54,2465.65
2431.81,2465.35
2445.05,2466.3
2458.27,2460.25
2471.46,2456.2
2484.63,2457.75
2497.78,2463.1
2510.9,2451.8
2524.0,2454.7
2537.08,2433.7
2550.14,2460.2
2563.17,2454.65
2576.18,2468.65
2589.17,2442.85
2602.13,2445.2
2615.07,2449.15
2627.99,2452.1
2640.89,2441.75
2653.76,2441.3
2666.61,2450.55
2679.44,2447.0
2692.25,2423.45
2705.03,2435.55
2717.79,2440.5
2730.53,2467.5
2743.25,2485.3
2755.94,2462.35
2768.61,2449.85
2781.27,2443.75
2793.89,2416.85
2806.5,2429.95
2819.09,2414.55
2831.65,2422.6
2844.19,2422.95
2856.71,2444.7
2869.21,2534.85
2881.69,2714.9
2894.14,2679.4
2906.58,2669.4
2918.99,2690.65
2931.38,2974.0
2943.75,4301.9
2956.1,3657.45
2968.42,2980.1
2980.73,2883.1
2993.01,3098.45
3005.28,3207.85
3017.52,2863.1
3029.74,2579.95
3041.94,2451.4
3054.12,2392.2
3066.28,2395.6
3078.42,2374.7
3090.54,2380.6
3102.63,2374.75
3114.71,2366.3
3126.77,2345.95
3138.8,2340.75
3150.82,2338.65
3162.81,2343.05
3174.78,2351.9
3186.74,2341.1
3198.67,2348.85
3210.58,2330.2
3222.47,2319.75
3234.35,2327.05
3246.2,2336.1
3258.03,2315.95
3269.84,2314.95
3281.64,2305.75
3293.41,2307.35
3305.16,2295.4
3316.89,2281.15
3328.61,2280.4
3340.3,2282.65
3351.97,2274.8
3363.63,2278.25
3375.26,2263.85
3386.88,2265.8
3398.47,2247.8
3410.05,2253.2
3421.6,2245.35
3433.14,2253.6
3444.66,2239.45
3456.15,2223.5
3467.63,2243.8
3479.09,2231.3
3490.53,2221.2
3501.96,2217.85
3513.36,2207.65
3524.74,2205.6
3536.11,2190.0
3547.45,2196.2
3558.78,2189.6
3570.09,2189.1
3581.37,2195.7
3592.64,2175.45
3603.9,2174.5
3615.13,2179.35
3626.34,2166.95
3637.54,2166.65
3648.72,2159.15
3659.87,2161.55
3665.45,2154.3

File: VLFR_08-PLA_nobio_Raman_78dc589a.csv
nm,Intensity
526.532,829.767
527.079,830.167
527.625,830.267
528.172,830.367
528.718,829.933
529.265,830.467
529.811,830.433
530.357,829.833
530.903,830.7
531.449,829.833
531.994,835.967
532.54,830.7
533.085,830.467
533.63,832.633
534.176,1000.93
534.721,961.267
535.266,929.567
535.81,911.467
536.355,906.533
536.9,906.867
537.444,899.167
537.988,896.867
538.533,887.433
539.077,885.0
539.621,880.933
540.165,877.067
540.708,891.967
541.252,889.8
541.795,882.833
542.339,879.233
542.882,881.1
543.425,900.933
543.968,906.4
544.511,886.767
545.054,877.333
545.597,874.833
546.139,875.833
546.682,874.433
547.224,878.167
547.766,875.567
548.308,876.567
548.85,877.233
549.392,878.967
549.934,879.033
550.475,879.767
551.017,881.4
551.558,884.233
552.1,886.233
552.641,887.667
553.182,886.3
553.723,884.033
554.264,889.6
554.804,886.067
555.345,880.667
555.885,877.867
556.426,878.4
556.966,880.367
557.506,895.533
558.046,997.567
558.586,908.5
559.126,893.133
559.665,887.5
560.205,885.3
560.745,882.8
561.284,881.3
561.823,880.2
562.362,884.367
562.901,892.5
563.44,918.5
563.979,897.967
564.518,892.567
565.056,910.6
565.595,906.933
566.133,933.233
566.671,901.967
567.21,887.633
567.748,892.8
568.285,892.367
568.823,893.0
569.361,893.567
569.899,889.8
570.436,890.867
570.974,895.3
571.511,908.333
572.048,907.133
572.585,902.267
573.122,903.667
573.659,908.267
574.196,902.433
574.733,911.4
575.269,893.667
575.806,896.0
576.342,910.833
576.878,961.267
577.414,912.367
577.951,893.933
578.486,895.0
579.022,894.933
579.558,892.9
580.094,894.267
580.629,891.5
581.165,893.667
581.7,892.6
582.236,893.067
582.771,894.833
583.306,892.9
583.841,894.9
584.376,896.033
584.911,896.167
585.445,896.6
585.98,897.033
586.514,908.367
587.049,939.8
587.583,960.0
588.117,915.467
588.651,896.633
589.186,897.4
589.72,893.6
590.253,895.133
590.787,895.167
591.321,894.1
591.854,893.4
592.388,893.667
592.921,895.433
593.455,895.6
593.988,894.233
594.521,893.433
595.054,894.533
595.587,894.533
596.12,894.8
596.653,895.3
597.186,893.167
597.718,895.867
598.251,895.133
598.783,896.067
599.316,895.8
599.848,895.967
600.38,894.133
600.912,893.633
601.444,895.033
601.976,894.7
602.508,893.633
603.04,893.833
603.572,893.367
604.103,894.6
604.635,892.867
605.167,893.6
605.698,893.033
606.229,889.667
606.761,893.8
607.292,892.867
607.823,892.7
608.354,892.433
608.885,892.067
609.416,891.967
609.947,892.4
610.477,892.267
611.008,893.233
611.539,892.167
612.069,893.133
612.6,892.833
613.13,894.267
613.66,893.933
614.19,895.333
614.721,894.9
615.251,894.2
615.781,895.2
616.311,895.833
616.841,894.567
617.37,893.533
617.9,892.8
618.43,895.067
618.96,892.3
619.489,892.4
620.019,894.167
620.548,893.733
621.077,891.667
621.607,894.5
622.136,894.667
622.665,903.4
623.194,906.567
623.723,901.767
624.252,897.767
624.781,895.433
625.31,893.433
625.839,893.833
626.368,892.333
626.896,894.733
627.425,896.933
627.953,905.2
628.482,965.667
629.01,948.033
629.539,948.967
630.067,957.7
630.596,1016.47
631.124,1361.7
631.652,1115.07
632.18,1013.17
632.708,995.633
633.236,1078.17
633.764,1039.47
634.292,952.133
634.82,912.833
635.348,900.233
635.876,894.867
636.403,891.867
636.931,889.167
637.459,889.733
637.986,889.233
638.514,886.8
639.041,888.267
639.568,888.167
640.096,886.8
640.623,887.833
641.15,887.6
641.678,888.567
642.205,888.233
642.732,886.433
643.259,885.5
643.786,884.367
644.313,883.333
644.84,881.333
645.367,883.067
645.894,880.333
646.421,880.367
646.948,878.967
647.474,878.933
648.001,878.467
648.528,877.833
649.054,881.367
649.581,878.733
650.108,879.6
650.634,876.7
651.161,876.833
651.687,877.967
652.214,877.3
652.74,876.4
653.266,877.8
653.793,876.8
654.319,877.7
654.845,876.867
655.371,877.533
655.897,877.967
656.424,877.5
656.95,876.367
657.476,876.733
658.002,877.367
658.528,876.533
659.054,875.5
659.58,875.933
660.106,875.667
660.631,875.6
661.157,872.8
661.683,875.133
662.209,874.133
662.735,871.733
663.129,873.867

File: VLFR_08-PLA_nobio_Raman_80a4eb42.csv
nm,Intensity
526.5,828.6
527.047,830.2
527.594,828.5
528.14,829.4
528.687,830.0
529.233,829.1
529.779,828.7
530.325,828.3
530.871,830.1
531.417,827.9
531.962,833.7
532.508,829.1
533.053,828.8
533.599,830.2
534.144,1043.5
534.689,997.2
535.234,965.6
535.778,941.9
536.323,937.0
536.867,935.4
537.412,926.4
537.956,924.9
538.5,912.3
539.044,908.0
539.588,902.8
540.132,900.0
540.675,918.5
541.219,921.8
541.762,908.5
542.305,906.6
542.848,906.4
543.391,931.4
543.934,949.0
544.477,915.0
545.02,905.0
545.562,900.7
546.105,897.1
546.647,902.9
547.189,905.9
547.731,905.8
548.273,901.7
548.815,904.3
549.356,909.0
549.898,907.8
550.439,910.3
550.981,910.8
551.522,910.3
552.063,916.7
552.604,919.2
553.145,921.8
553.686,913.6
554.226,923.1
554.767,910.9
555.307,911.3
555.848,907.4
556.388,909.1
556.928,912.5
557.468,924.4
558.008,1037.9
558.547,947.3
559.087,926.7
559.626,928.0
560.166,917.1
560.705,913.2
561.244,913.8
561.783,910.8
562.322,919.6
562.861,930.6
563.4,961.2
563.939,937.8
564.477,923.6
565.015,953.9
565.554,942.4
566.092,982.6
566.63,946.4
567.168,922.0
567.706,929.4
568.244,929.5
568.781,929.0
569.319,933.3
569.857,930.0
570.394,925.2
570.931,930.8
571.468,953.8
572.005,951.7
572.542,939.0
573.079,944.2
573.616,950.5
574.153,944.8
574.689,955.1
575.226,931.4
575.762,932.6
576.298,955.2
576.834,1011.7
577.371,958.4
577.907,935.3
578.442,937.5
578.978,931.8
579.514,935.8
580.049,934.0
580.585,935.4
581.12,934.3
581.656,934.4
582.191,930.8
582.726,937.2
583.261,932.6
583.796,941.4
584.331,940.6
584.865,934.7
585.4,939.7
585.935,936.7
586.469,947.3
587.004,986.4
587.538,1017.3
588.072,963.3
588.606,938.3
589.14,937.1
589.674,935.8
590.208,935.8
590.742,931.9
591.275,937.0
591.809,935.2
592.342,935.5
592.876,932.9
593.409,932.9
593.942,931.5
594.476,935.5
595.009,932.8
595.542,935.5
596.075,932.5
596.607,937.5
597.14,934.3
597.673,931.9
598.205,936.5
598.738,936.1
599.27,936.4
599.803,935.5
600.335,932.6
600.867,933.1
601.399,931.2
601.931,932.6
602.463,931.6
602.995,932.9
603.527,932.8
604.058,933.7
604.59,932.6
605.122,930.1
605.653,934.5
606.184,931.5
606.716,931.3
607.247,932.0
607.778,928.3
608.309,932.2
608.84,932.1
609.371,929.0
609.902,932.8
610.433,930.5
610.964,931.1
611.494,930.1
612.025,931.8
612.556,931.0
613.086,931.5
613.616,938.6
614.147,934.8
614.677,930.8
615.207,931.3
615.737,933.5
616.267,928.5
616.797,933.1
617.327,931.1
617.857,931.7
618.387,932.4
618.917,930.0
619.446,934.5
619.976,924.9
620.505,928.2
621.035,928.3
621.564,928.5
622.093,931.6
622.623,936.1
623.152,943.4
623.681,939.6
624.21,933.6
624.739,933.2
625.268,927.3
625.797,932.3
626.326,930.5
626.855,934.1
627.383,933.2
627.912,943.9
628.441,1008.8
628.969,1000.9
629.498,999.7
630.026,1002.7
630.554,1069.2
631.083,1495.2
631.611,1213.5
632.139,1069.5
632.667,1049.4
633.195,1149.6
633.724,1117.3
634.252,1008.3
634.779,948.3
635.307,932.3
635.835,925.8
636.363,927.6
636.891,923.6
637.418,920.6
637.946,922.5
638.474,916.9
639.001,920.2
639.529,917.5
640.056,918.7
640.583,919.0
641.111,919.6
641.638,919.4
642.165,920.5
642.692,918.2
643.22,913.9
643.747,913.6
644.274,908.9
644.801,907.5
645.328,907.7
645.854,907.5
646.381,906.1
646.908,903.3
647.435,910.3
647.962,906.0
648.488,908.4
649.015,905.9
649.542,905.5
650.068,905.8
650.595,904.6
651.121,906.5
651.648,901.3
652.174,905.1
652.7,904.2
653.227,904.1
653.753,902.3
654.279,906.1
654.805,898.3
655.331,900.7
655.858,902.7
656.384,901.4
656.91,904.1
657.436,901.3
657.962,903.7
658.488,902.4
659.013,903.3
659.539,900.3
660.065,898.1
660.591,899.9
661.117,900.8
661.642,896.6
662.168,897.5
662.694,892.2
663.088,893.9

File: VLFR_08-PLA_nobio_Raman_80a58d07.csv
nm,Intensity
526.5,829.1
527.047,829.3
527.594,829.4
528.14,828.3
528.687,827.3
529.233,830.1
529.779,829.1
530.325,828.8
530.871,828.2
531.417,827.9
531.962,830.9
532.508,828.6
533.053,829.1
533.599,831.0
534.144,1026.2
534.689,985.0
535.234,948.4
535.778,929.4
536.323,924.9
536.867,927.8
537.412,919.0
537.956,916.0
538.5,902.2
539.044,902.1
539.588,901.6
540.132,893.6
540.675,911.6
541.219,910.3
541.762,904.6
542.305,898.6
542.848,899.8
543.391,921.4
543.934,928.9
544.477,908.1
545.02,895.7
545.562,893.9
546.105,893.3
546.647,895.4
547.189,900.7
547.731,895.2
548.273,900.1
548.815,900.7
549.356,901.5
549.898,902.6
550.439,902.5
550.981,905.0
551.522,909.7
552.063,904.2
552.604,912.9
553.145,910.7
553.686,906.7
554.226,918.7
554.767,910.9
555.307,903.0
555.848,901.6
556.388,900.5
556.928,903.5
557.468,921.4
558.008,1028.9
558.547,939.5
559.087,918.9
559.626,916.6
560.166,909.8
560.705,910.9
561.244,905.5
561.783,907.1
562.322,909.0
562.861,916.8
563.4,950.2
563.939,932.4
564.477,917.1
565.015,943.6
565.554,933.0
566.092,970.3
566.63,932.7
567.168,912.9
567.706,920.3
568.244,920.6
568.781,921.8
569.319,919.1
569.857,912.0
570.394,917.6
570.931,922.9
571.468,937.2
572.005,940.2
572.542,932.2
573.079,930.5
573.616,937.6
574.153,931.2
574.689,942.5
575.226,924.0
575.762,925.8
576.298,941.4
576.834,1002.5
577.371,949.0
577.907,923.3
578.442,928.0
578.978,924.3
579.514,923.7
580.049,924.6
580.585,924.8
581.12,927.2
581.656,926.4
582.191,926.7
582.726,926.4
583.261,928.8
583.796,930.1
584.331,924.3
584.865,929.0
585.4,926.9
585.935,929.5
586.469,942.2
587.004,972.5
587.538,996.9
588.072,949.9
588.606,932.3
589.14,927.6
589.674,927.4
590.208,927.9
590.742,927.9
591.275,928.0
591.809,927.3
592.342,928.1
592.876,927.0
593.409,925.8
593.942,926.7
594.476,925.6
595.009,926.5
595.542,930.7
596.075,930.1
596.607,930.3
597.14,929.8
597.673,928.6
598.205,925.4
598.738,931.2
599.27,928.0
599.803,928.2
600.335,929.8
600.867,928.0
601.399,927.5
601.931,929.1
602.463,925.2
602.995,927.5
603.527,927.5
604.058,924.6
604.59,923.6
605.122,927.1
605.653,926.7
606.184,921.3
606.716,924.9
607.247,922.8
607.778,925.0
608.309,924.7
608.84,926.7
609.371,922.0
609.902,925.2
610.433,919.2
610.964,924.9
611.494,924.3
612.025,924.2
612.556,924.5
613.086,923.1
613.616,927.5
614.147,929.6
614.677,928.3
615.207,928.1
615.737,929.0
616.267,926.5
616.797,924.5
617.327,932.3
617.857,926.1
618.387,927.0
618.917,928.1
619.446,924.2
619.976,926.1
620.505,924.9
621.035,924.6
621.564,928.7
622.093,923.9
622.623,935.7
623.152,940.3
623.681,937.6
624.21,927.7
624.739,925.1
625.268,924.9
625.797,923.1
626.326,922.6
626.855,926.6
627.383,925.1
627.912,940.2
628.441,1000.8
628.969,991.7
629.498,991.3
630.026,993.5
630.554,1055.9
631.083,1436.6
631.611,1189.8
632.139,1051.9
632.667,1031.8
633.195,1122.7
633.724,1086.8
634.252,995.4
634.779,945.3
635.307,930.0
635.835,924.1
636.363,920.8
636.891,920.4
637.418,920.1
637.946,916.0
638.474,916.2
639.001,919.3
639.529,915.3
640.056,917.5
640.583,914.5
641.111,920.1
641.638,916.5
642.165,916.0
642.692,916.5
643.22,910.5
643.747,910.0
644.274,908.2
644.801,909.0
645.328,908.4
645.854,907.4
646.381,906.9
646.908,907.9
647.435,907.6
647.962,907.5
648.488,907.7
649.015,905.7
649.542,905.9
650.068,904.4
650.595,904.5
651.121,905.2
651.648,906.1
652.174,901.1
652.7,901.4
653.227,905.0
653.753,906.2
654.279,903.5
654.805,901.0
655.331,902.6
655.858,903.4
656.384,902.4
656.91,899.9
657.436,906.9
657.962,899.7
658.488,898.8
659.013,897.5
659.539,900.4
660.065,899.4
660.591,898.0
661.117,903.3
661.642,899.5
662.168,895.2
662.694,898.5
663.088,898.4