Folder: MPX_specDB/spectra (part 134)

File: VLFR_08-PLA_bio_Raman_0876c9ac.csv
nm,Intensity
528.626,1864.6
529.132,1861.5
529.637,1862.6
530.143,1862.3
530.648,1862.5
531.153,1864.2
531.658,1905.6
532.164,4558.2
532.669,1866.4
533.174,1865.1
533.679,1923.8
534.184,2130.1
534.689,2144.5
535.194,2153.1
535.699,2177.9
536.203,2154.8
536.708,2159.2
537.213,2180.3
537.717,2187.3
538.222,2189.0
538.726,2198.1
539.231,2194.0
539.735,2210.7
540.239,2215.4
540.744,2207.1
541.248,2226.6
541.752,2228.8
542.256,2231.7
542.76,2241.8
543.264,2251.5
543.768,2261.1
544.272,2264.4
544.776,2267.3
545.28,2282.2
545.784,2280.4
546.287,2271.0
546.791,2300.0
547.294,2273.2
547.798,2303.4
548.301,2311.0
548.805,2294.1
549.308,2305.6
549.811,2306.4
550.315,2318.7
550.818,2363.2
551.321,2341.6
551.824,2364.3
552.327,2353.1
552.83,2330.1
553.333,2372.3
553.835,2363.5
554.338,2385.0
554.841,2383.0
555.343,2381.8
555.846,2378.8
556.349,2382.2
556.851,2375.9
557.353,2397.5
557.856,2418.6
558.358,2407.5
558.86,2416.6
559.362,2412.6
559.864,2437.1
560.366,2415.7
560.868,2436.6
561.37,2422.6
561.872,2472.6
562.374,2514.9
562.876,2449.1
563.377,2471.5
563.879,2437.4
564.38,2471.3
564.882,2483.4
565.383,2492.1
565.885,2475.7
566.386,2491.8
566.887,2487.8
567.388,2501.6
567.889,2504.6
568.391,2473.0
568.892,2507.9
569.392,2509.6
569.893,2504.3
570.394,2510.6
570.895,2515.0
571.395,2524.8
571.896,2557.5
572.397,2557.1
572.897,2559.3
573.397,2547.2
573.898,2546.3
574.398,2533.9
574.898,2574.2
575.398,2562.7
575.898,2575.7
576.398,2567.1
576.898,2572.4
577.398,2570.8
577.898,2581.6
578.398,2568.7
578.897,2581.6
579.397,2566.1
579.896,2594.0
580.396,2602.0
580.895,2589.1
581.395,2588.3
581.894,2600.2
582.393,2591.3
582.892,2610.3
583.391,2605.1
583.89,2603.6
584.389,2607.7
584.888,2581.7
585.387,2590.7
585.886,2584.4
586.384,2603.9
586.883,2603.5
587.381,2616.8
587.88,2631.8
588.378,2589.0
588.876,2573.5
589.375,2573.9
589.873,2596.2
590.371,2597.9
590.869,2595.6
591.367,2601.9
591.865,2589.8
592.363,2607.3
592.86,2627.3
593.358,2605.9
593.856,2605.9
594.353,2618.1
594.851,2611.1
595.348,2611.2
595.845,2626.7
596.342,2623.8
596.84,2641.7
597.337,2611.8
597.834,2595.8
598.331,2616.9
598.828,2621.9
599.324,2621.1
599.821,2632.4
600.318,2614.2
600.814,2664.1
601.311,2627.0
601.807,2624.5
602.304,2622.7
602.8,2636.6
603.296,2661.6
603.792,2638.0
604.288,2624.1
604.784,2640.5
605.28,2630.3
605.776,2628.4
606.272,2635.9
606.767,2622.5
607.263,2664.7
607.759,2626.7
608.254,2639.2
608.749,2664.9
609.245,2628.3
609.74,2653.1
610.235,2629.8
610.73,2636.6
611.225,2655.0
611.72,2633.3
612.215,2627.8
612.71,2633.7
613.204,2655.2
613.699,2647.3
614.194,2633.6
614.688,2653.3
615.182,2632.4
615.677,2625.8
616.171,2622.4
616.665,2630.0
617.159,2640.4
617.653,2643.2
618.147,2636.2
618.641,2638.6
619.135,2628.8
619.628,2622.1
620.122,2636.8
620.615,2648.1
621.109,2632.8
621.602,2607.9
622.095,2630.3
622.589,2645.7
623.082,2620.2
623.575,2647.6
624.068,2628.4
624.561,2621.4
625.053,2599.8
625.546,2584.9
626.039,2606.3
626.531,2599.0
627.024,2591.9
627.516,2583.2
628.008,2588.3
628.501,2612.0
628.993,2612.9
629.485,2620.9
629.977,2600.3
630.469,2600.0
630.96,2655.8
631.452,2633.1
631.944,2596.0
632.435,2602.2
632.927,2588.7
633.418,2572.8
633.91,2595.8
634.401,2574.1
634.892,2594.2
635.383,2560.7
635.874,2529.2
636.365,2528.0
636.856,2545.0
637.346,2515.1
637.837,2531.5
638.327,2572.5
638.818,2528.5
639.308,2522.5
639.799,2513.4
640.289,2518.8
640.779,2506.3
641.269,2504.2
641.759,2474.0
642.249,2478.2
642.738,2507.4
643.228,2489.6
643.718,2510.6
644.207,2526.4
644.697,2478.0
645.186,2505.3
645.675,2469.6
646.164,2475.1
646.653,2486.5
647.142,2475.1
647.631,2474.5
648.12,2477.9
648.609,2472.4
649.098,2456.6
649.586,2429.6
650.075,2456.8
650.563,2429.8
651.051,2434.3
651.539,2411.9
652.027,2416.9
652.515,2400.5
653.003,2407.0
653.491,2370.5
653.979,2360.7
654.467,2356.8
654.954,2354.0
655.442,2340.6
655.929,2323.6
656.416,2298.7
656.904,2331.6
657.391,2301.5
657.878,2320.0
658.365,2317.8
658.851,2286.4
659.338,2275.0
659.825,2274.8
660.311,2269.4
660.798,2262.9
661.041,2260.6

File: VLFR_08-PLA_bio_Raman_0935abfd.csv
nm,Intensity
526.495,827.7
527.042,827.8
527.589,828.6
528.136,826.2
528.682,827.8
529.229,828.6
529.775,828.3
530.321,825.6
530.867,825.9
531.413,827.1
531.959,836.4
532.505,828.6
533.051,825.9
533.596,829.1
534.141,983.4
534.687,953.0
535.232,925.4
535.777,920.9
536.321,906.0
536.866,912.7
537.41,903.4
537.955,905.5
538.499,891.1
539.043,893.9
539.587,890.0
540.131,891.6
540.675,901.9
541.219,901.9
541.762,893.7
542.305,894.1
542.849,893.8
543.392,911.1
543.935,917.0
544.478,901.3
545.02,889.3
545.563,890.7
546.106,889.9
546.648,890.7
547.19,893.5
547.732,896.7
548.274,897.2
548.816,893.1
549.358,898.1
549.9,894.0
550.441,897.6
550.983,900.5
551.524,902.4
552.065,903.1
552.606,903.7
553.147,905.2
553.688,904.5
554.229,912.7
554.769,902.7
555.31,899.1
555.85,900.0
556.391,898.5
556.931,901.4
557.471,914.1
558.011,997.0
558.551,926.5
559.09,911.5
559.63,910.5
560.169,907.5
560.709,904.1
561.248,905.7
561.787,905.6
562.326,904.0
562.865,912.7
563.404,935.1
563.943,921.4
564.481,914.0
565.02,930.4
565.558,929.2
566.096,950.5
566.634,930.0
567.172,913.1
567.71,912.2
568.248,916.4
568.786,917.6
569.324,916.8
569.861,913.3
570.399,913.7
570.936,919.8
571.473,930.8
572.01,928.9
572.547,925.6
573.084,928.3
573.621,928.1
574.158,925.9
574.694,939.1
575.231,920.7
575.767,920.9
576.303,935.7
576.84,971.6
577.376,938.1
577.912,924.2
578.448,918.8
578.984,920.3
579.519,920.2
580.055,920.4
580.59,919.8
581.126,918.6
581.661,915.1
582.196,919.6
582.731,920.9
583.267,922.4
583.801,919.3
584.336,919.8
584.871,927.1
585.406,921.0
585.94,925.6
586.475,931.9
587.009,960.9
587.543,974.8
588.078,942.1
588.612,927.8
589.146,922.4
589.68,922.4
590.214,922.8
590.747,924.5
591.281,922.2
591.815,924.0
592.348,923.7
592.881,919.8
593.415,920.8
593.948,922.8
594.481,919.9
595.014,921.2
595.547,917.6
596.08,923.0
596.613,921.9
597.146,920.9
597.678,921.4
598.211,922.3
598.743,927.2
599.276,919.2
599.808,920.7
600.34,925.2
600.872,921.5
601.404,921.2
601.936,919.9
602.468,920.5
603.0,918.7
603.532,922.2
604.064,921.2
604.595,917.8
605.127,918.2
605.658,914.7
606.189,919.1
606.721,916.7
607.252,917.0
607.783,915.4
608.314,918.4
608.845,918.4
609.376,918.1
609.907,913.8
610.438,916.4
610.968,917.9
611.499,914.9
612.029,916.4
612.56,918.3
613.09,919.1
613.621,916.1
614.151,918.5
614.681,917.7
615.211,918.9
615.741,913.3
616.271,917.0
616.801,919.8
617.331,918.8
617.861,916.8
618.39,916.7
618.92,914.0
619.45,914.7
619.979,916.4
620.509,917.4
621.038,911.6
621.567,911.4
622.096,914.7
622.626,920.1
623.155,927.8
623.684,921.2
624.213,917.1
624.742,918.3
625.271,913.3
625.799,913.7
626.328,915.5
626.857,916.3
627.386,920.5
627.914,922.0
628.443,973.5
628.971,963.7
629.5,967.8
630.028,971.7
630.556,1018.0
631.084,1333.4
631.613,1122.2
632.141,1020.1
632.669,1002.4
633.197,1075.8
633.725,1048.0
634.253,970.2
634.781,930.0
635.308,917.0
635.836,917.2
636.364,913.0
636.891,910.6
637.419,908.2
637.947,907.9
638.474,907.4
639.002,906.8
639.529,906.4
640.056,907.1
640.584,907.6
641.111,906.9
641.638,909.9
642.165,901.9
642.692,902.4
643.219,904.0
643.746,904.4
644.273,896.8
644.8,895.7
645.327,900.3
645.854,898.7
646.381,899.2
646.908,896.3
647.434,898.7
647.961,897.1
648.488,893.8
649.014,896.2
649.541,896.2
650.067,895.8
650.594,895.0
651.12,895.2
651.646,892.0
652.173,893.2
652.699,890.8
653.225,892.3
653.752,893.6
654.278,893.0
654.804,888.3
655.33,894.4
655.856,890.6
656.382,891.3
656.908,893.4
657.434,890.6
657.96,891.1
658.486,889.0
659.012,887.9
659.538,887.0
660.064,887.5
660.589,888.2
661.115,889.7
661.641,887.7
662.166,885.9
662.692,887.7
663.086,886.4

File: VLFR_08-PLA_bio_Raman_973e5cf3.csv
nm,Intensity
526.508,829.1
527.055,829.5
527.602,830.0
528.149,828.9
528.695,830.4
529.241,830.6
529.787,829.6
530.334,830.5
530.879,830.0
531.425,829.5
531.971,837.3
532.516,831.4
533.062,827.5
533.607,830.2
534.152,905.2
534.697,905.9
535.242,900.6
535.786,898.4
536.331,895.2
536.876,896.6
537.42,896.5
537.964,897.2
538.508,901.6
539.052,900.3
539.596,902.2
540.14,900.1
540.683,903.4
541.227,904.5
541.77,900.1
542.313,904.0
542.856,901.4
543.399,907.7
543.942,910.7
544.485,907.9
545.027,913.1
545.57,910.2
546.112,912.1
546.654,913.4
547.196,913.3
547.738,912.2
548.28,912.9
548.822,917.5
549.363,915.3
549.905,918.3
550.446,917.0
550.988,918.7
551.529,920.6
552.07,924.3
552.611,922.1
553.152,923.5
553.692,924.9
554.233,928.2
554.773,924.2
555.314,927.7
555.854,930.3
556.394,925.8
556.934,928.0
557.474,931.2
558.014,952.2
558.553,939.8
559.093,930.0
559.632,935.1
560.172,935.3
560.711,933.6
561.25,933.0
561.789,930.6
562.328,938.5
562.867,936.5
563.406,944.1
563.944,941.8
564.483,942.3
565.021,942.5
565.559,945.7
566.098,951.0
566.636,947.4
567.174,945.6
567.711,938.9
568.249,946.0
568.787,950.0
569.324,950.3
569.862,948.9
570.399,948.9
570.936,949.8
571.474,952.9
572.011,953.2
572.548,956.0
573.084,956.8
573.621,955.6
574.158,955.9
574.694,961.3
575.231,954.2
575.767,959.2
576.303,960.6
576.84,972.4
577.376,966.6
577.912,961.0
578.447,962.4
578.983,964.6
579.519,964.6
580.054,962.1
580.59,960.0
581.125,961.3
581.661,957.3
582.196,962.4
582.731,966.2
583.266,963.7
583.801,964.8
584.336,964.3
584.87,966.0
585.405,962.5
585.94,969.7
586.474,966.0
587.008,975.3
587.543,979.6
588.077,972.6
588.611,966.6
589.145,967.8
589.679,965.9
590.213,966.2
590.747,964.6
591.28,966.8
591.814,969.1
592.347,963.9
592.881,968.4
593.414,964.1
593.947,964.3
594.48,963.6
595.014,966.0
595.547,967.3
596.079,965.8
596.612,970.9
597.145,961.8
597.678,964.3
598.21,967.6
598.743,970.7
599.275,968.1
599.807,962.5
600.34,964.7
600.872,968.1
601.404,967.0
601.936,966.0
602.468,966.2
603.0,966.2
603.532,966.6
604.063,967.1
604.595,962.9
605.126,964.8
605.658,963.2
606.189,960.6
606.721,961.2
607.252,967.4
607.783,962.7
608.314,957.9
608.845,962.6
609.376,960.5
609.907,964.2
610.438,959.2
610.968,960.3
611.499,962.8
612.03,962.8
612.56,962.6
613.091,964.2
613.621,964.3
614.151,965.4
614.681,959.8
615.212,960.9
615.742,960.4
616.272,962.1
616.802,964.8
617.332,964.8
617.861,962.9
618.391,960.3
618.921,960.4
619.45,959.9
619.98,958.1
620.509,958.6
621.039,960.5
621.568,955.8
622.097,963.8
622.627,961.6
623.156,959.6
623.685,962.7
624.214,959.1
624.743,958.7
625.272,957.0
625.801,957.0
626.33,953.6
626.858,958.4
627.387,955.2
627.916,956.2
628.444,967.5
628.973,963.1
629.501,960.9
630.029,962.4
630.558,971.4
631.086,1039.4
631.614,995.6
632.142,975.2
632.67,971.4
633.198,984.4
633.726,977.4
634.254,962.4
634.782,950.1
635.31,944.6
635.838,947.9
636.365,948.3
636.893,946.2
637.421,943.0
637.948,948.6
638.476,942.2
639.003,943.8
639.531,943.3
640.058,940.3
640.585,942.1
641.113,938.6
641.64,940.5
642.167,936.1
642.694,940.3
643.221,935.4
643.748,932.2
644.275,933.3
644.802,933.3
645.329,931.2
645.856,931.1
646.382,932.6
646.909,929.3
647.436,933.7
647.962,929.7
648.489,929.2
649.016,928.2
649.542,928.1
650.069,926.8
650.595,927.0
651.121,924.7
651.648,926.2
652.174,924.8
652.7,927.7
653.227,923.7
653.753,923.5
654.279,923.5
654.805,924.6
655.331,917.4
655.857,918.1
656.383,920.4
656.909,919.7
657.435,920.6
657.961,921.0
658.487,917.5
659.013,915.0
659.538,914.1
660.064,915.1
660.59,914.4
661.116,916.1
661.641,909.8
662.167,909.6
662.692,911.9
663.087,909.6

File: VLFR_08-PLA_bio_Raman_1609f445.csv
nm,Intensity
528.626,1863.65
529.132,1863.3
529.637,1863.35
530.143,1862.85
530.648,1864.55
531.153,1865.8
531.658,1912.0
532.164,4449.0
532.669,1864.3
533.174,1864.15
533.679,1970.3
534.184,2251.0
534.689,2390.25
535.194,2288.0
535.699,2315.4
536.203,2316.55
536.708,2343.65
537.213,2330.15
537.717,2388.45
538.222,2386.05
538.726,2378.75
539.231,2412.6
539.735,2330.35
540.239,2327.8
540.744,2339.15
541.248,2362.7
541.752,2386.0
542.256,2400.35
542.76,2394.7
543.264,2384.7
543.768,2444.25
544.272,2514.55
544.776,2684.95
545.28,2611.3
545.784,2473.15
546.287,2394.35
546.791,2399.4
547.294,2417.35
547.798,2403.1
548.301,2439.1
548.805,2468.8
549.308,2577.95
549.811,2648.25
550.315,2511.6
550.818,2488.5
551.321,2479.6
551.824,2492.75
552.327,2456.35
552.83,2419.8
553.333,2445.65
553.835,2460.6
554.338,2458.35
554.841,2487.75
555.343,2463.05
555.846,2460.6
556.349,2459.35
556.851,2451.05
557.353,2442.2
557.856,2472.2
558.358,2477.1
558.86,2456.5
559.362,2484.6
559.864,2474.35
560.366,2509.8
560.868,2524.65
561.37,2560.9
561.872,3297.0
562.374,4814.35
562.876,2647.45
563.377,2548.85
563.879,2562.65
564.38,2590.3
564.882,2765.0
565.383,2701.05
565.885,2586.35
566.386,2584.3
566.887,2603.1
567.388,2589.5
567.889,2557.35
568.391,2543.15
568.892,2546.65
569.392,2556.05
569.893,2566.85
570.394,2552.6
570.895,2541.85
571.395,2551.3
571.896,2553.75
572.397,2592.45
572.897,2572.85
573.397,2583.5
573.898,2565.9
574.398,2580.9
574.898,2565.35
575.398,2565.85
575.898,2600.05
576.398,2568.7
576.898,2597.3
577.398,2571.65
577.898,2585.85
578.398,2575.95
578.897,2568.35
579.397,2582.2
579.896,2592.9
580.396,2591.1
580.895,2600.6
581.395,2615.8
581.894,2614.25
582.393,2607.65
582.892,2642.3
583.391,2602.3
583.89,2633.85
584.389,2629.15
584.888,2607.45
585.387,2595.35
585.886,2587.1
586.384,2633.85
586.883,2613.6
587.381,2594.05
587.88,2598.9
588.378,2606.1
588.876,2551.05
589.375,2554.8
589.873,2560.3
590.371,2604.3
590.869,2599.15
591.367,2600.05
591.865,2603.05
592.363,2595.45
592.86,2616.75
593.358,2610.5
593.856,2611.4
594.353,2590.35
594.851,2593.45
595.348,2612.85
595.845,2601.0
596.342,2614.55
596.84,2621.85
597.337,2621.5
597.834,2617.85
598.331,2611.75
598.828,2629.1
599.324,2642.45
599.821,2613.2
600.318,2618.0
600.814,2612.3
601.311,2619.9
601.807,2618.25
602.304,2628.35
602.8,2635.5
603.296,2649.3
603.792,2655.05
604.288,2633.8
604.784,2636.2
605.28,2640.85
605.776,2634.7
606.272,2656.7
606.767,2661.95
607.263,2643.8
607.759,2630.05
608.254,2630.65
608.749,2635.95
609.245,2641.05
609.74,2653.0
610.235,2630.15
610.73,2644.4
611.225,2646.5
611.72,2634.8
612.215,2615.8
612.71,2634.35
613.204,2630.6
613.699,2615.5
614.194,2610.3
614.688,2636.05
615.182,2607.05
615.677,2623.75
616.171,2588.0
616.665,2623.9
617.159,2621.75
617.653,2623.7
618.147,2641.05
618.641,2635.7
619.135,2613.65
619.628,2635.6
620.122,2637.8
620.615,2619.75
621.109,2600.9
621.602,2627.75
622.095,2615.8
622.589,2632.65
623.082,2598.85
623.575,2621.35
624.068,2606.3
624.561,2604.2
625.053,2616.6
625.546,2594.9
626.039,2598.4
626.531,2607.0
627.024,2592.85
627.516,2591.15
628.008,2575.3
628.501,2620.05
628.993,2576.75
629.485,2581.6
629.977,2567.85
630.469,2594.0
630.96,2591.6
631.452,2583.35
631.944,2577.2
632.435,2598.7
632.927,2606.35
633.418,2573.45
633.91,2575.55
634.401,2583.0
634.892,2584.9
635.383,2599.3
635.874,2575.35
636.365,2586.15
636.856,2571.1
637.346,2611.45
637.837,2580.2
638.327,2600.9
638.818,2601.75
639.308,2583.05
639.799,2615.05
640.289,2636.9
640.779,2620.6
641.269,2657.3
641.759,2681.15
642.249,2722.4
642.738,2805.65
643.228,2848.75
643.718,2940.95
644.207,3092.15
644.697,3138.5
645.186,3114.85
645.675,3080.2
646.164,3080.3
646.653,3086.8
647.142,3099.75
647.631,3070.3
648.12,3073.15
648.609,3064.55
649.098,2998.0
649.586,2972.15
650.075,2974.95
650.563,2892.35
651.051,2815.8
651.539,2759.7
652.027,2717.65
652.515,2737.4
653.003,2715.85
653.491,2661.45
653.979,2653.95
654.467,2589.15
654.954,2554.9
655.442,2506.8
655.929,2458.3
656.416,2397.95
656.904,2438.9
657.391,2413.85
657.878,2393.55
658.365,2382.15
658.851,2368.3
659.338,2334.9
659.825,2342.2
660.311,2343.8
660.798,2312.6
661.041,2326.8

File: VLFR_08-PLA_bio_Raman_2167d2db.csv
nm,Intensity
526.508,829.9
527.055,828.6
527.602,830.2
528.149,830.2
528.695,829.5
529.241,830.6
529.787,831.6
530.334,829.5
530.879,830.4
531.425,829.3
531.971,837.7
532.516,831.3
533.062,829.9
533.607,830.4
534.152,890.8
534.697,890.9
535.242,890.1
535.786,889.6
536.331,889.5
536.876,892.2
537.42,892.7
537.964,888.0
538.508,890.5
539.052,891.7
539.596,893.0
540.14,892.8
540.683,899.3
541.227,895.6
541.77,899.9
542.313,900.5
542.856,900.4
543.399,903.5
543.942,905.7
544.485,906.5
545.027,908.6
545.57,906.9
546.112,907.8
546.654,907.3
547.196,907.1
547.738,909.3
548.28,910.3
548.822,914.4
549.363,915.5
549.905,915.5
550.446,915.0
550.988,916.3
551.529,916.5
552.07,918.9
552.611,916.9
553.152,919.6
553.692,918.4
554.233,919.0
554.773,921.5
555.314,926.8
555.854,922.2
556.394,922.7
556.934,924.3
557.474,928.6
558.014,935.5
558.553,927.4
559.093,923.9
559.632,930.1
560.172,931.6
560.711,929.5
561.25,928.9
561.789,931.6
562.328,932.0
562.867,934.3
563.406,940.1
563.944,938.6
564.483,940.0
565.021,945.0
565.559,942.4
566.098,944.9
566.636,943.3
567.174,940.6
567.711,941.0
568.249,941.1
568.787,946.5
569.324,947.1
569.862,948.0
570.399,950.5
570.936,948.5
571.474,950.1
572.011,949.6
572.548,949.8
573.084,952.6
573.621,952.7
574.158,953.3
574.694,954.3
575.231,958.1
575.767,956.4
576.303,959.3
576.84,960.5
577.376,962.6
577.912,957.6
578.447,963.0
578.983,959.6
579.519,960.8
580.054,962.4
580.59,964.6
581.125,966.1
581.661,964.0
582.196,964.5
582.731,966.2
583.266,972.5
583.801,969.4
584.336,969.7
584.87,966.3
585.405,971.2
585.94,968.0
586.474,970.9
587.008,979.6
587.543,974.9
588.077,974.8
588.611,970.6
589.145,975.9
589.679,968.9
590.213,971.1
590.747,972.0
591.28,975.4
591.814,973.7
592.347,972.6
592.881,970.9
593.414,971.8
593.947,973.9
594.48,976.5
595.014,977.9
595.547,977.9
596.079,978.7
596.612,983.6
597.145,976.8
597.678,978.6
598.21,980.6
598.743,981.7
599.275,980.5
599.807,982.4
600.34,984.8
600.872,977.6
601.404,984.6
601.936,977.9
602.468,982.7
603.0,980.3
603.532,986.8
604.063,983.4
604.595,979.7
605.126,982.3
605.658,981.2
606.189,977.0
606.721,977.6
607.252,978.4
607.783,980.5
608.314,982.5
608.845,983.3
609.376,979.1
609.907,979.9
610.438,977.2
610.968,980.7
611.499,984.7
612.03,985.4
612.56,986.0
613.091,986.6
613.621,987.8
614.151,988.9
614.681,989.7
615.212,984.1
615.742,985.3
616.272,982.9
616.802,987.5
617.332,986.8
617.861,989.1
618.391,991.9
618.921,984.8
619.45,984.5
619.98,988.1
620.509,992.2
621.039,987.3
621.568,985.3
622.097,986.8
622.627,985.6
623.156,989.8
623.685,993.0
624.214,987.4
624.743,984.5
625.272,991.6
625.801,983.8
626.33,990.1
626.858,987.8
627.387,992.7
627.916,989.8
628.444,989.5
628.973,995.2
629.501,987.8
630.029,999.6
630.558,996.5
631.086,1017.1
631.614,1004.7
632.142,989.3
632.67,992.0
633.198,995.9
633.726,990.9
634.254,987.1
634.782,980.9
635.31,982.9
635.838,983.5
636.365,985.3
636.893,984.8
637.421,987.3
637.948,982.3
638.476,983.0
639.003,983.5
639.531,985.6
640.058,977.5
640.585,980.8
641.113,981.8
641.64,982.7
642.167,984.6
642.694,981.9
643.221,978.4
643.748,978.7
644.275,977.8
644.802,975.9
645.329,977.1
645.856,981.4
646.382,977.8
646.909,978.0
647.436,978.4
647.962,973.3
648.489,974.4
649.016,974.7
649.542,976.6
650.069,974.0
650.595,971.1
651.121,973.2
651.648,973.6
652.174,971.9
652.7,977.5
653.227,970.8
653.753,973.2
654.279,977.1
654.805,968.8
655.331,969.8
655.857,968.0
656.383,964.3
656.909,972.2
657.435,967.0
657.961,968.6
658.487,968.4
659.013,967.4
659.538,963.7
660.064,963.0
660.59,968.1
661.116,963.4
661.641,964.1
662.167,965.5
662.692,967.5
663.087,961.5

File: VLFR_08-PLA_bio_Raman_5309dbb4.csv
nm,Intensity
526.495,829.5
527.042,829.0
527.589,829.4
528.136,827.9
528.682,829.0
529.229,830.0
529.775,828.3
530.321,829.1
530.867,828.0
531.413,829.2
531.959,833.8
532.505,830.1
533.051,829.3
533.596,830.5
534.141,1041.5
534.687,996.1
535.232,954.0
535.777,941.0
536.321,936.7
536.866,931.8
537.41,926.1
537.955,921.9
538.499,915.0
539.043,913.8
539.587,909.8
540.131,905.8
540.675,919.5
541.219,924.8
541.762,913.0
542.305,911.5
542.849,914.5
543.392,933.9
543.935,943.7
544.478,925.7
545.02,911.8
545.563,908.4
546.106,908.6
546.648,910.0
547.19,913.8
547.732,912.3
548.274,909.9
548.816,911.3
549.358,917.5
549.9,914.9
550.441,917.3
550.983,918.1
551.524,924.0
552.065,928.7
552.606,929.5
553.147,924.6
553.688,923.8
554.229,933.9
554.769,925.5
555.31,919.2
555.85,915.7
556.391,914.9
556.931,922.1
557.471,934.7
558.011,1043.7
558.551,953.7
559.09,936.4
559.63,936.2
560.169,930.9
560.709,928.8
561.248,927.7
561.787,924.0
562.326,927.9
562.865,937.1
563.404,966.7
563.943,949.4
564.481,937.6
565.02,955.9
565.558,953.2
566.096,980.0
566.634,953.3
567.172,931.5
567.71,942.1
568.248,944.9
568.786,943.1
569.324,941.2
569.861,940.5
570.399,937.8
570.936,940.4
571.473,957.6
572.01,958.6
572.547,955.4
573.084,957.1
573.621,958.6
574.158,958.2
574.694,963.1
575.231,945.5
575.767,944.3
576.303,964.5
576.84,1019.7
577.376,964.3
577.912,950.1
578.448,944.1
578.984,949.5
579.519,946.3
580.055,942.4
580.59,945.5
581.126,948.1
581.661,945.6
582.196,944.9
582.731,942.4
583.267,949.7
583.801,951.0
584.336,951.5
584.871,954.8
585.406,951.9
585.94,951.4
586.475,960.5
587.009,1000.4
587.543,1020.0
588.078,968.1
588.612,955.6
589.146,950.8
589.68,948.0
590.214,952.8
590.747,950.5
591.281,948.7
591.815,952.6
592.348,954.0
592.881,952.0
593.415,949.9
593.948,947.5
594.481,949.5
595.014,952.7
595.547,948.6
596.08,949.7
596.613,953.3
597.146,951.1
597.678,950.6
598.211,954.9
598.743,955.7
599.276,954.8
599.808,955.1
600.34,953.4
600.872,951.5
601.404,951.6
601.936,952.5
602.468,951.5
603.0,955.1
603.532,953.9
604.064,951.5
604.595,954.8
605.127,954.5
605.658,948.5
606.189,947.1
606.721,947.4
607.252,945.8
607.783,948.0
608.314,948.9
608.845,948.8
609.376,950.6
609.907,949.1
610.438,953.2
610.968,951.1
611.499,948.3
612.029,952.5
612.56,947.8
613.09,952.1
613.621,954.1
614.151,951.8
614.681,951.9
615.211,953.9
615.741,956.8
616.271,951.3
616.801,958.2
617.331,960.0
617.861,954.9
618.39,953.5
618.92,954.5
619.45,955.5
619.979,955.3
620.509,953.9
621.038,954.6
621.567,954.0
622.096,955.1
622.626,962.2
623.155,969.1
623.684,962.9
624.213,954.8
624.742,957.6
625.271,952.1
625.799,952.9
626.328,950.1
626.857,950.9
627.386,953.3
627.914,960.9
628.443,1028.0
628.971,1010.7
629.5,1008.8
630.028,1014.3
630.556,1065.4
631.084,1419.7
631.613,1195.4
632.141,1066.0
632.669,1051.2
633.197,1133.3
633.725,1094.6
634.253,1007.8
634.781,966.2
635.308,950.7
635.836,942.2
636.364,942.6
636.891,944.0
637.419,942.7
637.947,940.3
638.474,940.8
639.002,938.5
639.529,943.2
640.056,941.5
640.584,939.6
641.111,939.1
641.638,939.7
642.165,939.3
642.692,935.0
643.219,934.4
643.746,932.1
644.273,932.1
644.8,928.4
645.327,933.1
645.854,929.8
646.381,928.5
646.908,930.4
647.434,924.8
647.961,926.8
648.488,923.8
649.014,927.4
649.541,921.3
650.067,923.1
650.594,920.8
651.12,923.4
651.646,922.0
652.173,921.2
652.699,919.8
653.225,921.0
653.752,922.9
654.278,920.0
654.804,919.6
655.33,917.5
655.856,919.0
656.382,918.0
656.908,918.3
657.434,919.8
657.96,919.4
658.486,920.3
659.012,920.6
659.538,917.2
660.064,917.0
660.589,916.1
661.115,913.5
661.641,914.2
662.166,916.1
662.692,912.0
663.086,911.4