Folder: MPX_specDB/spectra (part 59)

File: VLFR_02-HDPE_nobio_Raman_342c38dc.csv
nm,Intensity
526.486,830.5
527.033,830.5
527.579,830.5
528.126,830.4
528.672,831.2
529.219,829.6
529.765,829.8
530.311,830.2
530.857,829.4
531.403,829.1
531.948,831.9
532.494,830.6
533.039,828.0
533.585,829.5
534.13,849.4
534.675,847.0
535.22,844.5
535.764,843.0
536.309,842.6
536.854,841.9
537.398,839.3
537.942,842.2
538.486,844.0
539.03,849.6
539.574,846.0
540.118,841.1
540.662,840.9
541.205,838.7
541.749,840.7
542.292,842.2
542.835,841.6
543.378,843.6
543.921,843.1
544.464,840.6
545.006,840.4
545.549,840.4
546.091,840.3
546.634,841.7
547.176,840.6
547.718,840.7
548.26,841.5
548.802,840.8
549.343,841.6
549.885,841.9
550.426,842.0
550.968,845.0
551.509,843.3
552.05,845.5
552.591,842.7
553.132,840.9
553.673,841.4
554.214,841.6
554.754,842.1
555.295,842.5
555.835,841.7
556.375,840.8
556.915,841.1
557.455,840.9
557.995,842.4
558.535,842.3
559.075,842.9
559.614,841.4
560.154,842.1
560.693,840.4
561.232,843.1
561.772,843.1
562.311,842.1
562.85,843.7
563.388,844.8
563.927,855.6
564.466,846.7
565.004,848.1
565.543,847.3
566.081,872.7
566.619,847.6
567.157,845.1
567.695,843.9
568.233,845.7
568.771,844.2
569.309,845.2
569.846,845.6
570.384,846.9
570.921,850.2
571.458,868.0
571.995,854.9
572.532,848.3
573.069,848.1
573.606,846.8
574.143,848.0
574.68,842.9
575.216,846.2
575.753,864.9
576.289,860.6
576.825,858.4
577.361,850.9
577.897,844.1
578.433,843.6
578.969,843.3
579.505,841.2
580.041,841.9
580.576,842.1
581.112,844.7
581.647,841.4
582.183,841.8
582.718,843.2
583.253,843.7
583.788,841.6
584.323,840.5
584.858,843.1
585.392,844.3
585.927,842.8
586.462,844.4
586.996,842.1
587.53,841.9
588.065,842.1
588.599,842.5
589.133,842.8
589.667,842.9
590.201,842.7
590.735,842.4
591.268,841.5
591.802,842.4
592.335,841.3
592.869,842.6
593.402,842.7
593.936,842.3
594.469,843.4
595.002,842.6
595.535,845.4
596.068,840.9
596.601,844.8
597.133,841.4
597.666,841.7
598.199,843.7
598.731,842.6
599.264,846.7
599.796,845.5
600.328,842.4
600.86,843.7
601.393,843.4
601.925,843.3
602.457,842.4
602.988,843.4
603.52,843.7
604.052,843.2
604.583,842.9
605.115,841.9
605.646,842.6
606.178,840.1
606.709,841.4
607.24,842.7
607.771,842.4
608.302,840.9
608.833,842.0
609.364,843.2
609.895,841.6
610.426,842.3
610.957,843.4
611.487,840.3
612.018,840.8
612.548,844.4
613.078,842.2
613.609,841.3
614.139,841.8
614.669,841.9
615.199,840.3
615.729,842.5
616.259,840.4
616.789,840.7
617.319,841.7
617.849,842.5
618.378,842.4
618.908,843.3
619.437,842.1
619.967,842.7
620.496,843.6
621.025,842.6
621.555,844.3
622.084,848.6
622.613,845.4
623.142,845.9
623.671,844.1
624.2,842.7
624.729,844.3
625.258,844.3
625.786,843.0
626.315,849.9
626.844,873.2
627.372,939.5
627.901,896.8
628.429,913.5
628.957,906.3
629.486,898.3
630.014,882.5
630.542,879.2
631.07,859.1
631.598,848.4
632.126,844.7
632.654,846.1
633.182,842.9
633.71,843.1
634.237,844.3
634.765,842.5
635.293,843.8
635.82,844.1
636.348,840.9
636.875,844.2
637.403,843.8
637.93,844.3
638.458,841.4
638.985,843.1
639.512,841.2
640.039,839.3
640.566,839.6
641.093,842.5
641.62,842.4
642.147,841.8
642.674,842.8
643.201,841.1
643.728,842.9
644.255,841.1
644.781,843.2
645.308,842.3
645.835,841.3
646.361,841.1
646.888,840.5
647.414,840.6
647.941,839.7
648.467,842.1
648.993,841.3
649.52,840.2
650.046,841.2
650.572,840.9
651.098,839.5
651.625,840.0
652.151,839.4
652.677,840.3
653.203,840.3
653.729,839.9
654.255,839.4
654.78,840.0
655.306,839.5
655.832,839.9
656.358,840.6
656.884,840.0
657.409,838.5
657.935,839.0
658.461,839.9
658.986,840.1
659.512,837.7
660.037,839.5
660.563,839.0
661.088,839.8
661.614,838.4
662.139,838.5
662.664,838.9
663.058,838.8

File: VLFR_02-HDPE_nobio_Raman_480d23c3.csv
nm,Intensity
526.5,828.3
527.047,828.5
527.594,829.8
528.14,828.6
528.687,828.7
529.233,829.1
529.779,829.9
530.325,827.8
530.871,828.1
531.417,829.2
531.962,834.7
532.508,829.6
533.053,829.0
533.599,829.7
534.144,855.4
534.689,854.2
535.234,854.2
535.778,851.8
536.323,849.3
536.867,847.1
537.412,849.8
537.956,854.2
538.5,853.2
539.044,851.8
539.588,851.6
540.132,852.2
540.675,852.0
541.219,850.8
541.762,849.3
542.305,851.4
542.848,850.2
543.391,848.8
543.934,850.1
544.477,851.6
545.02,851.8
545.562,851.0
546.105,848.5
546.647,849.9
547.189,847.7
547.731,852.9
548.273,851.0
548.815,852.2
549.356,854.0
549.898,850.9
550.439,850.1
550.981,852.7
551.522,851.8
552.063,854.4
552.604,853.3
553.145,853.5
553.686,852.2
554.226,854.5
554.767,855.5
555.307,853.6
555.848,855.2
556.388,854.8
556.928,850.8
557.468,853.0
558.008,855.6
558.547,854.1
559.087,855.1
559.626,855.6
560.166,855.1
560.705,853.5
561.244,856.0
561.783,855.5
562.322,857.2
562.861,857.2
563.4,857.9
563.939,867.8
564.477,860.2
565.015,860.3
565.554,860.5
566.092,871.4
566.63,861.1
567.168,859.7
567.706,862.7
568.244,859.3
568.781,859.3
569.319,859.6
569.857,861.1
570.394,865.0
570.931,864.4
571.468,877.3
572.005,868.6
572.542,863.7
573.079,868.2
573.616,867.7
574.153,869.5
574.689,864.4
575.226,865.1
575.762,872.7
576.298,882.7
576.834,874.9
577.371,870.4
577.907,868.6
578.442,868.6
578.978,871.2
579.514,869.9
580.049,870.9
580.585,872.7
581.12,871.3
581.656,870.9
582.191,871.7
582.726,870.4
583.261,867.8
583.796,871.2
584.331,867.3
584.865,871.3
585.4,869.0
585.935,869.6
586.469,867.4
587.004,869.3
587.538,872.6
588.072,873.4
588.606,871.8
589.14,873.5
589.674,872.0
590.208,874.1
590.742,876.2
591.275,874.5
591.809,874.9
592.342,873.8
592.876,876.0
593.409,873.8
593.942,874.5
594.476,873.7
595.009,877.0
595.542,875.6
596.075,876.7
596.607,876.2
597.14,877.0
597.673,880.4
598.205,876.6
598.738,877.6
599.27,876.1
599.803,879.5
600.335,879.4
600.867,881.1
601.399,879.1
601.931,881.3
602.463,880.5
602.995,880.3
603.527,879.0
604.058,878.1
604.59,879.3
605.122,878.0
605.653,880.9
606.184,879.0
606.716,878.6
607.247,875.5
607.778,873.8
608.309,874.9
608.84,876.2
609.371,876.9
609.902,875.7
610.433,876.6
610.964,875.9
611.494,877.0
612.025,878.0
612.556,878.9
613.086,875.6
613.616,879.9
614.147,880.5
614.677,878.3
615.207,877.6
615.737,878.1
616.267,878.0
616.797,879.0
617.327,879.8
617.857,882.7
618.387,880.6
618.917,879.5
619.446,878.4
619.976,881.0
620.505,880.9
621.035,880.3
621.564,883.5
622.093,891.4
622.623,885.8
623.152,884.1
623.681,880.9
624.21,882.4
624.739,881.4
625.268,881.5
625.797,881.5
626.326,887.2
626.855,927.4
627.383,984.3
627.912,942.4
628.441,967.9
628.969,945.8
629.498,927.9
630.026,918.0
630.554,913.2
631.083,895.1
631.611,883.1
632.139,883.6
632.667,884.6
633.195,882.4
633.724,885.0
634.252,881.4
634.779,880.7
635.307,880.8
635.835,878.3
636.363,879.9
636.891,880.2
637.418,879.7
637.946,878.7
638.474,879.6
639.001,879.0
639.529,879.3
640.056,880.1
640.583,878.0
641.111,880.3
641.638,877.9
642.165,880.6
642.692,879.6
643.22,878.3
643.747,878.3
644.274,877.6
644.801,877.0
645.328,875.9
645.854,878.3
646.381,879.4
646.908,880.3
647.435,877.3
647.962,877.5
648.488,880.3
649.015,876.4
649.542,879.5
650.068,877.4
650.595,874.9
651.121,878.5
651.648,875.4
652.174,877.5
652.7,879.1
653.227,878.2
653.753,879.0
654.279,876.7
654.805,874.9
655.331,877.4
655.858,879.3
656.384,877.1
656.91,878.6
657.436,880.2
657.962,876.7
658.488,880.1
659.013,878.5
659.539,875.6
660.065,881.5
660.591,878.5
661.117,876.8
661.642,878.6
662.168,874.6
662.694,876.2
663.088,875.0

File: VLFR_02-HDPE_nobio_Raman_506c560c.csv
nm,Intensity
526.5,829.8
527.047,828.9
527.594,829.5
528.14,829.2
528.687,829.0
529.233,829.1
529.779,829.2
530.325,829.1
530.871,829.3
531.417,830.2
531.962,843.6
532.508,831.3
533.053,828.5
533.599,830.2
534.144,898.1
534.689,881.6
535.234,867.0
535.778,858.1
536.323,851.3
536.867,849.8
537.412,848.7
537.956,847.5
538.5,845.7
539.044,841.9
539.588,839.1
540.132,839.2
540.675,836.9
541.219,835.2
541.762,834.3
542.305,836.4
542.848,837.1
543.391,836.1
543.934,836.6
544.477,836.2
545.02,836.8
545.562,833.1
546.105,836.5
546.647,834.4
547.189,834.7
547.731,835.0
548.273,834.4
548.815,834.6
549.356,835.4
549.898,834.0
550.439,832.8
550.981,833.3
551.522,834.6
552.063,834.2
552.604,834.8
553.145,835.5
553.686,838.0
554.226,837.1
554.767,836.6
555.307,836.8
555.848,837.8
556.388,841.4
556.928,842.3
557.468,845.3
558.008,847.1
558.547,848.3
559.087,842.1
559.626,845.7
560.166,842.1
560.705,839.3
561.244,841.1
561.783,842.8
562.322,843.5
562.861,846.7
563.4,851.5
563.939,951.8
564.477,872.3
565.015,864.0
565.554,861.6
566.092,1073.7
566.63,870.2
567.168,850.1
567.706,847.7
568.244,845.1
568.781,841.8
569.319,843.1
569.857,845.8
570.394,849.6
570.931,854.1
571.468,1015.4
572.005,879.4
572.542,850.2
573.079,842.8
573.616,845.4
574.153,854.8
574.689,843.0
575.226,854.0
575.762,972.1
576.298,958.5
576.834,919.6
577.371,883.6
577.907,850.7
578.442,843.2
578.978,841.2
579.514,842.2
580.049,840.8
580.585,840.7
581.12,839.1
581.656,840.7
582.191,840.5
582.726,841.2
583.261,839.9
583.796,838.8
584.331,840.5
584.865,841.2
585.4,843.8
585.935,841.9
586.469,842.7
587.004,843.3
587.538,844.1
588.072,843.8
588.606,843.5
589.14,845.1
589.674,845.3
590.208,846.8
590.742,847.4
591.275,848.7
591.809,847.8
592.342,847.9
592.876,847.8
593.409,852.5
593.942,851.4
594.476,850.1
595.009,851.3
595.542,852.9
596.075,852.0
596.607,852.6
597.14,854.8
597.673,855.6
598.205,858.3
598.738,856.9
599.27,859.7
599.803,860.4
600.335,856.0
600.867,854.5
601.399,857.6
601.931,857.4
602.463,858.3
602.995,857.6
603.527,854.2
604.058,856.0
604.59,855.7
605.122,855.7
605.653,853.6
606.184,854.1
606.716,852.4
607.247,853.7
607.778,852.5
608.309,854.3
608.84,854.9
609.371,854.1
609.902,853.1
610.433,854.5
610.964,860.5
611.494,857.8
612.025,855.0
612.556,852.6
613.086,853.6
613.616,852.7
614.147,851.6
614.677,853.8
615.207,851.8
615.737,853.5
616.267,853.6
616.797,856.0
617.327,858.7
617.857,858.1
618.387,857.5
618.917,859.1
619.446,859.5
619.976,861.7
620.505,858.2
621.035,864.4
621.564,871.6
622.093,890.6
622.623,888.8
623.152,866.6
623.681,861.0
624.21,859.8
624.739,859.1
625.268,864.8
625.797,869.8
626.326,893.4
626.855,1099.1
627.383,1534.0
627.912,1238.0
628.441,1346.1
628.969,1299.9
629.498,1202.8
630.026,1111.7
630.554,1079.8
631.083,964.5
631.611,892.1
632.139,872.3
632.667,863.6
633.195,862.3
633.724,858.3
634.252,853.2
634.779,851.5
635.307,849.4
635.835,850.1
636.363,851.0
636.891,848.0
637.418,846.5
637.946,846.8
638.474,846.4
639.001,846.5
639.529,845.2
640.056,845.4
640.583,846.7
641.111,846.7
641.638,843.5
642.165,845.5
642.692,844.4
643.22,845.2
643.747,846.0
644.274,845.7
644.801,845.6
645.328,844.8
645.854,844.6
646.381,845.5
646.908,846.2
647.435,841.3
647.962,844.9
648.488,845.4
649.015,842.0
649.542,843.9
650.068,845.8
650.595,844.0
651.121,844.5
651.648,843.2
652.174,843.8
652.7,845.5
653.227,844.6
653.753,842.9
654.279,843.6
654.805,843.5
655.331,843.8
655.858,846.5
656.384,844.8
656.91,843.3
657.436,844.5
657.962,844.9
658.488,844.4
659.013,845.9
659.539,843.3
660.065,846.6
660.591,846.1
661.117,843.2
661.642,843.1
662.168,841.1
662.694,841.6
663.088,844.7

File: VLFR_02-HDPE_nobio_Raman_877c6ecd.csv
nm,Intensity
526.5,830.1
527.047,830.0
527.594,828.6
528.14,828.7
528.687,827.7
529.233,829.3
529.779,829.2
530.325,828.1
530.871,830.1
531.417,828.8
531.962,831.6
532.508,829.6
533.053,828.3
533.599,827.9
534.144,883.7
534.689,874.9
535.234,865.8
535.778,855.6
536.323,852.8
536.867,849.5
537.412,849.9
537.956,847.8
538.5,847.8
539.044,845.7
539.588,843.8
540.132,841.8
540.675,842.8
541.219,841.4
541.762,839.9
542.305,841.3
542.848,839.6
543.391,840.1
543.934,839.5
544.477,839.7
545.02,839.4
545.562,840.5
546.105,839.0
546.647,838.6
547.189,838.9
547.731,838.8
548.273,837.5
548.815,838.4
549.356,840.5
549.898,840.5
550.439,838.2
550.981,839.2
551.522,839.4
552.063,838.5
552.604,838.4
553.145,839.9
553.686,841.9
554.226,841.2
554.767,841.6
555.307,842.8
555.848,844.8
556.388,843.2
556.928,845.1
557.468,846.2
558.008,848.4
558.547,849.7
559.087,847.0
559.626,845.4
560.166,848.2
560.705,846.2
561.244,846.7
561.783,847.8
562.322,848.7
562.861,852.5
563.4,854.8
563.939,934.6
564.477,872.6
565.015,864.4
565.554,862.6
566.092,1016.1
566.63,865.7
567.168,852.9
567.706,850.8
568.244,850.6
568.781,851.7
569.319,850.7
569.857,850.9
570.394,856.5
570.931,860.9
571.468,987.9
572.005,876.9
572.542,853.9
573.079,849.8
573.616,851.3
574.153,859.1
574.689,849.4
575.226,859.2
575.762,944.8
576.298,937.2
576.834,906.5
577.371,881.5
577.907,857.0
578.442,850.5
578.978,849.4
579.514,846.8
580.049,847.1
580.585,845.9
581.12,848.8
581.656,847.6
582.191,848.5
582.726,849.9
583.261,849.0
583.796,851.3
584.331,851.2
584.865,849.2
585.4,849.5
585.935,852.1
586.469,851.8
587.004,851.5
587.538,851.3
588.072,851.1
588.606,851.4
589.14,851.1
589.674,851.6
590.208,851.0
590.742,853.1
591.275,854.3
591.809,853.7
592.342,855.1
592.876,855.6
593.409,858.0
593.942,855.5
594.476,856.8
595.009,857.4
595.542,858.7
596.075,862.2
596.607,859.5
597.14,861.9
597.673,862.0
598.205,863.9
598.738,864.2
599.27,864.1
599.803,868.1
600.335,867.5
600.867,864.2
601.399,865.6
601.931,864.9
602.463,866.7
602.995,864.8
603.527,864.4
604.058,863.4
604.59,862.2
605.122,861.7
605.653,863.4
606.184,860.4
606.716,862.9
607.247,859.4
607.778,862.6
608.309,860.2
608.84,858.9
609.371,861.0
609.902,861.2
610.433,862.7
610.964,866.5
611.494,864.1
612.025,861.1
612.556,861.7
613.086,856.1
613.616,858.1
614.147,857.4
614.677,859.2
615.207,858.4
615.737,859.6
616.267,859.3
616.797,860.0
617.327,860.6
617.857,865.0
618.387,860.8
618.917,862.8
619.446,863.8
619.976,866.3
620.505,864.9
621.035,867.4
621.564,872.7
622.093,882.4
622.623,881.4
623.152,868.3
623.681,864.1
624.21,864.6
624.739,865.2
625.268,868.0
625.797,873.4
626.326,887.8
626.855,1034.3
627.383,1376.5
627.912,1158.0
628.441,1234.2
628.969,1208.0
629.498,1140.1
630.026,1060.9
630.554,1042.7
631.083,944.0
631.611,888.1
632.139,874.2
632.667,867.6
633.195,864.0
633.724,860.5
634.252,859.0
634.779,856.1
635.307,856.2
635.835,853.7
636.363,855.3
636.891,854.1
637.418,852.8
637.946,851.0
638.474,853.8
639.001,851.2
639.529,848.3
640.056,852.3
640.583,849.8
641.111,849.0
641.638,850.5
642.165,852.3
642.692,850.1
643.22,850.1
643.747,851.5
644.274,850.4
644.801,849.7
645.328,850.5
645.854,850.6
646.381,853.0
646.908,851.4
647.435,848.8
647.962,850.4
648.488,851.2
649.015,849.7
649.542,851.2
650.068,849.2
650.595,849.3
651.121,850.5
651.648,850.5
652.174,850.8
652.7,851.3
653.227,851.0
653.753,849.9
654.279,849.8
654.805,852.0
655.331,852.4
655.858,848.0
656.384,848.6
656.91,849.2
657.436,849.5
657.962,846.2
658.488,849.3
659.013,847.7
659.539,848.9
660.065,849.8
660.591,848.6
661.117,847.8
661.642,846.0
662.168,846.4
662.694,846.4
663.088,846.8

File: VLFR_02-HDPE_nobio_Raman_918b874f.csv
nm,Intensity
528.65,1833.85
529.155,1833.35
529.66,1833.7
530.165,1834.3
530.67,1833.95
531.175,1833.3
531.68,1846.8
532.185,2554.25
532.69,1833.95
533.194,1832.75
533.699,1890.35
534.204,2030.15
534.708,2020.15
535.213,2010.95
535.717,1974.85
536.222,1955.1
536.726,1953.35
537.231,1950.2
537.735,1955.25
538.239,1943.95
538.743,1946.75
539.247,1939.55
539.751,1936.5
540.255,1929.35
540.759,1934.15
541.263,1937.1
541.767,1934.75
542.271,1935.25
542.775,1937.55
543.279,1931.6
543.782,1943.3
544.286,1938.95
544.789,1934.4
545.293,1936.7
545.796,1936.3
546.3,1934.45
546.803,1938.4
547.306,1935.6
547.81,1941.9
548.313,1943.45
548.816,1937.65
549.319,1940.45
549.822,1944.75
550.325,1941.15
550.828,1940.65
551.331,1936.35
551.834,1950.05
552.337,1949.45
552.839,1940.25
553.342,1952.5
553.844,1955.8
554.347,1958.05
554.849,1961.1
555.352,1960.6
555.854,1963.0
556.357,1962.6
556.859,1969.3
557.361,1970.55
557.863,1972.6
558.365,1986.9
558.867,1972.65
559.369,1974.45
559.871,1977.8
560.373,1972.1
560.875,1971.35
561.377,1982.45
561.878,1982.35
562.38,1983.85
562.881,1996.25
563.383,2013.35
563.884,2252.15
564.386,2070.25
564.887,2044.1
565.388,2028.3
565.89,2149.95
566.391,2184.9
566.892,2015.0
567.393,2057.95
567.894,2006.65
568.395,2001.9
568.896,1997.05
569.396,2009.4
569.897,2014.1
570.398,2024.2
570.898,2047.85
571.399,2478.1
571.9,2124.55
572.4,2050.25
572.9,2047.2
573.401,2035.65
573.901,2073.4
574.401,2038.6
574.901,2058.45
575.401,2221.6
575.901,2259.8
576.401,2479.55
576.901,2371.15
577.401,2215.7
577.901,2132.15
578.4,2110.6
578.9,2127.1
579.399,2154.3
579.899,2148.95
580.398,2154.1
580.898,2158.9
581.397,2169.9
581.896,2175.5
582.395,2196.65
582.895,2196.85
583.394,2203.75
583.893,2216.25
584.391,2215.3
584.89,2229.95
585.389,2250.2
585.888,2265.8
586.386,2281.05
586.885,2288.3
587.384,2301.35
587.882,2324.6
588.38,2342.55
588.879,2347.1
589.377,2354.75
589.875,2384.5
590.373,2411.8
590.871,2419.4
591.369,2427.6
591.867,2457.5
592.365,2462.4
592.863,2450.25
593.361,2500.6
593.858,2480.15
594.356,2487.0
594.853,2493.55
595.351,2513.1
595.848,2515.8
596.345,2500.25
596.843,2506.5
597.34,2523.45
597.837,2525.15
598.334,2516.3
598.831,2520.05
599.328,2537.85
599.824,2522.7
600.321,2521.5
600.818,2513.35
601.314,2509.4
601.811,2512.2
602.307,2509.6
602.804,2488.6
603.3,2488.0
603.796,2481.1
604.293,2470.6
604.789,2438.65
605.285,2443.65
605.781,2419.6
606.277,2408.75
606.772,2397.9
607.268,2384.15
607.764,2379.2
608.259,2363.25
608.755,2340.9
609.25,2337.05
609.746,2336.05
610.241,2330.25
610.736,2313.95
611.231,2322.05
611.727,2296.5
612.222,2302.2
612.716,2266.4
613.211,2276.25
613.706,2264.6
614.201,2265.95
614.695,2263.3
615.19,2251.1
615.684,2253.85
616.179,2249.6
616.673,2248.7
617.168,2266.1
617.662,2259.55
618.156,2264.9
618.65,2236.5
619.144,2251.95
619.638,2241.1
620.131,2260.15
620.625,2254.7
621.119,2283.6
621.612,2317.7
622.106,2413.95
622.599,2361.95
623.093,2259.25
623.586,2234.0
624.079,2219.8
624.572,2215.05
625.065,2218.0
625.558,2229.35
626.051,2313.4
626.544,2724.95
627.037,4712.9
627.529,4295.25
628.022,3786.5
628.514,4912.0
629.007,3566.3
629.499,3264.65
629.991,3009.4
630.483,2889.45
630.976,2554.5
631.468,2285.3
631.959,2228.4
632.451,2196.35
632.943,2183.2
633.435,2197.5
633.926,2182.9
634.418,2169.8
634.909,2172.75
635.401,2173.9
635.892,2160.5
636.383,2166.1
636.874,2147.5
637.365,2167.0
637.856,2149.45
638.347,2151.35
638.838,2145.4
639.329,2146.05
639.819,2149.7
640.31,2167.35
640.8,2145.65
641.291,2143.05
641.781,2145.05
642.271,2160.7
642.761,2162.65
643.251,2162.2
643.741,2156.85
644.231,2155.65
644.721,2151.5
645.211,2154.55
645.7,2169.55
646.19,2150.6
646.679,2154.35
647.169,2146.65
647.658,2135.95
648.147,2135.4
648.636,2136.25
649.125,2125.85
649.614,2135.9
650.103,2129.75
650.592,2125.85
651.08,2133.9
651.569,2112.9
652.058,2111.95
652.546,2118.3
653.034,2107.0
653.523,2096.95
654.011,2108.55
654.499,2092.4
654.987,2084.85
655.475,2084.0
655.963,2084.9
656.45,2073.95
656.938,2076.65
657.425,2068.95
657.913,2055.25
658.4,2046.8
658.888,2041.45
659.375,2038.4
659.862,2036.85
660.349,2047.4
660.836,2037.75
661.079,2016.05

File: VLFR_02-HDPE_nobio_Raman_925cc3c8.csv
nm,Intensity
526.5,829.5
527.047,829.4
527.594,828.7
528.14,829.2
528.687,828.3
529.233,829.4
529.779,828.3
530.325,829.8
530.871,829.4
531.417,829.4
531.962,834.0
532.508,830.4
533.053,828.8
533.599,830.8
534.144,914.4
534.689,911.7
535.234,904.8
535.778,898.4
536.323,893.6
536.867,889.6
537.412,889.8
537.956,887.9
538.5,883.9
539.044,882.9
539.588,882.4
540.132,881.2
540.675,878.2
541.219,877.8
541.762,875.3
542.305,874.7
542.848,874.9
543.391,874.6
543.934,875.3
544.477,873.4
545.02,876.6
545.562,874.3
546.105,871.5
546.647,874.3
547.189,873.4
547.731,871.8
548.273,872.5
548.815,873.8
549.356,872.8
549.898,873.5
550.439,871.9
550.981,872.5
551.522,875.0
552.063,874.2
552.604,875.5
553.145,875.8
553.686,880.7
554.226,882.5
554.767,879.9
555.307,881.8
555.848,882.0
556.388,887.7
556.928,886.4
557.468,888.2
558.008,895.2
558.547,897.4
559.087,896.4
559.626,902.9
560.166,906.2
560.705,912.3
561.244,915.3
561.783,920.5
562.322,928.6
562.861,930.2
563.4,943.9
563.939,988.9
564.477,962.3
565.015,966.1
565.554,975.1
566.092,1035.0
566.63,994.0
567.168,1003.4
567.706,1014.5
568.244,1026.4
568.781,1042.4
569.319,1055.3
569.857,1075.7
570.394,1096.0
570.931,1124.3
571.468,1225.3
572.005,1188.5
572.542,1208.3
573.079,1254.7
573.616,1305.6
574.153,1357.1
574.689,1414.7
575.226,1484.1
575.762,1584.2
576.298,1723.9
576.834,1784.8
577.371,1871.3
577.907,1947.9
578.442,2074.6
578.978,2199.1
579.514,2322.5
580.049,2442.9
580.585,2582.8
581.12,2689.9
581.656,2791.5
582.191,2935.5
582.726,3035.0
583.261,3140.3
583.796,3239.7
584.331,3291.9
584.865,3328.8
585.4,3383.5
585.935,3448.0
586.469,3538.3
587.004,3606.6
587.538,3642.5
588.072,3665.8
588.606,3730.6
589.14,3751.7
589.674,3804.9
590.208,3858.8
590.742,3934.4
591.275,3987.0
591.809,4021.8
592.342,4058.3
592.876,4044.2
593.409,4056.8
593.942,4072.9
594.476,4088.2
595.009,4079.2
595.542,4101.6
596.075,4084.3
596.607,4094.3
597.14,4077.6
597.673,4040.9
598.205,4044.1
598.738,4040.8
599.27,4032.1
599.803,4007.8
600.335,3968.0
600.867,3914.1
601.399,3870.7
601.931,3839.0
602.463,3785.1
602.995,3744.8
603.527,3703.8
604.058,3651.6
604.59,3561.9
605.122,3465.8
605.653,3383.2
606.184,3294.9
606.716,3224.2
607.247,3194.3
607.778,3120.0
608.309,3089.7
608.84,3039.6
609.371,2981.0
609.902,2913.7
610.433,2866.5
610.964,2795.4
611.494,2769.2
612.025,2730.5
612.556,2715.2
613.086,2696.6
613.616,2670.3
614.147,2627.9
614.677,2601.1
615.207,2548.6
615.737,2511.7
616.267,2478.7
616.797,2467.2
617.327,2433.5
617.857,2412.4
618.387,2381.8
618.917,2359.1
619.446,2343.8
619.976,2313.6
620.505,2295.2
621.035,2274.2
621.564,2286.6
622.093,2296.4
622.623,2295.7
623.152,2273.1
623.681,2272.8
624.21,2272.5
624.739,2286.2
625.268,2293.1
625.797,2298.6
626.326,2318.7
626.855,2513.2
627.383,2799.8
627.912,2642.8
628.441,2807.7
628.969,2687.8
629.498,2623.0
630.026,2580.9
630.554,2574.0
631.083,2532.2
631.611,2502.2
632.139,2515.5
632.667,2506.1
633.195,2541.7
633.724,2550.2
634.252,2554.0
634.779,2569.4
635.307,2581.4
635.835,2604.7
636.363,2613.7
636.891,2615.1
637.418,2610.6
637.946,2625.7
638.474,2638.6
639.001,2650.2
639.529,2663.4
640.056,2657.0
640.583,2660.9
641.111,2679.1
641.638,2696.6
642.165,2717.1
642.692,2692.8
643.22,2673.8
643.747,2658.3
644.274,2670.2
644.801,2661.7
645.328,2647.4
645.854,2648.3
646.381,2631.6
646.908,2625.6
647.435,2609.4
647.962,2606.7
648.488,2603.5
649.015,2550.2
649.542,2551.0
650.068,2515.0
650.595,2480.4
651.121,2467.1
651.648,2447.2
652.174,2449.1
652.7,2408.8
653.227,2395.9
653.753,2381.1
654.279,2359.3
654.805,2341.3
655.331,2319.3
655.858,2293.3
656.384,2267.5
656.91,2258.7
657.436,2243.9
657.962,2219.7
658.488,2200.2
659.013,2173.8
659.539,2136.7
660.065,2112.4
660.591,2080.3
661.117,2055.8
661.642,2029.6
662.168,1990.9
662.694,1953.3
663.088,1935.4