Folder: MPX_specDB/spectra (part 8)

File: VLFR_01-LDPE_bio_Raman_5580dad3.csv
nm,Intensity
526.508,831.0
527.055,829.0
527.602,829.6
528.149,831.4
528.695,831.0
529.241,830.0
529.787,829.2
530.334,830.0
530.879,830.7
531.425,830.6
531.971,835.4
532.516,831.3
533.062,830.5
533.607,830.2
534.152,950.5
534.697,929.5
535.242,914.4
535.786,890.4
536.331,881.7
536.876,877.3
537.42,875.8
537.964,873.8
538.508,871.8
539.052,866.8
539.596,863.7
540.14,862.4
540.683,860.0
541.227,857.9
541.77,856.1
542.313,856.7
542.856,855.6
543.399,854.4
543.942,855.9
544.485,854.8
545.027,856.4
545.57,851.5
546.112,854.3
546.654,852.5
547.196,854.5
547.738,854.5
548.28,851.1
548.822,849.1
549.363,851.5
549.905,851.8
550.446,849.5
550.988,849.3
551.529,852.6
552.07,851.8
552.611,852.7
553.152,853.0
553.692,857.8
554.233,859.6
554.773,859.6
555.314,857.2
555.854,859.5
556.394,863.0
556.934,867.3
557.474,870.9
558.014,872.5
558.553,875.4
559.093,870.5
559.632,870.2
560.172,872.9
560.711,872.3
561.25,876.3
561.789,877.3
562.328,881.1
562.867,884.8
563.406,890.9
563.944,962.2
564.483,919.9
565.021,909.5
565.559,906.2
566.098,982.1
566.636,909.7
567.174,906.3
567.711,912.9
568.249,905.4
568.787,906.2
569.324,910.4
569.862,921.0
570.399,928.6
570.936,937.8
571.474,1064.7
572.011,988.4
572.548,965.7
573.084,965.7
573.621,974.7
574.158,994.3
574.694,995.1
575.231,1015.2
575.767,1082.8
576.303,1241.4
576.84,1188.9
577.376,1177.2
577.912,1156.5
578.447,1186.3
578.983,1217.2
579.519,1269.0
580.054,1303.8
580.59,1343.5
581.125,1389.3
581.661,1418.3
582.196,1450.6
582.731,1476.2
583.266,1499.1
583.801,1513.3
584.336,1513.5
584.87,1530.4
585.405,1523.6
585.94,1525.3
586.474,1542.1
587.008,1561.1
587.543,1580.6
588.077,1595.7
588.611,1598.6
589.145,1632.0
589.679,1645.1
590.213,1663.6
590.747,1694.8
591.28,1705.6
591.814,1728.1
592.347,1738.4
592.881,1732.6
593.414,1731.9
593.947,1734.3
594.48,1738.0
595.014,1735.7
595.547,1734.9
596.079,1734.0
596.612,1735.7
597.145,1728.8
597.678,1731.6
598.21,1727.5
598.743,1740.7
599.275,1742.3
599.807,1735.8
600.34,1728.1
600.872,1708.7
601.404,1704.8
601.936,1694.9
602.468,1668.7
603.0,1662.4
603.532,1621.2
604.063,1601.1
604.595,1580.8
605.126,1551.4
605.658,1508.7
606.189,1478.6
606.721,1453.3
607.252,1432.1
607.783,1408.8
608.314,1402.0
608.845,1378.6
609.376,1357.3
609.907,1340.4
610.438,1327.3
610.968,1309.7
611.499,1307.7
612.03,1291.0
612.56,1286.9
613.091,1280.2
613.621,1270.6
614.151,1264.3
614.681,1247.4
615.212,1239.8
615.742,1232.4
616.272,1222.9
616.802,1215.6
617.332,1219.1
617.861,1219.8
618.391,1210.8
618.921,1215.2
619.45,1201.3
619.98,1204.7
620.509,1202.4
621.039,1203.7
621.568,1219.6
622.097,1261.4
622.627,1254.2
623.156,1229.3
623.685,1219.3
624.214,1210.2
624.743,1222.2
625.272,1228.6
625.801,1239.1
626.33,1284.9
626.858,1612.7
627.387,2246.3
627.916,1862.8
628.444,2185.9
628.973,1925.3
629.501,1795.7
630.029,1671.4
630.558,1634.6
631.086,1467.4
631.614,1376.4
632.142,1346.2
632.67,1340.7
633.198,1330.8
633.726,1329.2
634.254,1326.3
634.782,1326.2
635.31,1325.5
635.838,1327.9
636.365,1324.9
636.893,1326.3
637.421,1308.8
637.948,1306.6
638.476,1305.7
639.003,1307.2
639.531,1305.5
640.058,1313.7
640.585,1304.7
641.113,1311.2
641.64,1305.9
642.167,1310.4
642.694,1310.0
643.221,1312.5
643.748,1313.9
644.275,1309.3
644.802,1297.4
645.329,1302.8
645.856,1294.0
646.382,1300.3
646.909,1298.4
647.436,1287.6
647.962,1291.8
648.489,1284.1
649.016,1277.2
649.542,1272.9
650.069,1266.3
650.595,1253.9
651.121,1252.8
651.648,1251.0
652.174,1250.6
652.7,1243.3
653.227,1238.6
653.753,1238.4
654.279,1239.2
654.805,1225.0
655.331,1218.8
655.857,1217.0
656.383,1209.4
656.909,1202.6
657.435,1195.8
657.961,1185.1
658.487,1180.6
659.013,1169.1
659.538,1162.5
660.064,1147.7
660.59,1136.5
661.116,1127.7
661.641,1110.4
662.167,1105.0
662.692,1092.9
663.087,1087.2

File: VLFR_01-LDPE_bio_Raman_5603c198.csv
nm,Intensity
528.626,1863.6
529.132,1864.8
529.637,1864.4
530.143,1865.5
530.648,1863.8
531.153,1866.2
531.658,1892.8
532.164,3784.1
532.669,1868.3
533.174,1867.6
533.679,1938.2
534.184,2169.7
534.689,2164.8
535.194,2170.1
535.699,2160.1
536.203,2142.9
536.708,2137.8
537.213,2138.9
537.717,2144.5
538.222,2127.8
538.726,2144.2
539.231,2123.9
539.735,2127.5
540.239,2126.3
540.744,2129.0
541.248,2119.3
541.752,2135.0
542.256,2138.0
542.76,2127.1
543.264,2131.9
543.768,2150.4
544.272,2138.6
544.776,2135.0
545.28,2151.0
545.784,2152.0
546.287,2145.7
546.791,2141.2
547.294,2145.0
547.798,2141.2
548.301,2156.8
548.805,2137.2
549.308,2160.0
549.811,2163.3
550.315,2150.1
550.818,2153.4
551.321,2154.3
551.824,2176.2
552.327,2171.1
552.83,2152.7
553.333,2162.0
553.835,2187.4
554.338,2170.5
554.841,2194.6
555.343,2180.7
555.846,2183.7
556.349,2199.2
556.851,2203.1
557.353,2207.6
557.856,2228.5
558.358,2230.6
558.86,2195.0
559.362,2197.3
559.864,2203.5
560.366,2212.6
560.868,2228.5
561.37,2212.5
561.872,2228.1
562.374,2226.3
562.876,2271.2
563.377,2262.3
563.879,2409.6
564.38,2342.9
564.882,2336.2
565.383,2304.9
565.885,2391.2
566.386,2420.6
566.887,2317.0
567.388,2334.8
567.889,2314.1
568.391,2327.3
568.892,2328.9
569.392,2370.3
569.893,2368.2
570.394,2405.8
570.895,2408.3
571.395,2685.4
571.896,2585.3
572.397,2527.1
572.897,2514.9
573.397,2563.9
573.898,2610.7
574.398,2604.8
574.898,2663.4
575.398,2806.3
575.898,2898.9
576.398,3128.1
576.898,3128.4
577.398,3034.9
577.898,3070.3
578.398,3143.3
578.897,3244.1
579.397,3320.9
579.896,3432.6
580.396,3507.1
580.895,3665.8
581.395,3747.1
581.894,3854.5
582.393,3915.3
582.892,4072.2
583.391,4198.2
583.89,4286.1
584.389,4373.4
584.888,4457.0
585.387,4602.4
585.886,4782.1
586.384,4880.2
586.883,5027.0
587.381,5278.3
587.88,5539.2
588.378,5705.9
588.876,5728.1
589.375,6012.7
589.873,6272.8
590.371,6530.5
590.869,6626.8
591.367,6783.5
591.865,7013.0
592.363,7247.0
592.86,7250.0
593.358,7472.8
593.856,7603.2
594.353,7832.5
594.851,7772.7
595.348,8183.8
595.845,8515.2
596.342,8686.3
596.84,8920.3
597.337,9042.8
597.834,9233.7
598.331,9562.0
598.828,9760.9
599.324,10152.6
599.821,10339.6
600.318,10349.0
600.814,10407.5
601.311,10528.8
601.807,10389.4
602.304,10106.0
602.8,10083.0
603.296,9991.1
603.792,9753.0
604.288,9270.1
604.784,9116.4
605.28,8745.5
605.776,8435.7
606.272,8261.7
606.767,8000.8
607.263,7822.0
607.759,7550.6
608.254,7489.1
608.749,7194.8
609.245,6897.7
609.74,6878.8
610.235,6713.0
610.73,6587.5
611.225,6455.0
611.72,6378.5
612.215,6250.2
612.71,6181.4
613.204,6028.6
613.699,5872.4
614.194,5835.8
614.688,5756.2
615.182,5693.7
615.677,5506.5
616.171,5387.4
616.665,5384.9
617.159,5342.5
617.653,5240.5
618.147,5169.4
618.641,5044.4
619.135,4959.1
619.628,5043.0
620.122,5008.9
620.615,4796.0
621.109,4860.4
621.602,4809.0
622.095,4833.3
622.589,4773.9
623.082,4685.0
623.575,4635.2
624.068,4572.8
624.561,4541.3
625.053,4539.2
625.546,4478.9
626.039,4459.4
626.531,4739.7
627.024,5793.7
627.516,5869.9
628.008,5391.1
628.501,6319.2
628.993,5593.3
629.485,5219.2
629.977,5100.6
630.469,5026.7
630.96,4613.2
631.452,4406.1
631.944,4298.0
632.435,4317.2
632.927,4272.9
633.418,4319.4
633.91,4279.7
634.401,4308.1
634.892,4370.4
635.383,4248.3
635.874,4275.4
636.365,4359.0
636.856,4358.7
637.346,4343.4
637.837,4384.7
638.327,4413.7
638.818,4403.4
639.308,4445.2
639.799,4435.0
640.289,4510.3
640.779,4475.7
641.269,4484.1
641.759,4553.9
642.249,4547.8
642.738,4654.9
643.228,4543.2
643.718,4633.3
644.207,4694.7
644.697,4676.3
645.186,4761.5
645.675,4750.5
646.164,4735.4
646.653,4731.5
647.142,4749.3
647.631,4695.1
648.12,4740.2
648.609,4643.6
649.098,4673.7
649.586,4652.1
650.075,4741.4
650.563,4691.9
651.051,4866.2
651.539,4726.9
652.027,4692.8
652.515,4624.3
653.003,4701.3
653.491,4671.0
653.979,4627.1
654.467,4614.2
654.954,4592.7
655.442,4606.8
655.929,4496.3
656.416,4524.1
656.904,4326.0
657.391,4360.9
657.878,4186.0
658.365,4160.7
658.851,4071.2
659.338,3909.0
659.825,3891.1
660.311,3933.8
660.798,3824.2
661.041,3714.7

File: VLFR_01-LDPE_bio_Raman_8513bad0.csv
nm,Intensity
528.626,1868.2
529.132,1867.6
529.637,1867.7
530.143,1867.9
530.648,1868.4
531.153,1869.9
531.658,1886.3
532.164,3021.0
532.669,1869.4
533.174,1870.9
533.679,1972.7
534.184,2352.6
534.689,2293.8
535.194,2234.9
535.699,2175.5
536.203,2130.7
536.708,2105.7
537.213,2112.7
537.717,2112.0
538.222,2090.1
538.726,2077.4
539.231,2070.5
539.735,2065.2
540.239,2052.3
540.744,2054.3
541.248,2038.4
541.752,2047.7
542.256,2056.2
542.76,2048.8
543.264,2048.9
543.768,2060.2
544.272,2050.2
544.776,2046.3
545.28,2041.6
545.784,2042.9
546.287,2038.5
546.791,2037.4
547.294,2045.7
547.798,2033.4
548.301,2034.5
548.805,2035.7
549.308,2040.5
549.811,2033.4
550.315,2032.8
550.818,2032.6
551.321,2031.6
551.824,2050.2
552.327,2045.2
552.83,2036.6
553.333,2065.1
553.835,2072.7
554.338,2069.2
554.841,2081.9
555.343,2103.5
555.846,2105.3
556.349,2104.8
556.851,2123.0
557.353,2149.8
557.856,2181.1
558.358,2186.3
558.86,2171.2
559.362,2159.1
559.864,2150.7
560.366,2144.3
560.868,2161.1
561.37,2166.9
561.872,2183.1
562.374,2204.6
562.876,2228.5
563.377,2278.7
563.879,2658.1
564.38,2462.5
564.882,2395.3
565.383,2330.8
565.885,2555.0
566.386,2582.9
566.887,2324.7
567.388,2382.3
567.889,2338.1
568.391,2326.0
568.892,2338.5
569.392,2363.3
569.893,2408.6
570.394,2468.9
570.895,2534.4
571.395,3178.7
571.896,2866.5
572.397,2665.8
572.897,2658.7
573.397,2663.2
573.898,2796.4
574.398,2752.3
574.898,2829.5
575.398,2989.0
575.898,3394.3
576.398,3933.0
576.898,3748.5
577.398,3403.0
577.898,3296.4
578.398,3340.0
578.897,3383.4
579.397,3471.3
579.896,3645.4
580.396,3696.2
580.895,3766.0
581.395,3878.7
581.894,3906.0
582.393,4068.1
582.892,4108.5
583.391,4269.4
583.89,4355.5
584.389,4471.0
584.888,4468.2
585.387,4616.9
585.886,4658.4
586.384,4794.1
586.883,4772.4
587.381,5040.1
587.88,5162.4
588.378,5297.4
588.876,5287.3
589.375,5363.2
589.873,5389.8
590.371,5494.4
590.869,5627.0
591.367,5696.0
591.865,5858.4
592.363,5969.3
592.86,6003.3
593.358,5914.1
593.856,5996.8
594.353,6044.1
594.851,6093.0
595.348,6190.1
595.845,6454.5
596.342,6463.3
596.84,6657.8
597.337,6783.0
597.834,6743.3
598.331,6967.1
598.828,7089.1
599.324,7228.2
599.821,7241.9
600.318,7190.7
600.814,7241.3
601.311,7281.2
601.807,7286.6
602.304,7214.4
602.8,7126.6
603.296,6936.1
603.792,6770.4
604.288,6590.7
604.784,6326.2
605.28,6144.3
605.776,5975.8
606.272,5916.2
606.767,5712.8
607.263,5529.9
607.759,5364.5
608.254,5254.4
608.749,5170.4
609.245,4984.4
609.74,4982.1
610.235,4881.2
610.73,4759.6
611.225,4728.8
611.72,4572.4
612.215,4544.7
612.71,4419.0
613.204,4424.3
613.699,4331.8
614.194,4300.9
614.688,4262.4
615.182,4173.3
615.677,4169.5
616.171,4041.7
616.665,4018.0
617.159,4041.9
617.653,3981.2
618.147,3959.2
618.641,3967.0
619.135,3921.6
619.628,3896.9
620.122,3950.4
620.615,3862.1
621.109,3759.5
621.602,3918.8
622.095,4046.4
622.589,3945.1
623.082,3812.8
623.575,3716.3
624.068,3756.8
624.561,3702.1
625.053,3763.7
625.546,3734.2
626.039,3874.7
626.531,4357.6
627.024,7403.3
627.516,7585.1
628.008,6606.2
628.501,8850.9
628.993,6872.9
629.485,6150.2
629.977,5570.8
630.469,5469.1
630.96,4482.8
631.452,4023.6
631.944,3756.7
632.435,3696.2
632.927,3663.0
633.418,3618.4
633.91,3672.9
634.401,3651.4
634.892,3658.7
635.383,3638.6
635.874,3647.1
636.365,3639.8
636.856,3629.3
637.346,3587.4
637.837,3588.2
638.327,3588.8
638.818,3591.5
639.308,3648.4
639.799,3598.0
640.289,3590.3
640.779,3612.0
641.269,3674.5
641.759,3598.6
642.249,3711.7
642.738,3731.3
643.228,3710.4
643.718,3633.7
644.207,3675.5
644.697,3671.8
645.186,3732.7
645.675,3658.3
646.164,3686.7
646.653,3650.9
647.142,3642.7
647.631,3667.6
648.12,3620.6
648.609,3659.7
649.098,3619.6
649.586,3624.0
650.075,3641.4
650.563,3650.6
651.051,3626.5
651.539,3583.4
652.027,3561.0
652.515,3598.7
653.003,3522.7
653.491,3491.8
653.979,3500.0
654.467,3476.8
654.954,3442.2
655.442,3500.5
655.929,3469.6
656.416,3405.3
656.904,3382.3
657.391,3292.6
657.878,3221.5
658.365,3206.3
658.851,3157.1
659.338,3112.7
659.825,3113.3
660.311,3072.7
660.798,2986.0
661.041,2942.2

File: VLFR_01-LDPE_bio_Raman_26488b0d.csv
nm,Intensity
526.508,828.9
527.055,829.9
527.602,830.2
528.149,830.1
528.695,829.1
529.241,830.9
529.787,829.2
530.334,830.0
530.879,830.9
531.425,830.2
531.971,835.3
532.516,831.2
533.062,830.0
533.607,830.8
534.152,914.0
534.697,899.7
535.242,885.7
535.786,871.6
536.331,864.2
536.876,861.4
537.42,861.2
537.964,860.9
538.508,857.7
539.052,854.9
539.596,852.6
540.14,851.9
540.683,849.0
541.227,849.0
541.77,848.1
542.313,846.8
542.856,845.9
543.399,844.5
543.942,846.3
544.485,845.6
545.027,845.0
545.57,845.0
546.112,844.9
546.654,843.5
547.196,844.0
547.738,843.2
548.28,844.5
548.822,843.2
549.363,841.1
549.905,842.5
550.446,843.0
550.988,843.4
551.529,843.1
552.07,844.1
552.611,842.7
553.152,845.1
553.692,846.6
554.233,846.8
554.773,849.5
555.314,850.7
555.854,849.0
556.394,853.8
556.934,852.8
557.474,858.7
558.014,859.3
558.553,860.8
559.093,858.9
559.632,856.6
560.172,855.3
560.711,855.8
561.25,857.7
561.789,857.9
562.328,859.6
562.867,864.8
563.406,867.8
563.944,925.5
564.483,890.5
565.021,884.3
565.559,878.2
566.098,946.7
566.636,885.3
567.174,878.1
567.711,873.6
568.249,872.1
568.787,871.9
569.324,874.4
569.862,877.9
570.399,882.8
570.936,889.0
571.474,985.7
572.011,919.1
572.548,898.0
573.084,895.2
573.621,898.2
574.158,907.7
574.694,903.2
575.231,910.1
575.767,959.5
576.303,1053.0
576.84,1009.5
577.376,987.7
577.912,953.7
578.447,968.4
578.983,969.5
579.519,983.0
580.054,994.0
580.59,1005.4
581.125,1020.2
581.661,1033.5
582.196,1039.5
582.731,1056.4
583.266,1068.2
583.801,1064.5
584.336,1078.5
584.87,1087.5
585.405,1095.0
585.94,1099.3
586.474,1117.5
587.008,1123.3
587.543,1134.9
588.077,1144.7
588.611,1155.6
589.145,1162.8
589.679,1170.1
590.213,1190.1
590.747,1198.0
591.28,1208.0
591.814,1214.1
592.347,1223.9
592.881,1233.7
593.414,1231.1
593.947,1233.8
594.48,1244.3
595.014,1245.9
595.547,1242.5
596.079,1257.0
596.612,1265.5
597.145,1270.4
597.678,1283.4
598.21,1288.8
598.743,1306.3
599.275,1311.5
599.807,1305.9
600.34,1321.2
600.872,1314.3
601.404,1308.5
601.936,1306.0
602.468,1301.8
603.0,1289.4
603.532,1283.6
604.063,1266.7
604.595,1249.2
605.126,1236.6
605.658,1211.8
606.189,1189.7
606.721,1178.3
607.252,1173.9
607.783,1155.0
608.314,1147.5
608.845,1140.8
609.376,1130.9
609.907,1121.1
610.438,1112.6
610.968,1106.8
611.499,1104.9
612.03,1097.2
612.56,1092.1
613.091,1087.7
613.621,1089.9
614.151,1078.9
614.681,1069.5
615.212,1068.4
615.742,1060.7
616.272,1058.6
616.802,1056.4
617.332,1048.1
617.861,1055.1
618.391,1049.9
618.921,1043.7
619.45,1041.5
619.98,1042.8
620.509,1043.6
621.039,1042.5
621.568,1047.2
622.097,1068.9
622.627,1066.7
623.156,1035.1
623.685,1031.1
624.214,1031.7
624.743,1024.9
625.272,1036.3
625.801,1037.8
626.33,1069.1
626.858,1295.4
627.387,1744.6
627.916,1458.5
628.444,1666.4
628.973,1526.0
629.501,1422.4
630.029,1324.3
630.558,1293.6
631.086,1173.4
631.614,1091.9
632.142,1069.8
632.67,1053.4
633.198,1059.3
633.726,1041.6
634.254,1045.3
634.782,1048.1
635.31,1044.8
635.838,1049.0
636.365,1052.3
636.893,1053.3
637.421,1047.5
637.948,1048.3
638.476,1044.5
639.003,1052.9
639.531,1064.1
640.058,1053.3
640.585,1057.8
641.113,1065.4
641.64,1065.8
642.167,1065.1
642.694,1067.2
643.221,1063.4
643.748,1062.6
644.275,1067.7
644.802,1068.5
645.329,1071.6
645.856,1074.7
646.382,1069.4
646.909,1075.9
647.436,1068.0
647.962,1070.4
648.489,1067.6
649.016,1068.8
649.542,1067.2
650.069,1064.2
650.595,1061.9
651.121,1065.5
651.648,1070.1
652.174,1065.5
652.7,1067.4
653.227,1066.8
653.753,1069.1
654.279,1064.1
654.805,1056.4
655.331,1056.1
655.857,1055.8
656.383,1053.0
656.909,1052.7
657.435,1046.4
657.961,1035.2
658.487,1040.6
659.013,1031.5
659.538,1027.7
660.064,1027.2
660.59,1013.1
661.116,1007.9
661.641,999.5
662.167,991.6
662.692,986.6
663.087,982.2

File: VLFR_01-LDPE_bio_Raman_41330f71.csv
nm,Intensity
526.495,830.3
527.042,829.8
527.589,830.1
528.136,827.1
528.682,828.7
529.229,828.9
529.775,829.8
530.321,829.9
530.867,829.3
531.413,828.5
531.959,832.9
532.505,830.8
533.051,830.1
533.596,829.2
534.141,838.3
534.687,838.2
535.232,839.5
535.777,837.7
536.321,837.1
536.866,837.3
537.41,835.9
537.955,838.1
538.499,837.9
539.043,837.1
539.587,837.2
540.131,837.5
540.675,837.6
541.219,837.0
541.762,835.9
542.305,835.2
542.849,836.3
543.392,837.0
543.935,837.4
544.478,835.9
545.02,836.9
545.563,837.3
546.106,835.5
546.648,835.2
547.19,836.1
547.732,836.2
548.274,836.3
548.816,836.6
549.358,836.1
549.9,836.1
550.441,836.0
550.983,836.5
551.524,834.4
552.065,836.6
552.606,836.1
553.147,835.4
553.688,834.8
554.229,836.1
554.769,835.5
555.31,835.6
555.85,837.0
556.391,835.0
556.931,838.3
557.471,836.1
558.011,836.6
558.551,836.3
559.09,836.8
559.63,839.6
560.169,837.2
560.709,837.0
561.248,838.5
561.787,837.3
562.326,837.1
562.865,838.8
563.404,837.7
563.943,842.8
564.481,838.3
565.02,839.8
565.558,839.0
566.096,846.1
566.634,839.5
567.172,840.3
567.71,840.5
568.248,839.3
568.786,840.7
569.324,840.1
569.861,841.3
570.399,841.8
570.936,841.9
571.473,849.0
572.01,844.6
572.547,846.3
573.084,844.5
573.621,841.6
574.158,844.9
574.694,842.7
575.231,844.2
575.767,849.9
576.303,854.0
576.84,849.3
577.376,849.6
577.912,849.2
578.448,848.0
578.984,851.5
579.519,849.3
580.055,849.2
580.59,851.3
581.126,851.3
581.661,852.2
582.196,858.3
582.731,856.9
583.267,858.5
583.801,859.2
584.336,861.0
584.871,856.1
585.406,862.1
585.94,863.7
586.475,864.0
587.009,866.6
587.543,869.8
588.078,870.3
588.612,872.3
589.146,875.5
589.68,876.7
590.214,879.0
590.747,879.0
591.281,882.8
591.815,884.8
592.348,884.4
592.881,888.2
593.415,887.8
593.948,895.4
594.481,894.6
595.014,897.3
595.547,900.0
596.08,905.0
596.613,909.0
597.146,914.2
597.678,912.8
598.211,917.4
598.743,922.3
599.276,925.5
599.808,924.4
600.34,923.1
600.872,922.7
601.404,925.4
601.936,921.5
602.468,925.3
603.0,922.0
603.532,919.9
604.064,916.5
604.595,911.5
605.127,904.6
605.658,904.6
606.189,902.8
606.721,892.9
607.252,894.1
607.783,890.9
608.314,894.6
608.845,885.1
609.376,887.8
609.907,882.1
610.438,881.8
610.968,881.3
611.499,881.7
612.029,884.2
612.56,877.6
613.09,876.0
613.621,878.0
614.151,874.9
614.681,876.0
615.211,874.2
615.741,872.4
616.271,869.8
616.801,871.4
617.331,871.2
617.861,868.5
618.39,869.6
618.92,868.3
619.45,864.6
619.979,867.3
620.509,868.3
621.038,868.0
621.567,869.3
622.096,867.4
622.626,867.9
623.155,868.2
623.684,864.3
624.213,864.5
624.742,864.9
625.271,864.4
625.799,864.2
626.328,865.1
626.857,874.5
627.386,900.3
627.914,885.5
628.443,892.6
628.971,891.2
629.5,880.7
630.028,876.8
630.556,878.5
631.084,867.5
631.613,864.6
632.141,860.8
632.669,861.6
633.197,863.6
633.725,859.4
634.253,857.6
634.781,861.3
635.308,859.4
635.836,860.0
636.364,861.6
636.891,861.5
637.419,860.0
637.947,859.7
638.474,862.5
639.002,864.0
639.529,863.5
640.056,859.1
640.584,863.0
641.111,862.9
641.638,862.0
642.165,865.5
642.692,865.9
643.219,866.0
643.746,866.2
644.273,867.4
644.8,866.8
645.327,868.0
645.854,868.0
646.381,869.9
646.908,867.9
647.434,869.5
647.961,866.8
648.488,871.3
649.014,871.9
649.541,869.4
650.067,869.9
650.594,869.5
651.12,872.2
651.646,872.0
652.173,871.2
652.699,871.9
653.225,872.3
653.752,873.2
654.278,875.5
654.804,870.7
655.33,871.2
655.856,872.0
656.382,867.9
656.908,868.8
657.434,868.9
657.96,867.8
658.486,868.4
659.012,864.9
659.538,863.6
660.064,863.6
660.589,865.0
661.115,861.5
661.641,861.6
662.166,859.6
662.692,856.7
663.086,857.4

File: VLFR_01-LDPE_bio_Raman_944624b0.csv
nm,Intensity
528.626,1866.0
529.132,1866.9
529.637,1865.1
530.143,1865.0
530.648,1866.8
531.153,1870.2
531.658,1910.2
532.164,4315.4
532.669,1867.0
533.174,1866.8
533.679,1990.7
534.184,2404.2
534.689,2387.5
535.194,2389.0
535.699,2356.0
536.203,2295.5
536.708,2270.3
537.213,2288.9
537.717,2300.0
538.222,2256.3
538.726,2266.9
539.231,2238.7
539.735,2216.0
540.239,2230.9
540.744,2236.7
541.248,2228.7
541.752,2244.5
542.256,2249.7
542.76,2256.4
543.264,2240.2
543.768,2247.4
544.272,2245.2
544.776,2260.4
545.28,2258.0
545.784,2253.0
546.287,2239.7
546.791,2257.0
547.294,2245.9
547.798,2252.6
548.301,2285.1
548.805,2243.2
549.308,2268.6
549.811,2253.4
550.315,2245.2
550.818,2253.8
551.321,2260.4
551.824,2286.7
552.327,2272.5
552.83,2243.3
553.333,2292.1
553.835,2302.8
554.338,2318.7
554.841,2323.7
555.343,2318.4
555.846,2329.9
556.349,2348.4
556.851,2333.4
557.353,2358.9
557.856,2388.7
558.358,2406.0
558.86,2394.6
559.362,2374.5
559.864,2377.1
560.366,2370.8
560.868,2419.3
561.37,2385.6
561.872,2407.0
562.374,2428.4
562.876,2477.0
563.377,2508.6
563.879,2847.7
564.38,2666.0
564.882,2603.7
565.383,2584.0
565.885,2767.6
566.386,2806.3
566.887,2590.1
567.388,2634.5
567.889,2611.9
568.391,2615.8
568.892,2653.2
569.392,2718.5
569.893,2748.1
570.394,2800.5
570.895,2870.9
571.395,3509.7
571.896,3258.5
572.397,3130.1
572.897,3118.6
573.397,3212.0
573.898,3352.9
574.398,3383.7
574.898,3507.0
575.398,3858.0
575.898,4215.8
576.398,4812.1
576.898,4760.8
577.398,4733.8
577.898,4745.6
578.398,4939.2
578.897,5250.1
579.397,5553.4
579.896,5844.9
580.396,5975.8
580.895,6329.2
581.395,6521.1
581.894,6673.2
582.393,6867.1
582.892,7188.6
583.391,7298.2
583.89,7451.6
584.389,7602.6
584.888,7426.0
585.387,7667.3
585.886,7864.1
586.384,7762.2
586.883,8051.6
587.381,8245.9
587.88,8467.6
588.378,8599.5
588.876,8749.4
589.375,8751.4
589.873,9255.2
590.371,9382.7
590.869,9804.1
591.367,9944.8
591.865,10217.2
592.363,10109.0
592.86,10432.6
593.358,10302.3
593.856,10318.0
594.353,10620.1
594.851,10715.8
595.348,11071.4
595.845,11443.5
596.342,11523.5
596.84,11793.8
597.337,12072.0
597.834,12099.6
598.331,12362.1
598.828,12878.2
599.324,13111.0
599.821,13148.3
600.318,13406.9
600.814,13288.0
601.311,13123.5
601.807,13121.4
602.304,12904.4
602.8,12786.7
603.296,12374.0
603.792,12143.2
604.288,11736.8
604.784,11461.5
605.28,11122.4
605.776,10793.3
606.272,10391.7
606.767,10146.0
607.263,9747.0
607.759,9618.6
608.254,9250.0
608.749,8926.8
609.245,8600.8
609.74,8521.2
610.235,8382.8
610.73,8057.7
611.225,8058.1
611.72,7853.9
612.215,7843.9
612.71,7507.8
613.204,7367.1
613.699,7310.8
614.194,7157.2
614.688,7002.8
615.182,7022.8
615.677,6925.7
616.171,6713.9
616.665,6703.9
617.159,6500.2
617.653,6318.9
618.147,6501.8
618.641,6401.4
619.135,6313.4
619.628,6314.8
620.122,6251.6
620.615,6240.8
621.109,6101.8
621.602,6250.6
622.095,6323.3
622.589,6199.7
623.082,6046.8
623.575,6070.4
624.068,5955.5
624.561,6022.9
625.053,5972.1
625.546,5990.2
626.039,6055.6
626.531,6554.8
627.024,9087.2
627.516,9184.0
628.008,8389.2
628.501,10415.8
628.993,8879.4
629.485,8242.0
629.977,7857.4
630.469,7632.1
630.96,6718.7
631.452,6457.6
631.944,6278.0
632.435,6276.1
632.927,6298.9
633.418,6323.5
633.91,6157.8
634.401,6262.9
634.892,6283.4
635.383,6216.7
635.874,5987.7
636.365,6373.8
636.856,6173.6
637.346,6196.4
637.837,6177.9
638.327,6151.8
638.818,6095.6
639.308,6097.8
639.799,6307.2
640.289,6295.4
640.779,6158.4
641.269,6338.9
641.759,6116.3
642.249,6215.4
642.738,6261.9
643.228,6261.7
643.718,6314.8
644.207,6471.7
644.697,6248.8
645.186,6246.3
645.675,6323.8
646.164,6283.1
646.653,6373.3
647.142,6257.7
647.631,6344.9
648.12,6312.1
648.609,6161.1
649.098,6165.5
649.586,6183.4
650.075,6170.7
650.563,6178.5
651.051,6275.8
651.539,6148.3
652.027,6212.4
652.515,6116.4
653.003,6032.0
653.491,6012.8
653.979,6003.7
654.467,5945.0
654.954,5869.0
655.442,5900.6
655.929,5755.6
656.416,5719.7
656.904,5515.1
657.391,5626.0
657.878,5359.9
658.365,5431.0
658.851,5132.0
659.338,4938.8
659.825,4977.5
660.311,4925.8
660.798,4733.7
661.041,4688.1