Folder: MPX_specDB/spectra (part 141)

File: VLFR_08-PLA_bio_Raman_cf36ae72.csv
nm,Intensity
526.495,828.5
527.042,829.3
527.589,829.3
528.136,829.5
528.682,828.2
529.229,830.0
529.775,828.3
530.321,829.0
530.867,829.8
531.413,831.0
531.959,829.5
532.505,830.2
533.051,829.4
533.596,829.5
534.141,980.1
534.687,957.1
535.232,932.7
535.777,919.2
536.321,916.3
536.866,914.8
537.41,909.9
537.955,913.4
538.499,903.6
539.043,903.9
539.587,900.8
540.131,900.2
540.675,907.5
541.219,904.5
541.762,904.3
542.305,899.8
542.849,900.4
543.392,916.2
543.935,926.1
544.478,911.0
545.02,911.4
545.563,904.9
546.106,899.6
546.648,902.9
547.19,902.4
547.732,904.9
548.274,899.5
548.816,907.9
549.358,912.1
549.9,905.7
550.441,912.9
550.983,910.4
551.524,915.0
552.065,911.7
552.606,915.1
553.147,914.2
553.688,913.9
554.229,919.2
554.769,913.7
555.31,911.3
555.85,907.2
556.391,908.6
556.931,912.7
557.471,921.2
558.011,988.8
558.551,933.0
559.09,925.1
559.63,916.1
560.169,917.5
560.709,916.4
561.248,910.2
561.787,910.6
562.326,915.2
562.865,920.3
563.404,942.9
563.943,928.9
564.481,923.9
565.02,937.5
565.558,934.7
566.096,953.0
566.634,933.8
567.172,923.1
567.71,925.9
568.248,924.8
568.786,930.5
569.324,930.4
569.861,926.6
570.399,926.3
570.936,933.2
571.473,941.2
572.01,940.2
572.547,937.6
573.084,939.9
573.621,940.0
574.158,939.6
574.694,946.1
575.231,933.2
575.767,936.0
576.303,942.1
576.84,981.6
577.376,951.1
577.912,937.9
578.448,937.0
578.984,936.6
579.519,934.3
580.055,932.2
580.59,934.1
581.126,935.1
581.661,935.6
582.196,938.5
582.731,935.5
583.267,936.7
583.801,937.4
584.336,941.7
584.871,940.8
585.406,939.6
585.94,939.9
586.475,948.9
587.009,970.1
587.543,986.8
588.078,958.3
588.612,941.3
589.146,939.9
589.68,939.3
590.214,935.0
590.747,937.2
591.281,938.8
591.815,938.0
592.348,942.8
592.881,940.0
593.415,935.9
593.948,938.0
594.481,934.0
595.014,938.7
595.547,939.6
596.08,935.1
596.613,937.8
597.146,938.4
597.678,938.5
598.211,939.4
598.743,943.1
599.276,943.1
599.808,941.2
600.34,937.6
600.872,936.5
601.404,940.2
601.936,935.9
602.468,940.0
603.0,937.6
603.532,939.5
604.064,938.8
604.595,934.6
605.127,934.6
605.658,934.1
606.189,934.8
606.721,934.6
607.252,933.5
607.783,935.3
608.314,934.0
608.845,932.3
609.376,938.9
609.907,935.0
610.438,939.8
610.968,934.8
611.499,936.6
612.029,939.4
612.56,933.8
613.09,938.1
613.621,936.2
614.151,940.1
614.681,938.4
615.211,937.6
615.741,936.9
616.271,937.8
616.801,936.3
617.331,936.0
617.861,941.1
618.39,936.1
618.92,938.4
619.45,937.3
619.979,936.3
620.509,933.4
621.038,933.1
621.567,938.1
622.096,938.7
622.626,942.4
623.155,944.7
623.684,941.0
624.213,937.6
624.742,940.2
625.271,937.9
625.799,933.1
626.328,935.7
626.857,936.6
627.386,938.1
627.914,942.3
628.443,986.7
628.971,968.6
629.5,978.0
630.028,978.2
630.556,1013.6
631.084,1252.6
631.613,1095.9
632.141,1015.5
632.669,1000.7
633.197,1058.9
633.725,1037.8
634.253,978.9
634.781,944.6
635.308,935.1
635.836,931.1
636.364,931.0
636.891,929.9
637.419,930.8
637.947,931.3
638.474,928.6
639.002,928.2
639.529,926.8
640.056,919.8
640.584,926.0
641.111,924.6
641.638,927.7
642.165,928.9
642.692,924.9
643.219,923.7
643.746,922.2
644.273,921.6
644.8,921.1
645.327,920.6
645.854,916.7
646.381,918.3
646.908,915.9
647.434,917.5
647.961,914.6
648.488,918.4
649.014,917.8
649.541,916.5
650.067,914.5
650.594,917.3
651.12,913.7
651.646,918.1
652.173,915.0
652.699,910.6
653.225,910.5
653.752,911.4
654.278,914.4
654.804,912.8
655.33,910.4
655.856,912.2
656.382,909.0
656.908,913.4
657.434,912.3
657.96,911.6
658.486,910.7
659.012,910.5
659.538,910.8
660.064,910.3
660.589,906.3
661.115,903.3
661.641,907.3
662.166,909.8
662.692,904.5
663.086,910.2

File: VLFR_08-PLA_bio_Raman_cf54f158.csv
nm,Intensity
526.508,830.0
527.055,829.9
527.602,830.1
528.149,831.6
528.695,830.0
529.241,828.6
529.787,828.9
530.334,830.0
530.879,830.4
531.425,828.6
531.971,834.8
532.516,830.6
533.062,830.3
533.607,830.8
534.152,984.2
534.697,954.9
535.242,924.4
535.786,914.8
536.331,904.6
536.876,901.4
537.42,895.0
537.964,893.0
538.508,886.0
539.052,883.4
539.596,880.4
540.14,873.8
540.683,887.7
541.227,891.8
541.77,877.9
542.313,877.7
542.856,875.7
543.399,896.4
543.942,906.7
544.485,887.5
545.027,878.4
545.57,877.3
546.112,878.4
546.654,889.4
547.196,878.4
547.738,878.6
548.28,877.7
548.822,879.5
549.363,880.8
549.905,882.8
550.446,882.8
550.988,883.5
551.529,887.2
552.07,890.6
552.611,890.8
553.152,892.8
553.692,888.7
554.233,898.4
554.773,887.6
555.314,888.1
555.854,885.2
556.394,885.8
556.934,885.4
557.474,894.1
558.014,990.5
558.553,913.8
559.093,898.9
559.632,893.3
560.172,894.5
560.711,891.7
561.25,888.6
561.789,888.1
562.328,955.2
562.867,895.7
563.406,920.2
563.944,901.7
564.483,895.1
565.021,911.6
565.559,908.0
566.098,933.1
566.636,908.0
567.174,891.5
567.711,893.4
568.249,894.9
568.787,894.7
569.324,892.5
569.862,892.8
570.399,891.4
570.936,894.6
571.474,905.6
572.011,911.3
572.548,900.6
573.084,901.9
573.621,906.3
574.158,900.9
574.694,909.7
575.231,899.9
575.767,897.7
576.303,910.2
576.84,953.1
577.376,912.2
577.912,900.4
578.447,899.1
578.983,897.1
579.519,896.1
580.054,896.2
580.59,898.8
581.125,899.0
581.661,896.3
582.196,898.3
582.731,896.1
583.266,899.4
583.801,900.4
584.336,902.2
584.87,897.5
585.405,899.9
585.94,900.8
586.474,914.0
587.008,944.3
587.543,964.8
588.077,919.1
588.611,904.0
589.145,900.8
589.679,902.4
590.213,898.2
590.747,903.3
591.28,898.5
591.814,899.6
592.347,900.3
592.881,896.1
593.414,899.2
593.947,899.1
594.48,899.2
595.014,903.0
595.547,899.3
596.079,899.0
596.612,897.4
597.145,900.1
597.678,902.0
598.21,900.9
598.743,897.0
599.275,899.8
599.807,902.6
600.34,896.5
600.872,897.6
601.404,897.9
601.936,898.5
602.468,901.2
603.0,899.5
603.532,896.4
604.063,898.7
604.595,894.6
605.126,894.4
605.658,897.1
606.189,893.8
606.721,894.5
607.252,896.7
607.783,897.8
608.314,895.0
608.845,896.1
609.376,897.7
609.907,897.9
610.438,894.9
610.968,897.1
611.499,895.0
612.03,896.2
612.56,896.9
613.091,894.4
613.621,898.8
614.151,897.4
614.681,899.2
615.212,897.7
615.742,900.4
616.272,896.3
616.802,897.9
617.332,898.7
617.861,897.1
618.391,896.3
618.921,897.4
619.45,896.0
619.98,894.9
620.509,893.4
621.039,897.9
621.568,899.2
622.097,896.6
622.627,903.9
623.156,908.1
623.685,905.0
624.214,901.7
624.743,898.3
625.272,895.5
625.801,896.2
626.33,896.2
626.858,900.5
627.387,900.3
627.916,905.9
628.444,956.8
628.973,951.2
629.501,945.7
630.029,950.9
630.558,995.0
631.086,1291.9
631.614,1118.5
632.142,1005.2
632.67,982.4
633.198,1050.5
633.726,1028.2
634.254,951.9
634.782,911.5
635.31,901.2
635.838,896.8
636.365,891.8
636.893,890.8
637.421,889.8
637.948,889.4
638.476,889.1
639.003,890.1
639.531,889.0
640.058,888.7
640.585,886.0
641.113,889.3
641.64,888.6
642.167,888.5
642.694,888.0
643.221,888.4
643.748,886.6
644.275,884.1
644.802,884.0
645.329,883.6
645.856,885.9
646.382,883.4
646.909,885.0
647.436,882.8
647.962,885.1
648.489,880.5
649.016,883.6
649.542,882.9
650.069,883.9
650.595,883.3
651.121,878.7
651.648,882.8
652.174,881.2
652.7,880.9
653.227,880.5
653.753,879.5
654.279,877.7
654.805,880.3
655.331,879.2
655.857,877.2
656.383,878.0
656.909,877.5
657.435,877.8
657.961,879.9
658.487,880.8
659.013,876.4
659.538,876.6
660.064,876.9
660.59,876.8
661.116,874.9
661.641,875.0
662.167,873.7
662.692,873.8
663.087,872.5

File: VLFR_08-PLA_bio_Raman_d17de985.csv
nm,Intensity
528.626,1865.4
529.132,1864.9
529.637,1865.3
530.143,1864.6
530.648,1867.1
531.153,1866.5
531.658,1879.1
532.164,3466.0
532.669,1865.9
533.174,1867.7
533.679,2066.8
534.184,2800.1
534.689,2613.8
535.194,2565.5
535.699,2486.1
536.203,2414.0
536.708,2441.7
537.213,2350.5
537.717,2405.3
538.222,2380.1
538.726,2320.7
539.231,2292.3
539.735,2262.3
540.239,2271.1
540.744,2406.7
541.248,2374.7
541.752,2293.5
542.256,2289.7
542.76,2281.5
543.264,2423.1
543.768,2589.8
544.272,2422.1
544.776,2311.8
545.28,2253.4
545.784,2245.5
546.287,2267.9
546.791,2282.3
547.294,2285.8
547.798,2275.7
548.301,2294.8
548.805,2302.6
549.308,2300.8
549.811,2287.9
550.315,2301.7
550.818,2329.5
551.321,2354.5
551.824,2359.9
552.327,2400.3
552.83,2412.1
553.333,2370.5
553.835,2449.5
554.338,2404.5
554.841,2350.2
555.343,2348.0
555.846,2327.4
556.349,2339.7
556.851,2341.3
557.353,2429.7
557.856,3027.4
558.358,3030.1
558.86,2491.9
559.362,2470.5
559.864,2448.4
560.366,2403.7
560.868,2418.6
561.37,2386.9
561.872,2404.5
562.374,2394.9
562.876,2495.2
563.377,2744.8
563.879,2584.4
564.38,2483.2
564.882,2635.8
565.383,2644.1
565.885,2729.6
566.386,2779.8
566.887,2500.3
567.388,2455.9
567.889,2520.2
568.391,2502.4
568.892,2515.8
569.392,2479.8
569.893,2460.7
570.394,2476.8
570.895,2490.3
571.395,2664.9
571.896,2646.8
572.397,2540.0
572.897,2544.7
573.397,2576.6
573.898,2615.3
574.398,2649.4
574.898,2578.6
575.398,2496.9
575.898,2512.4
576.398,2768.6
576.898,3014.4
577.398,2622.6
577.898,2501.2
578.398,2471.4
578.897,2461.1
579.397,2478.8
579.896,2474.1
580.396,2483.6
580.895,2452.8
581.395,2465.8
581.894,2491.1
582.393,2471.5
582.892,2466.2
583.391,2468.7
583.89,2509.4
584.389,2488.6
584.888,2491.1
585.387,2475.6
585.886,2497.4
586.384,2534.3
586.883,2737.9
587.381,2955.3
587.88,2775.7
588.378,2526.4
588.876,2485.6
589.375,2488.9
589.873,2467.1
590.371,2478.4
590.869,2476.6
591.367,2478.2
591.865,2469.7
592.363,2460.8
592.86,2462.2
593.358,2468.5
593.856,2475.5
594.353,2445.5
594.851,2467.5
595.348,2475.0
595.845,2473.2
596.342,2486.7
596.84,2473.3
597.337,2462.3
597.834,2468.8
598.331,2465.8
598.828,2475.8
599.324,2477.3
599.821,2463.0
600.318,2491.2
600.814,2482.8
601.311,2452.1
601.807,2455.2
602.304,2457.2
602.8,2466.4
603.296,2450.8
603.792,2478.6
604.288,2458.7
604.784,2447.7
605.28,2448.7
605.776,2481.9
606.272,2455.1
606.767,2467.1
607.263,2436.6
607.759,2460.4
608.254,2462.5
608.749,2456.7
609.245,2452.3
609.74,2427.7
610.235,2463.1
610.73,2425.2
611.225,2448.0
611.72,2442.8
612.215,2448.4
612.71,2437.7
613.204,2448.5
613.699,2439.2
614.194,2428.5
614.688,2448.2
615.182,2432.1
615.677,2441.3
616.171,2450.2
616.665,2418.9
617.159,2428.7
617.653,2441.8
618.147,2402.4
618.641,2415.0
619.135,2436.7
619.628,2425.8
620.122,2411.1
620.615,2401.2
621.109,2404.4
621.602,2417.2
622.095,2431.0
622.589,2489.7
623.082,2512.7
623.575,2507.5
624.068,2462.7
624.561,2426.3
625.053,2389.9
625.546,2395.2
626.039,2404.0
626.531,2411.6
627.024,2406.0
627.516,2420.4
628.008,2575.1
628.501,2892.9
628.993,2813.5
629.485,2824.1
629.977,2849.0
630.469,3144.9
630.96,5239.0
631.452,4689.9
631.944,3378.6
632.435,3081.3
632.927,3291.2
633.418,3704.2
633.91,3203.8
634.401,2671.1
634.892,2457.9
635.383,2393.1
635.874,2358.8
636.365,2348.7
636.856,2332.6
637.346,2354.0
637.837,2311.1
638.327,2314.1
638.818,2322.1
639.308,2300.6
639.799,2303.0
640.289,2316.1
640.779,2289.8
641.269,2309.0
641.759,2286.6
642.249,2302.3
642.738,2290.1
643.228,2271.0
643.718,2268.8
644.207,2269.1
644.697,2265.3
645.186,2274.1
645.675,2249.8
646.164,2259.6
646.653,2241.0
647.142,2244.3
647.631,2232.5
648.12,2237.5
648.609,2221.0
649.098,2230.1
649.586,2230.4
650.075,2203.8
650.563,2208.9
651.051,2205.6
651.539,2217.6
652.027,2217.8
652.515,2188.1
653.003,2193.4
653.491,2181.0
653.979,2164.5
654.467,2170.0
654.954,2198.5
655.442,2175.9
655.929,2154.0
656.416,2162.0
656.904,2157.6
657.391,2155.3
657.878,2151.3
658.365,2148.4
658.851,2145.1
659.338,2138.7
659.825,2132.7
660.311,2128.3
660.798,2112.4
661.041,2126.3

File: VLFR_08-PLA_bio_Raman_d43f5bcc.csv
nm,Intensity
526.547,833.85
527.095,832.8
527.642,833.3
528.189,832.25
528.736,832.05
529.283,832.7
529.829,832.55
530.376,832.6
530.922,832.95
531.468,831.85
532.014,833.5
532.56,833.0
533.106,832.55
533.651,835.25
534.196,997.25
534.742,970.9
535.287,953.95
535.832,941.95
536.376,937.85
536.921,941.2
537.465,933.6
538.01,934.75
538.554,929.8
539.098,928.7
539.642,926.6
540.186,928.1
540.729,938.6
541.273,938.5
541.816,936.1
542.36,931.95
542.903,936.2
543.446,951.0
543.988,960.65
544.531,942.25
545.074,940.25
545.616,936.4
546.158,938.1
546.701,939.3
547.243,938.85
547.785,942.65
548.326,943.25
548.868,940.85
549.41,947.2
549.951,946.85
550.492,946.55
551.034,951.3
551.575,953.95
552.116,955.6
552.656,957.55
553.197,956.65
553.738,958.2
554.278,960.05
554.819,959.3
555.359,954.6
555.899,953.8
556.439,951.45
556.979,956.2
557.519,962.1
558.058,1044.95
558.598,975.65
559.137,965.7
559.677,969.15
560.216,964.65
560.755,963.9
561.294,961.85
561.833,960.75
562.371,966.55
562.91,967.6
563.449,996.25
563.987,980.5
564.525,974.1
565.064,987.65
565.602,984.6
566.14,1004.85
566.678,985.15
567.216,972.85
567.753,977.35
568.291,976.7
568.828,978.7
569.366,979.05
569.903,976.6
570.44,979.75
570.977,979.65
571.514,991.15
572.051,990.15
572.588,987.65
573.125,989.45
573.661,994.8
574.198,992.25
574.734,999.95
575.271,987.15
575.807,990.55
576.343,999.45
576.879,1034.35
577.415,996.45
577.951,992.45
578.486,988.1
579.022,989.45
579.557,992.5
580.093,986.5
580.628,988.0
581.164,988.5
581.699,989.15
582.234,986.9
582.769,993.45
583.304,992.75
583.838,992.9
584.373,989.6
584.908,992.45
585.442,995.15
585.977,996.9
586.511,1004.95
587.045,1026.85
587.58,1045.6
588.114,1007.95
588.648,996.55
589.182,993.55
589.715,992.6
590.249,993.1
590.783,996.15
591.316,994.95
591.85,992.7
592.383,990.3
592.917,991.75
593.45,991.45
593.983,991.75
594.516,989.45
595.049,990.25
595.582,993.4
596.115,994.25
596.648,995.05
597.18,996.5
597.713,994.45
598.245,994.45
598.778,989.8
599.31,994.05
599.842,990.75
600.375,991.1
600.907,990.1
601.439,990.4
601.971,988.65
602.503,987.2
603.034,990.65
603.566,989.2
604.098,988.7
604.629,985.75
605.161,984.85
605.692,981.05
606.224,981.95
606.755,977.55
607.286,981.85
607.817,985.95
608.348,982.55
608.879,979.85
609.41,984.1
609.941,978.3
610.472,979.65
611.002,976.45
611.533,978.0
612.063,976.8
612.594,977.35
613.124,983.8
613.655,981.9
614.185,984.35
614.715,982.9
615.245,979.15
615.775,980.5
616.305,979.4
616.835,980.9
617.365,979.85
617.895,980.1
618.425,978.3
618.954,977.35
619.484,978.05
620.013,976.1
620.543,973.7
621.072,973.2
621.602,971.45
622.131,977.75
622.66,983.5
623.189,986.1
623.718,978.7
624.247,977.85
624.776,975.45
625.305,977.55
625.834,971.95
626.363,972.45
626.891,972.15
627.42,973.65
627.949,981.45
628.477,1028.7
629.006,1012.95
629.534,1011.95
630.062,1016.4
630.591,1059.7
631.119,1318.65
631.647,1139.75
632.175,1056.9
632.703,1047.25
633.231,1099.5
633.759,1074.95
634.287,1009.25
634.815,978.0
635.343,967.2
635.871,963.1
636.398,959.6
636.926,957.35
637.454,959.5
637.981,956.85
638.509,953.1
639.036,953.15
639.564,953.4
640.091,952.85
640.618,952.65
641.146,950.7
641.673,953.3
642.2,951.35
642.727,950.85
643.254,948.55
643.781,950.5
644.308,945.25
644.835,943.7
645.362,940.9
645.889,939.3
646.416,939.55
646.942,942.35
647.469,941.2
647.996,937.4
648.522,937.65
649.049,936.5
649.576,935.05
650.102,935.85
650.629,936.4
651.155,930.9
651.682,932.05
652.208,934.4
652.734,934.95
653.261,932.6
653.787,931.2
654.313,928.75
654.839,929.1
655.365,927.7
655.892,928.05
656.418,928.75
656.944,928.45
657.47,928.7
657.996,926.3
658.522,925.8
659.048,925.65
659.574,924.05
660.099,923.45
660.625,924.5
661.151,921.75
661.677,921.1
662.203,921.1
662.728,919.55
663.123,918.35

File: VLFR_08-PLA_bio_Raman_d333dc1d.csv
nm,Intensity
528.626,1870.5
529.132,1870.6
529.637,1870.4
530.143,1870.8
530.648,1870.0
531.153,1872.2
531.658,1891.8
532.164,3436.2
532.669,1872.9
533.174,1874.2
533.679,2048.7
534.184,2728.5
534.689,2554.4
535.194,2512.7
535.699,2448.4
536.203,2364.3
536.708,2414.0
537.213,2298.2
537.717,2321.7
538.222,2305.6
538.726,2245.4
539.231,2253.7
539.735,2208.7
540.239,2227.9
540.744,2351.2
541.248,2331.2
541.752,2251.7
542.256,2243.7
542.76,2248.8
543.264,2354.6
543.768,2538.0
544.272,2388.7
544.776,2243.3
545.28,2219.1
545.784,2213.1
546.287,2224.6
546.791,2223.4
547.294,2257.4
547.798,2231.0
548.301,2257.5
548.805,2240.7
549.308,2263.7
549.811,2253.2
550.315,2257.5
550.818,2284.6
551.321,2290.4
551.824,2325.4
552.327,2335.8
552.83,2337.5
553.333,2305.9
553.835,2385.9
554.338,2337.1
554.841,2306.0
555.343,2293.3
555.846,2256.0
556.349,2266.2
556.851,2303.7
557.353,2387.4
557.856,2906.7
558.358,2934.2
558.86,2405.1
559.362,2392.5
559.864,2372.9
560.366,2312.8
560.868,2342.0
561.37,2308.2
561.872,2330.1
562.374,2327.2
562.876,2419.7
563.377,2622.1
563.879,2473.8
564.38,2383.7
564.882,2522.9
565.383,2548.7
565.885,2616.2
566.386,2673.4
566.887,2388.9
567.388,2380.4
567.889,2455.2
568.391,2401.5
568.892,2430.4
569.392,2425.3
569.893,2399.3
570.394,2385.1
570.895,2396.2
571.395,2563.7
571.896,2582.4
572.397,2491.5
572.897,2465.6
573.397,2521.2
573.898,2538.4
574.398,2542.4
574.898,2514.1
575.398,2412.6
575.898,2443.1
576.398,2666.9
576.898,2936.4
577.398,2543.8
577.898,2422.6
578.398,2423.1
578.897,2414.2
579.397,2409.8
579.896,2381.5
580.396,2407.0
580.895,2390.8
581.395,2409.4
581.894,2400.0
582.393,2422.1
582.892,2413.8
583.391,2391.6
583.89,2411.1
584.389,2404.5
584.888,2392.1
585.387,2407.0
585.886,2413.5
586.384,2458.5
586.883,2648.3
587.381,2866.2
587.88,2676.2
588.378,2430.6
588.876,2413.6
589.375,2409.7
589.873,2402.6
590.371,2401.0
590.869,2397.2
591.367,2384.9
591.865,2402.0
592.363,2385.2
592.86,2403.0
593.358,2397.9
593.856,2402.9
594.353,2382.8
594.851,2380.2
595.348,2405.7
595.845,2404.7
596.342,2423.1
596.84,2412.7
597.337,2399.3
597.834,2413.3
598.331,2382.1
598.828,2381.6
599.324,2401.0
599.821,2409.3
600.318,2406.0
600.814,2392.3
601.311,2384.6
601.807,2422.4
602.304,2390.4
602.8,2381.7
603.296,2398.5
603.792,2386.9
604.288,2385.5
604.784,2403.6
605.28,2375.3
605.776,2384.5
606.272,2382.7
606.767,2387.5
607.263,2395.0
607.759,2395.7
608.254,2376.7
608.749,2370.6
609.245,2373.6
609.74,2384.5
610.235,2386.2
610.73,2369.5
611.225,2374.6
611.72,2368.5
612.215,2370.7
612.71,2373.7
613.204,2357.9
613.699,2389.6
614.194,2356.4
614.688,2366.0
615.182,2357.3
615.677,2374.1
616.171,2367.9
616.665,2368.2
617.159,2371.0
617.653,2390.5
618.147,2364.7
618.641,2364.1
619.135,2345.1
619.628,2371.3
620.122,2351.7
620.615,2342.0
621.109,2363.7
621.602,2358.2
622.095,2339.8
622.589,2383.6
623.082,2451.0
623.575,2430.7
624.068,2376.6
624.561,2373.8
625.053,2355.2
625.546,2346.2
626.039,2342.7
626.531,2347.3
627.024,2358.0
627.516,2353.8
628.008,2466.4
628.501,2829.5
628.993,2756.6
629.485,2733.5
629.977,2799.2
630.469,3090.8
630.96,4945.3
631.452,4618.9
631.944,3375.5
632.435,3017.8
632.927,3265.1
633.418,3657.1
633.91,3143.0
634.401,2627.6
634.892,2407.4
635.383,2352.5
635.874,2319.5
636.365,2305.9
636.856,2302.3
637.346,2283.2
637.837,2274.0
638.327,2281.9
638.818,2266.3
639.308,2262.2
639.799,2249.3
640.289,2263.6
640.779,2253.0
641.269,2257.9
641.759,2267.4
642.249,2252.1
642.738,2248.6
643.228,2237.0
643.718,2233.5
644.207,2238.7
644.697,2227.8
645.186,2237.5
645.675,2208.1
646.164,2206.0
646.653,2204.9
647.142,2196.8
647.631,2186.5
648.12,2187.5
648.609,2173.7
649.098,2192.7
649.586,2187.3
650.075,2181.1
650.563,2166.6
651.051,2173.3
651.539,2159.7
652.027,2170.2
652.515,2148.4
653.003,2174.5
653.491,2154.3
653.979,2155.2
654.467,2140.5
654.954,2129.5
655.442,2151.6
655.929,2134.0
656.416,2134.5
656.904,2143.6
657.391,2127.6
657.878,2142.2
658.365,2129.6
658.851,2119.2
659.338,2107.8
659.825,2104.7
660.311,2094.2
660.798,2099.8
661.041,2097.7

File: VLFR_08-PLA_bio_Raman_d1001c75.csv
nm,Intensity
528.65,1848.2
529.155,1849.1
529.66,1849.2
530.165,1850.7
530.67,1848.85
531.175,1850.55
531.68,1878.6
532.185,3070.3
532.69,1850.8
533.194,1852.35
533.699,2026.7
534.204,2395.9
534.708,2325.7
535.213,2308.45
535.717,2252.5
536.222,2225.25
536.726,2252.3
537.231,2212.9
537.735,2242.75
538.239,2221.05
538.743,2197.85
539.247,2204.9
539.751,2164.4
540.255,2189.95
540.759,2233.5
541.263,2232.25
541.767,2189.5
542.271,2188.65
542.775,2206.35
543.279,2285.2
543.782,2337.85
544.286,2256.9
544.789,2206.25
545.293,2195.6
545.796,2198.85
546.3,2189.6
546.803,2212.35
547.306,2213.0
547.81,2219.45
548.313,2219.05
548.816,2239.2
549.319,2230.1
549.822,2229.35
550.325,2232.5
550.828,2267.7
551.331,2285.9
551.834,2290.7
552.337,2287.15
552.839,2309.5
553.342,2281.2
553.844,2304.5
554.347,2298.75
554.849,2287.0
555.352,2255.1
555.854,2255.55
556.357,2265.55
556.859,2288.35
557.361,2315.55
557.863,2666.1
558.365,2514.75
558.867,2337.2
559.369,2335.45
559.871,2325.35
560.373,2304.45
560.875,2298.0
561.377,2299.55
561.878,2310.45
562.38,2306.2
562.881,2359.45
563.383,2467.75
563.884,2385.0
564.386,2359.2
564.887,2438.2
565.388,2426.5
565.89,2489.0
566.391,2485.15
566.892,2356.35
567.393,2345.75
567.894,2397.25
568.395,2385.75
568.896,2388.6
569.396,2382.9
569.897,2372.3
570.398,2380.9
570.898,2393.95
571.399,2491.2
571.9,2470.55
572.4,2442.6
572.9,2429.4
573.401,2448.0
573.901,2459.35
574.401,2477.6
574.901,2432.2
575.401,2392.9
575.901,2414.05
576.401,2555.45
576.901,2635.75
577.401,2423.1
577.901,2379.55
578.4,2370.85
578.9,2385.4
579.399,2362.45
579.899,2383.35
580.398,2363.75
580.898,2370.3
581.397,2375.7
581.896,2374.55
582.395,2382.05
582.895,2373.6
583.394,2378.15
583.893,2378.4
584.391,2367.95
584.89,2364.5
585.389,2367.6
585.888,2372.65
586.386,2389.85
586.885,2503.3
587.384,2633.35
587.882,2493.25
588.38,2398.9
588.879,2360.85
589.377,2359.8
589.875,2363.4
590.373,2334.4
590.871,2346.75
591.369,2345.8
591.867,2361.05
592.365,2368.7
592.863,2362.55
593.361,2350.7
593.858,2355.4
594.356,2347.55
594.853,2361.0
595.351,2352.0
595.848,2358.55
596.345,2361.4
596.843,2358.4
597.34,2346.8
597.837,2370.05
598.334,2359.15
598.831,2356.3
599.328,2360.8
599.824,2358.4
600.321,2372.2
600.818,2355.2
601.314,2363.95
601.811,2357.95
602.307,2356.6
602.804,2363.8
603.3,2371.55
603.796,2338.15
604.293,2370.15
604.789,2353.85
605.285,2361.5
605.781,2365.55
606.277,2356.6
606.772,2344.8
607.268,2359.0
607.764,2354.05
608.259,2360.0
608.755,2360.1
609.25,2350.85
609.746,2361.2
610.241,2349.2
610.736,2356.4
611.231,2347.35
611.727,2343.5
612.222,2339.05
612.716,2338.55
613.211,2351.9
613.706,2332.95
614.201,2346.75
614.695,2346.3
615.19,2355.7
615.684,2334.8
616.179,2343.15
616.673,2336.4
617.168,2313.8
617.662,2334.35
618.156,2340.9
618.65,2330.25
619.144,2336.5
619.638,2325.95
620.131,2319.0
620.625,2324.25
621.119,2319.4
621.612,2344.7
622.106,2318.15
622.599,2353.1
623.093,2366.2
623.586,2368.25
624.079,2333.0
624.572,2323.25
625.065,2323.7
625.558,2311.15
626.051,2308.75
626.544,2302.85
627.037,2316.25
627.529,2310.8
628.022,2413.5
628.514,2656.95
629.007,2544.15
629.499,2559.0
629.991,2586.25
630.483,2823.9
630.976,4253.6
631.468,3564.85
631.959,2876.5
632.451,2699.6
632.943,2933.3
633.435,3095.65
633.926,2766.4
634.418,2443.35
634.909,2324.25
635.401,2279.15
635.892,2258.75
636.383,2264.9
636.874,2247.35
637.365,2228.65
637.856,2254.85
638.347,2231.2
638.838,2230.7
639.329,2232.95
639.819,2225.05
640.31,2220.8
640.8,2223.95
641.291,2225.05
641.781,2220.15
642.271,2224.6
642.761,2208.65
643.251,2189.45
643.741,2189.1
644.231,2195.55
644.721,2186.2
645.211,2188.2
645.7,2179.0
646.19,2188.4
646.679,2167.55
647.169,2152.25
647.658,2162.35
648.147,2174.9
648.636,2153.55
649.125,2152.25
649.614,2153.9
650.103,2144.5
650.592,2147.45
651.08,2148.5
651.569,2142.15
652.058,2143.6
652.546,2127.65
653.034,2136.15
653.523,2134.25
654.011,2121.1
654.499,2122.2
654.987,2122.9
655.475,2112.7
655.963,2112.3
656.45,2102.45
656.938,2104.15
657.425,2098.7
657.913,2111.8
658.4,2080.85
658.888,2093.2
659.375,2084.95
659.862,2085.8
660.349,2085.2
660.836,2072.85
661.079,2075.0