Folder: MPX_specDB/spectra (part 17)

File: VLFR_01-LDPE_bio_Raman_fa2cb5eb.csv
nm,Intensity
528.637,1835.1
529.143,1835.4
529.648,1837.3
530.153,1836.8
530.659,1836.3
531.164,1839.7
531.669,1903.7
532.174,4940.6
532.679,1839.7
533.184,1842.5
533.689,2341.7
534.194,3700.0
534.699,3667.7
535.203,3572.1
535.708,3438.8
536.213,3295.0
536.717,3229.6
537.222,3167.7
537.726,3177.6
538.231,3152.0
538.735,3157.2
539.24,3137.6
539.744,3160.7
540.248,3172.3
540.752,3179.5
541.256,3147.0
541.761,3172.9
542.265,3215.7
542.769,3245.8
543.272,3234.7
543.776,3269.4
544.28,3282.4
544.784,3268.1
545.288,3300.1
545.791,3341.0
546.295,3330.8
546.798,3372.1
547.302,3448.7
547.805,3390.6
548.308,3451.1
548.812,3456.4
549.315,3424.8
549.818,3482.1
550.321,3445.7
550.824,3512.9
551.327,3541.2
551.83,3537.4
552.333,3585.4
552.836,3566.5
553.339,3561.5
553.842,3641.8
554.344,3658.7
554.847,3678.6
555.349,3666.2
555.852,3719.6
556.354,3684.6
556.857,3737.5
557.359,3777.2
557.861,3796.1
558.363,3860.5
558.866,3837.7
559.368,3860.9
559.87,3876.9
560.372,3842.9
560.873,3888.7
561.375,3893.5
561.877,3905.3
562.379,3942.2
562.88,3958.0
563.382,3954.4
563.883,4049.6
564.385,3949.5
564.886,4008.5
565.388,4027.3
565.889,4049.1
566.39,4032.4
566.891,3997.3
567.392,4011.8
567.893,4061.6
568.394,4093.8
568.895,4106.5
569.396,4114.0
569.897,4159.3
570.398,4178.8
570.898,4138.1
571.399,4285.2
571.899,4251.1
572.4,4276.4
572.9,4250.1
573.4,4160.2
573.901,4149.9
574.401,4189.7
574.901,4224.8
575.401,4240.8
575.901,4320.4
576.401,4416.5
576.901,4406.6
577.401,4310.0
577.9,4150.9
578.4,4170.9
578.9,4181.2
579.399,4238.8
579.899,4201.3
580.398,4306.6
580.897,4266.7
581.397,4354.1
581.896,4327.6
582.395,4341.1
582.894,4401.0
583.393,4491.8
583.892,4471.8
584.391,4446.9
584.889,4428.0
585.388,4332.1
585.887,4328.6
586.385,4455.0
586.884,4440.7
587.382,4556.4
587.881,4572.8
588.379,4586.1
588.877,4554.8
589.375,4659.8
589.874,4700.0
590.372,4729.1
590.87,4791.5
591.367,4792.0
591.865,4945.7
592.363,5013.0
592.861,5056.8
593.358,5161.9
593.856,5196.1
594.353,5248.3
594.851,5324.8
595.348,5418.0
595.845,5545.5
596.342,5708.3
596.84,5833.8
597.337,5894.9
597.833,6021.2
598.33,6093.2
598.827,6281.6
599.324,6370.4
599.821,6558.1
600.317,6617.2
600.814,6679.7
601.31,6847.8
601.807,6874.7
602.303,6954.9
602.799,7010.4
603.295,7046.7
603.791,7074.4
604.287,7041.8
604.783,7114.3
605.279,7189.5
605.775,7188.3
606.271,7149.3
606.766,7323.7
607.262,7237.0
607.757,7246.1
608.253,7188.2
608.748,7178.4
609.243,7128.4
609.738,7018.4
610.233,7184.9
610.729,7134.1
611.223,6973.2
611.718,7070.1
612.213,6937.7
612.708,6921.5
613.202,6949.1
613.697,6849.7
614.192,6802.3
614.686,6803.9
615.18,6636.3
615.675,6607.9
616.169,6541.4
616.663,6461.5
617.157,6377.7
617.651,6352.5
618.145,6211.6
618.638,6281.1
619.132,6137.2
619.626,6062.8
620.119,6104.8
620.613,5938.0
621.106,5999.9
621.599,5946.5
622.093,5915.0
622.586,5847.3
623.079,5743.5
623.572,5622.0
624.065,5719.6
624.558,5540.7
625.05,5556.6
625.543,5493.5
626.036,5452.6
626.528,5497.0
627.02,5919.3
627.513,5911.2
628.005,6000.6
628.497,6251.0
628.989,6010.8
629.481,6037.0
629.973,6054.8
630.465,6127.2
630.957,5901.0
631.449,5663.5
631.94,5458.2
632.432,5357.7
632.923,5164.1
633.414,5053.0
633.906,4872.9
634.397,4795.5
634.888,4731.1
635.379,4732.5
635.87,4799.8
636.361,4685.2
636.852,4560.4
637.342,4576.8
637.833,4505.6
638.323,4585.5
638.814,4541.6
639.304,4504.9
639.794,4447.1
640.285,4405.3
640.775,4431.8
641.265,4466.3
641.755,4405.8
642.244,4463.9
642.734,4385.7
643.224,4374.8
643.713,4456.0
644.203,4407.6
644.692,4361.6
645.181,4486.5
645.671,4417.6
646.16,4356.8
646.649,4330.6
647.138,4332.3
647.627,4285.4
648.115,4332.4
648.604,4201.4
649.093,4241.0
649.581,4251.3
650.07,4240.0
650.558,4304.7
651.046,4243.3
651.534,4254.8
652.023,4248.1
652.511,4168.0
652.998,4153.3
653.486,4030.5
653.974,4217.7
654.462,4012.3
654.949,4100.0
655.437,4104.5
655.924,4080.4
656.411,3977.2
656.898,4064.8
657.385,4039.5
657.872,3999.5
658.359,3904.2
658.846,3977.8
659.333,3825.8
659.82,3747.3
660.306,3825.9
660.793,3766.3
661.036,3811.2

File: VLFR_01-LDPE_bio_Raman_fe19d443.csv
nm,Intensity
528.65,1856.05
529.155,1855.95
529.66,1856.75
530.165,1855.95
530.67,1857.05
531.175,1858.15
531.68,1868.45
532.185,2575.05
532.69,1857.2
533.194,1857.75
533.699,1945.85
534.204,2145.9
534.708,2148.9
535.213,2123.35
535.717,2119.85
536.222,2101.45
536.726,2103.4
537.231,2105.5
537.735,2119.2
538.239,2108.7
538.743,2101.25
539.247,2112.25
539.751,2093.1
540.255,2092.8
540.759,2104.35
541.263,2088.1
541.767,2095.6
542.271,2097.0
542.775,2098.8
543.279,2096.9
543.782,2096.5
544.286,2093.55
544.789,2105.35
545.293,2097.35
545.796,2103.8
546.3,2095.2
546.803,2100.8
547.306,2094.65
547.81,2096.9
548.313,2110.25
548.816,2103.15
549.319,2099.7
549.822,2102.7
550.325,2111.15
550.828,2113.1
551.331,2111.8
551.834,2119.1
552.337,2114.55
552.839,2107.55
553.342,2128.2
553.844,2127.2
554.347,2127.95
554.849,2130.75
555.352,2142.7
555.854,2135.75
556.357,2140.4
556.859,2157.6
557.361,2150.65
557.863,2178.2
558.365,2177.7
558.867,2178.95
559.369,2173.6
559.871,2174.35
560.373,2182.8
560.875,2185.4
561.377,2186.4
561.878,2192.75
562.38,2224.3
562.881,2217.55
563.383,2231.25
563.884,2400.0
564.386,2308.75
564.887,2284.6
565.388,2271.3
565.89,2382.3
566.391,2384.05
566.892,2280.2
567.393,2285.05
567.894,2277.85
568.395,2276.8
568.896,2288.55
569.396,2304.45
569.897,2302.9
570.398,2325.3
570.898,2344.65
571.399,2584.25
571.9,2474.35
572.4,2375.45
572.9,2377.05
573.401,2370.4
573.901,2398.95
574.401,2394.15
574.901,2381.7
575.401,2504.9
575.901,2579.5
576.401,2714.6
576.901,2686.3
577.401,2542.45
577.901,2463.6
578.4,2456.3
578.9,2478.65
579.399,2487.65
579.899,2499.4
580.398,2507.7
580.898,2522.8
581.397,2521.35
581.896,2552.95
582.395,2551.8
582.895,2540.05
583.394,2585.85
583.893,2572.6
584.391,2592.85
584.89,2591.55
585.389,2592.15
585.888,2613.4
586.386,2639.2
586.885,2646.4
587.384,2667.25
587.882,2697.35
588.38,2684.65
588.879,2682.5
589.377,2711.6
589.875,2714.5
590.373,2748.15
590.871,2756.55
591.369,2783.25
591.867,2812.4
592.365,2857.7
592.863,2823.95
593.361,2844.8
593.858,2850.9
594.356,2809.65
594.853,2900.15
595.351,2897.55
595.848,2951.45
596.345,2968.0
596.843,3003.85
597.34,3032.15
597.837,3005.2
598.334,3025.15
598.831,3086.25
599.328,3055.05
599.824,3083.25
600.321,3105.9
600.818,3094.6
601.314,3125.6
601.811,3123.6
602.307,3095.5
602.804,3116.9
603.3,3076.65
603.796,3093.55
604.293,3049.2
604.789,3046.2
605.285,2981.4
605.781,2996.3
606.277,2969.3
606.772,2906.3
607.268,2915.8
607.764,2901.4
608.259,2868.8
608.755,2858.5
609.25,2834.05
609.746,2838.1
610.241,2814.0
610.736,2804.0
611.231,2782.0
611.727,2765.5
612.222,2763.55
612.716,2752.4
613.211,2758.4
613.706,2736.9
614.201,2765.85
614.695,2718.05
615.19,2720.7
615.684,2708.8
616.179,2708.75
616.673,2690.95
617.168,2695.8
617.662,2644.7
618.156,2673.25
618.65,2672.6
619.144,2677.85
619.638,2670.65
620.131,2662.9
620.625,2659.55
621.119,2655.7
621.612,2689.25
622.106,2718.95
622.599,2731.1
623.093,2638.1
623.586,2616.45
624.079,2611.15
624.572,2595.45
625.065,2593.15
625.558,2619.65
626.051,2637.55
626.544,2877.6
627.037,4118.6
627.529,4095.5
628.022,3734.25
628.514,4455.8
629.007,3804.95
629.499,3547.35
629.991,3333.2
630.483,3264.9
630.976,2911.5
631.468,2730.9
631.959,2623.4
632.451,2576.45
632.943,2565.75
633.435,2552.85
633.926,2502.9
634.418,2523.0
634.909,2519.35
635.401,2489.9
635.892,2496.05
636.383,2474.1
636.874,2500.85
637.365,2486.05
637.856,2481.45
638.347,2489.9
638.838,2482.75
639.329,2469.8
639.819,2458.3
640.31,2455.1
640.8,2464.1
641.291,2480.45
641.781,2433.9
642.271,2476.25
642.761,2465.3
643.251,2464.65
643.741,2478.6
644.231,2480.95
644.721,2477.7
645.211,2469.25
645.7,2466.2
646.19,2477.45
646.679,2445.05
647.169,2470.1
647.658,2465.6
648.147,2446.6
648.636,2428.75
649.125,2452.25
649.614,2475.55
650.103,2447.85
650.592,2425.4
651.08,2450.25
651.569,2445.2
652.058,2457.1
652.546,2434.6
653.034,2457.9
653.523,2400.95
654.011,2451.0
654.499,2431.0
654.987,2402.55
655.475,2380.7
655.963,2391.3
656.45,2376.4
656.938,2376.55
657.425,2376.95
657.913,2365.7
658.4,2327.45
658.888,2338.0
659.375,2314.4
659.862,2320.65
660.349,2289.55
660.836,2298.05
661.079,2285.9

File: VLFR_01-LDPE_nobio_Raman_0bf7d86f.csv
nm,Intensity
526.486,831.1
527.033,831.9
527.579,830.1
528.126,830.5
528.672,830.4
529.219,830.8
529.765,831.3
530.311,829.1
530.857,830.6
531.403,830.6
531.948,833.4
532.494,830.9
533.039,829.7
533.585,830.9
534.13,868.9
534.675,867.1
535.22,859.1
535.764,851.1
536.309,847.9
536.854,849.1
537.398,847.4
537.942,847.4
538.486,845.1
539.03,843.9
539.574,843.7
540.118,842.9
540.662,843.6
541.205,842.3
541.749,840.6
542.292,841.5
542.835,841.2
543.378,840.0
543.921,840.2
544.464,841.4
545.006,839.6
545.549,840.1
546.091,839.5
546.634,839.5
547.176,838.5
547.718,840.8
548.26,838.9
548.802,839.4
549.343,840.4
549.885,840.1
550.426,838.4
550.968,839.2
551.509,839.5
552.05,840.8
552.591,840.0
553.132,839.8
553.673,840.3
554.214,840.3
554.754,840.8
555.295,841.4
555.835,840.0
556.375,842.4
556.915,842.7
557.455,844.9
557.995,845.3
558.535,844.1
559.075,844.0
559.614,840.6
560.154,843.0
560.693,840.8
561.232,842.2
561.772,841.6
562.311,842.3
562.85,844.2
563.388,848.0
563.927,867.1
564.466,857.5
565.004,854.3
565.543,850.1
566.081,867.0
566.619,848.9
567.157,847.3
567.695,848.1
568.233,844.6
568.771,846.0
569.309,845.7
569.846,845.0
570.384,847.6
570.921,848.5
571.458,879.8
571.995,861.9
572.532,851.4
573.069,850.3
573.606,850.6
574.143,854.7
574.68,851.1
575.216,854.3
575.753,868.1
576.289,915.1
576.825,891.7
577.361,879.4
577.897,861.4
578.433,860.8
578.969,863.2
579.505,860.8
580.041,864.5
580.576,865.9
581.112,867.1
581.647,867.5
582.183,870.2
582.718,869.7
583.253,870.7
583.788,871.8
584.323,873.0
584.858,872.9
585.392,879.7
585.927,876.7
586.462,877.5
586.996,880.1
587.53,887.2
588.065,887.9
588.599,886.3
589.133,890.0
589.667,892.9
590.201,897.9
590.735,902.2
591.268,903.7
591.802,905.2
592.335,911.2
592.869,914.5
593.402,912.2
593.936,918.8
594.469,926.9
595.002,933.1
595.535,939.8
596.068,948.1
596.601,954.4
597.133,969.7
597.666,975.3
598.199,977.8
598.731,987.8
599.264,998.2
599.796,1001.3
600.328,1006.2
600.86,1004.6
601.393,1009.7
601.925,1004.7
602.457,1003.1
602.988,991.5
603.52,990.2
604.052,986.6
604.583,981.2
605.115,976.9
605.646,967.9
606.178,954.5
606.709,956.1
607.24,947.9
607.771,939.6
608.302,942.1
608.833,935.4
609.364,931.9
609.895,924.2
610.426,927.4
610.957,922.9
611.487,920.2
612.018,919.6
612.548,915.2
613.078,917.3
613.609,913.6
614.139,912.3
614.669,909.3
615.199,909.9
615.729,905.1
616.259,907.0
616.789,903.4
617.319,907.1
617.849,903.9
618.378,903.5
618.908,902.7
619.437,904.2
619.967,899.5
620.496,898.4
621.025,898.8
621.555,902.8
622.084,914.6
622.613,910.7
623.142,901.4
623.671,895.1
624.2,893.9
624.729,890.8
625.258,894.3
625.786,892.0
626.315,902.8
626.844,987.3
627.372,1169.1
627.901,1060.1
628.429,1140.5
628.957,1081.1
629.486,1029.9
630.014,991.0
630.542,980.1
631.07,934.2
631.598,906.0
632.126,890.9
632.654,882.3
633.182,885.0
633.71,878.3
634.237,876.4
634.765,877.2
635.293,874.5
635.82,876.0
636.348,874.4
636.875,877.1
637.403,874.3
637.93,877.0
638.458,874.5
638.985,875.2
639.512,878.2
640.039,878.4
640.566,877.4
641.093,878.7
641.62,878.4
642.147,879.0
642.674,881.3
643.201,878.6
643.728,882.0
644.255,880.7
644.781,882.3
645.308,885.2
645.835,883.5
646.361,885.1
646.888,886.0
647.414,889.2
647.941,888.1
648.467,891.8
648.993,889.1
649.52,891.2
650.046,893.1
650.572,893.9
651.098,892.2
651.625,894.9
652.151,896.7
652.677,897.3
653.203,899.1
653.729,903.0
654.255,901.5
654.78,898.1
655.306,902.1
655.832,901.8
656.358,902.7
656.884,898.5
657.409,899.8
657.935,898.5
658.461,892.4
658.986,894.2
659.512,893.2
660.037,887.4
660.563,885.6
661.088,885.1
661.614,880.9
662.139,876.0
662.664,875.5
663.058,877.0

File: VLFR_01-LDPE_nobio_Raman_00fb209f.csv
nm,Intensity
526.5,828.6
527.047,828.7
527.594,828.9
528.14,828.5
528.687,827.6
529.233,828.3
529.779,828.7
530.325,828.1
530.871,829.2
531.417,828.8
531.962,834.4
532.508,829.8
533.053,827.9
533.599,827.9
534.144,899.1
534.689,888.8
535.234,872.2
535.778,862.0
536.323,857.0
536.867,854.9
537.412,854.2
537.956,852.3
538.5,851.5
539.044,851.2
539.588,848.7
540.132,847.9
540.675,846.7
541.219,848.2
541.762,845.8
542.305,845.2
542.848,844.1
543.391,844.6
543.934,844.5
544.477,843.5
545.02,843.4
545.562,843.8
546.105,842.6
546.647,843.2
547.189,842.7
547.731,841.7
548.273,842.3
548.815,842.4
549.356,841.3
549.898,843.0
550.439,840.2
550.981,841.6
551.522,841.7
552.063,840.8
552.604,842.6
553.145,843.5
553.686,845.2
554.226,842.6
554.767,844.8
555.307,843.8
555.848,845.8
556.388,846.7
556.928,848.5
557.468,849.0
558.008,852.5
558.547,853.6
559.087,851.6
559.626,850.4
560.166,849.6
560.705,847.4
561.244,851.3
561.783,850.7
562.322,850.9
562.861,855.2
563.4,857.7
563.939,899.3
564.477,873.1
565.015,868.2
565.554,865.0
566.092,900.8
566.63,867.6
567.168,866.0
567.706,867.4
568.244,861.8
568.781,863.9
569.319,865.4
569.857,869.3
570.394,872.7
570.931,879.4
571.468,947.1
572.005,906.2
572.542,890.7
573.079,888.7
573.616,892.3
574.153,899.5
574.689,901.1
575.226,905.9
575.762,934.8
576.298,1034.7
576.834,997.3
577.371,977.7
577.907,952.3
578.442,951.8
578.978,959.3
579.514,969.6
580.049,975.6
580.585,986.4
581.12,988.3
581.656,1001.7
582.191,1013.5
582.726,1017.3
583.261,1024.7
583.796,1031.9
584.331,1034.5
584.865,1046.8
585.4,1054.6
585.935,1068.1
586.469,1077.7
587.004,1085.1
587.538,1101.6
588.072,1111.6
588.606,1125.5
589.14,1131.8
589.674,1146.8
590.208,1168.9
590.742,1173.2
591.275,1187.0
591.809,1191.3
592.342,1201.8
592.876,1196.3
593.409,1217.3
593.942,1223.4
594.476,1231.1
595.009,1238.0
595.542,1260.4
596.075,1272.0
596.607,1278.8
597.14,1296.5
597.673,1318.3
598.205,1335.7
598.738,1351.0
599.27,1375.9
599.803,1375.3
600.335,1379.9
600.867,1382.9
601.399,1376.1
601.931,1369.9
602.463,1363.9
602.995,1352.8
603.527,1334.8
604.058,1322.2
604.59,1290.4
605.122,1266.1
605.653,1243.4
606.184,1227.6
606.716,1208.4
607.247,1185.8
607.778,1174.9
608.309,1159.8
608.84,1159.8
609.371,1140.3
609.902,1127.6
610.433,1129.2
610.964,1107.3
611.494,1101.5
612.025,1101.0
612.556,1093.9
613.086,1086.1
613.616,1089.3
614.147,1086.1
614.677,1080.5
615.207,1071.2
615.737,1064.9
616.267,1053.7
616.797,1055.6
617.327,1056.8
617.857,1055.7
618.387,1056.0
618.917,1050.0
619.446,1044.8
619.976,1040.7
620.505,1040.4
621.035,1049.5
621.564,1052.2
622.093,1078.2
622.623,1073.5
623.152,1045.1
623.681,1041.9
624.21,1040.5
624.739,1035.4
625.268,1039.0
625.797,1046.4
626.326,1072.1
626.855,1312.6
627.383,1758.7
627.912,1476.3
628.441,1681.9
628.969,1502.9
629.498,1414.6
630.026,1302.4
630.554,1270.0
631.083,1151.9
631.611,1080.5
632.139,1056.2
632.667,1043.3
633.195,1045.5
633.724,1040.1
634.252,1038.7
634.779,1038.3
635.307,1036.7
635.835,1040.5
636.363,1039.5
636.891,1036.1
637.418,1040.7
637.946,1043.9
638.474,1045.5
639.001,1044.9
639.529,1046.4
640.056,1053.9
640.583,1056.0
641.111,1058.6
641.638,1060.3
642.165,1060.7
642.692,1067.4
643.22,1063.4
643.747,1065.2
644.274,1068.7
644.801,1070.9
645.328,1069.8
645.854,1075.3
646.381,1073.4
646.908,1076.4
647.435,1080.5
647.962,1073.7
648.488,1081.0
649.015,1080.0
649.542,1082.5
650.068,1083.6
650.595,1084.1
651.121,1089.6
651.648,1085.0
652.174,1090.0
652.7,1087.4
653.227,1093.4
653.753,1100.8
654.279,1101.2
654.805,1095.3
655.331,1089.6
655.858,1094.5
656.384,1084.3
656.91,1079.1
657.436,1077.6
657.962,1075.0
658.488,1066.9
659.013,1059.2
659.539,1052.5
660.065,1046.4
660.591,1035.4
661.117,1027.5
661.642,1020.1
662.168,1014.0
662.694,1001.7
663.088,998.5

File: VLFR_01-LDPE_nobio_Raman_1ccb3335.csv
nm,Intensity
526.486,831.1
527.033,830.4
527.579,830.1
528.126,829.4
528.672,830.2
529.219,830.3
529.765,831.1
530.311,829.5
530.857,829.7
531.403,829.1
531.948,833.2
532.494,832.2
533.039,830.1
533.585,829.8
534.13,896.9
534.675,885.9
535.22,874.1
535.764,862.1
536.309,856.4
536.854,854.7
537.398,852.8
537.942,854.4
538.486,847.9
539.03,846.1
539.574,845.0
540.118,844.7
540.662,844.3
541.205,841.5
541.749,844.4
542.292,844.8
542.835,842.1
543.378,841.5
543.921,842.7
544.464,843.0
545.006,842.8
545.549,843.3
546.091,843.9
546.634,842.8
547.176,842.1
547.718,840.6
548.26,841.6
548.802,843.9
549.343,841.6
549.885,841.0
550.426,843.4
550.968,841.4
551.509,842.1
552.05,843.0
552.591,841.6
553.132,846.2
553.673,845.5
554.214,847.4
554.754,846.9
555.295,847.2
555.835,850.4
556.375,849.8
556.915,850.9
557.455,851.7
557.995,856.2
558.535,857.9
559.075,854.1
559.614,856.1
560.154,854.7
560.693,850.9
561.232,852.4
561.772,852.7
562.311,858.0
562.85,858.5
563.388,860.6
563.927,941.9
564.466,885.1
565.004,874.2
565.543,874.6
566.081,1032.5
566.619,886.1
567.157,864.2
567.695,866.0
568.233,865.7
568.771,864.8
569.309,869.5
569.846,868.2
570.384,874.6
570.921,881.9
571.458,1013.8
571.995,907.9
572.532,882.0
573.069,882.7
573.606,883.2
574.143,902.5
574.68,894.0
575.216,908.5
575.753,1022.2
576.289,1027.4
576.825,990.9
577.361,975.6
577.897,947.5
578.433,952.6
578.969,962.0
579.505,969.2
580.041,978.8
580.576,989.6
581.112,995.8
581.647,1004.8
582.183,1008.9
582.718,1024.8
583.253,1027.1
583.788,1029.4
584.323,1040.3
584.858,1042.6
585.392,1044.9
585.927,1048.5
586.462,1055.8
586.996,1052.3
587.53,1057.0
588.065,1063.4
588.599,1062.2
589.133,1064.3
589.667,1064.9
590.201,1071.4
590.735,1076.2
591.268,1075.8
591.802,1079.8
592.335,1071.4
592.869,1069.9
593.402,1063.8
593.936,1064.1
594.469,1064.3
595.002,1069.3
595.535,1061.8
596.068,1067.9
596.601,1062.1
597.133,1061.3
597.666,1060.2
598.199,1069.3
598.731,1071.0
599.264,1071.7
599.796,1075.4
600.328,1073.1
600.86,1065.0
601.393,1064.8
601.925,1070.0
602.457,1065.3
602.988,1063.5
603.52,1058.4
604.052,1056.7
604.583,1048.7
605.115,1045.5
605.646,1038.3
606.178,1037.6
606.709,1027.8
607.24,1024.4
607.771,1023.0
608.302,1023.0
608.833,1021.1
609.364,1016.6
609.895,1013.5
610.426,1016.5
610.957,1011.4
611.487,1010.4
612.018,1003.2
612.548,1007.7
613.078,1007.3
613.609,1006.9
614.139,1001.7
614.669,1003.4
615.199,995.2
615.729,994.8
616.259,991.4
616.789,992.3
617.319,993.7
617.849,994.8
618.378,993.4
618.908,991.8
619.437,993.1
619.967,990.7
620.496,985.5
621.025,993.0
621.555,1000.1
622.084,1018.5
622.613,1014.1
623.142,988.3
623.671,990.5
624.2,987.5
624.729,988.6
625.258,992.1
625.786,999.9
626.315,1020.3
626.844,1204.1
627.372,1660.7
627.901,1378.7
628.429,1481.0
628.957,1452.2
629.486,1356.1
630.014,1244.3
630.542,1231.6
631.07,1104.9
631.598,1039.5
632.126,1021.5
632.654,1014.9
633.182,1009.8
633.71,1007.2
634.237,1003.5
634.765,1006.2
635.293,1000.9
635.82,1005.3
636.348,998.2
636.875,999.3
637.403,996.9
637.93,987.2
638.458,988.9
638.985,985.6
639.512,988.8
640.039,992.0
640.566,987.3
641.093,989.1
641.62,983.1
642.147,985.8
642.674,979.6
643.201,977.9
643.728,979.6
644.255,975.4
644.781,970.9
645.308,964.6
645.835,969.7
646.361,963.8
646.888,967.5
647.414,965.5
647.941,962.2
648.467,958.1
648.993,960.0
649.52,959.2
650.046,958.0
650.572,951.3
651.098,953.5
651.625,952.2
652.151,954.5
652.677,949.8
653.203,948.8
653.729,950.3
654.255,948.0
654.78,947.6
655.306,942.5
655.832,944.5
656.358,939.2
656.884,943.2
657.409,943.5
657.935,941.4
658.461,937.6
658.986,935.1
659.512,933.1
660.037,933.7
660.563,932.5
661.088,925.7
661.614,924.8
662.139,917.6
662.664,921.3
663.058,918.0

File: VLFR_01-LDPE_nobio_Raman_1e259df0.csv
nm,Intensity
526.486,828.5
527.033,830.7
527.579,829.5
528.126,828.3
528.672,830.0
529.219,828.8
529.765,828.6
530.311,828.4
530.857,828.6
531.403,828.2
531.948,828.9
532.494,830.0
533.039,828.6
533.585,829.3
534.13,868.1
534.675,858.1
535.22,854.6
535.764,849.9
536.309,845.5
536.854,845.1
537.398,843.0
537.942,844.2
538.486,842.2
539.03,841.4
539.574,839.6
540.118,840.5
540.662,836.2
541.205,837.7
541.749,837.8
542.292,838.5
542.835,837.4
543.378,838.0
543.921,836.7
544.464,838.1
545.006,836.4
545.549,837.6
546.091,836.7
546.634,838.0
547.176,836.9
547.718,838.2
548.26,835.5
548.802,836.4
549.343,836.5
549.885,836.4
550.426,836.5
550.968,837.9
551.509,836.0
552.05,837.7
552.591,836.6
553.132,838.1
553.673,838.5
554.214,838.1
554.754,838.4
555.295,838.8
555.835,838.8
556.375,839.6
556.915,840.4
557.455,843.0
557.995,843.0
558.535,844.3
559.075,843.8
559.614,840.9
560.154,840.8
560.693,840.7
561.232,841.5
561.772,839.3
562.311,842.4
562.85,843.3
563.388,845.7
563.927,868.2
564.466,855.4
565.004,852.2
565.543,847.4
566.081,888.4
566.619,852.2
567.157,843.5
567.695,846.4
568.233,842.5
568.771,840.9
569.309,840.5
569.846,843.1
570.384,844.7
570.921,848.2
571.458,888.4
571.995,862.7
572.532,850.5
573.069,844.4
573.606,842.1
574.143,848.1
574.68,842.1
575.216,846.3
575.753,873.4
576.289,905.2
576.825,881.6
577.361,864.0
577.897,848.6
578.433,845.1
578.969,846.1
579.505,845.4
580.041,843.0
580.576,845.6
581.112,845.2
581.647,846.0
582.183,846.8
582.718,847.1
583.253,848.7
583.788,851.2
584.323,852.2
584.858,854.2
585.392,858.5
585.927,855.9
586.462,859.6
586.996,859.5
587.53,860.2
588.065,864.5
588.599,868.1
589.133,870.8
589.667,872.7
590.201,875.2
590.735,875.7
591.268,880.3
591.802,882.3
592.335,879.9
592.869,879.5
593.402,883.7
593.936,883.1
594.469,883.8
595.002,885.2
595.535,889.3
596.068,889.3
596.601,894.7
597.133,899.0
597.666,896.4
598.199,902.0
598.731,904.2
599.264,903.0
599.796,908.6
600.328,909.3
600.86,911.4
601.393,911.6
601.925,911.9
602.457,914.5
602.988,910.7
603.52,907.1
604.052,901.1
604.583,900.6
605.115,897.7
605.646,896.3
606.178,893.5
606.709,889.6
607.24,886.5
607.771,887.4
608.302,887.9
608.833,883.1
609.364,879.1
609.895,882.6
610.426,877.0
610.957,878.5
611.487,880.8
612.018,873.9
612.548,873.1
613.078,874.9
613.609,873.8
614.139,876.0
614.669,872.2
615.199,873.7
615.729,872.7
616.259,869.2
616.789,868.2
617.319,872.1
617.849,874.6
618.378,869.7
618.908,872.0
619.437,869.2
619.967,871.8
620.496,868.6
621.025,870.9
621.555,874.2
622.084,885.9
622.613,883.9
623.142,872.7
623.671,870.9
624.2,868.5
624.729,867.5
625.258,868.3
625.786,872.4
626.315,882.1
626.844,967.7
627.372,1228.2
627.901,1088.1
628.429,1143.0
628.957,1139.2
629.486,1085.0
630.014,1026.8
630.542,1020.9
631.07,946.1
631.598,892.6
632.126,880.9
632.654,870.1
633.182,866.7
633.71,863.6
634.237,862.3
634.765,863.5
635.293,859.5
635.82,861.5
636.348,862.8
636.875,859.4
637.403,861.7
637.93,861.8
638.458,865.4
638.985,862.8
639.512,863.3
640.039,864.1
640.566,864.4
641.093,864.9
641.62,868.1
642.147,868.5
642.674,866.8
643.201,867.9
643.728,873.1
644.255,869.8
644.781,869.9
645.308,869.4
645.835,871.8
646.361,871.9
646.888,870.2
647.414,871.1
647.941,871.8
648.467,869.9
648.993,868.2
649.52,870.4
650.046,869.6
650.572,871.2
651.098,870.1
651.625,871.1
652.151,870.3
652.677,872.1
653.203,872.5
653.729,872.9
654.255,871.2
654.78,873.5
655.306,872.0
655.832,872.0
656.358,871.5
656.884,874.0
657.409,873.4
657.935,871.7
658.461,866.0
658.986,871.0
659.512,868.5
660.037,869.1
660.563,865.9
661.088,867.9
661.614,865.7
662.139,860.8
662.664,860.4
663.058,859.9