Folder: MPX_specDB/spectra (part 157)

File: VLFR_08-PLA_nobio_Raman_c92325a0.csv
nm,Intensity
526.486,829.6
527.033,830.5
527.579,831.0
528.126,831.2
528.672,830.4
529.219,830.1
529.765,830.5
530.311,830.4
530.857,830.1
531.403,830.4
531.948,832.8
532.494,832.6
533.039,830.2
533.585,830.8
534.13,1010.3
534.675,975.5
535.22,935.2
535.764,920.6
536.309,915.8
536.854,918.8
537.398,908.1
537.942,904.8
538.486,895.0
539.03,891.5
539.574,890.7
540.118,887.9
540.662,899.8
541.205,900.7
541.749,893.6
542.292,887.6
542.835,891.4
543.378,909.5
543.921,916.2
544.464,898.3
545.006,891.6
545.549,885.4
546.091,885.0
546.634,885.7
547.176,890.8
547.718,887.7
548.26,887.0
548.802,891.4
549.343,894.4
549.885,891.4
550.426,890.8
550.968,892.1
551.509,898.1
552.05,896.9
552.591,900.5
553.132,896.0
553.673,896.8
554.214,902.6
554.754,898.5
555.295,892.9
555.835,890.1
556.375,889.7
556.915,891.8
557.455,904.5
557.995,995.2
558.535,929.6
559.075,904.1
559.614,906.2
560.154,897.3
560.693,902.0
561.232,892.8
561.772,896.3
562.311,895.0
562.85,906.5
563.388,930.3
563.927,918.1
564.466,905.0
565.004,924.3
565.543,916.5
566.081,944.2
566.619,920.3
567.157,901.3
567.695,904.4
568.233,907.7
568.771,909.3
569.309,907.6
569.846,900.7
570.384,906.3
570.921,909.3
571.458,921.3
571.995,921.7
572.532,918.1
573.069,917.9
573.606,920.4
574.143,919.7
574.68,927.7
575.216,906.8
575.753,908.9
576.289,921.5
576.825,974.5
577.361,933.7
577.897,914.8
578.433,912.5
578.969,910.8
579.505,912.8
580.041,908.3
580.576,907.8
581.112,907.2
581.647,909.7
582.183,910.4
582.718,912.4
583.253,913.2
583.788,914.1
584.323,915.4
584.858,911.5
585.392,916.0
585.927,913.8
586.462,923.9
586.996,957.1
587.53,977.8
588.065,942.5
588.599,915.0
589.133,915.1
589.667,914.1
590.201,916.0
590.735,910.6
591.268,914.3
591.802,911.8
592.335,909.9
592.869,915.3
593.402,911.4
593.936,909.9
594.469,910.4
595.002,911.7
595.535,913.0
596.068,916.1
596.601,914.9
597.133,914.0
597.666,916.6
598.199,913.7
598.731,912.6
599.264,914.9
599.796,914.5
600.328,911.4
600.86,911.7
601.393,915.4
601.925,915.4
602.457,913.4
602.988,911.3
603.52,913.0
604.052,911.0
604.583,916.9
605.115,911.6
605.646,908.0
606.178,909.5
606.709,908.8
607.24,910.6
607.771,911.5
608.302,914.5
608.833,908.5
609.364,910.9
609.895,911.2
610.426,909.2
610.957,912.2
611.487,911.2
612.018,914.1
612.548,912.3
613.078,911.7
613.609,912.3
614.139,912.0
614.669,915.7
615.199,913.7
615.729,912.9
616.259,913.4
616.789,911.0
617.319,914.0
617.849,914.6
618.378,913.5
618.908,912.5
619.437,912.8
619.967,913.7
620.496,911.7
621.025,914.5
621.555,914.2
622.084,914.6
622.613,919.1
623.142,924.8
623.671,920.2
624.2,917.4
624.729,918.0
625.258,911.1
625.786,912.2
626.315,910.7
626.844,913.8
627.372,912.8
627.901,922.8
628.429,979.9
628.957,974.8
629.486,970.0
630.014,972.5
630.542,1024.7
631.07,1373.5
631.598,1164.5
632.126,1034.8
632.654,1012.3
633.182,1094.5
633.71,1074.8
634.237,979.6
634.765,930.3
635.293,916.5
635.82,912.4
636.348,911.0
636.875,907.5
637.403,905.2
637.93,908.7
638.458,906.5
638.985,904.4
639.512,906.1
640.039,906.4
640.566,907.6
641.093,902.4
641.62,906.0
642.147,906.3
642.674,906.8
643.201,904.6
643.728,901.0
644.255,901.0
644.781,898.2
645.308,895.0
645.835,898.3
646.361,898.1
646.888,897.4
647.414,896.6
647.941,897.9
648.467,900.4
648.993,894.2
649.52,895.0
650.046,897.9
650.572,898.8
651.098,896.7
651.625,891.3
652.151,893.3
652.677,893.7
653.203,891.8
653.729,894.9
654.255,894.2
654.78,896.5
655.306,893.8
655.832,894.7
656.358,894.6
656.884,895.3
657.409,896.9
657.935,894.9
658.461,894.7
658.986,894.8
659.512,895.7
660.037,893.5
660.563,891.6
661.088,890.6
661.614,893.0
662.139,891.6
662.664,892.0
663.058,888.8

File: VLFR_08-PLA_nobio_Raman_cc48c79e.csv
nm,Intensity
526.486,829.8
527.033,828.9
527.579,829.3
528.126,827.9
528.672,830.0
529.219,829.3
529.765,830.2
530.311,829.9
530.857,829.1
531.403,829.3
531.948,830.8
532.494,830.1
533.039,830.3
533.585,830.3
534.13,1022.3
534.675,989.2
535.22,952.0
535.764,935.1
536.309,929.4
536.854,934.2
537.398,925.8
537.942,920.3
538.486,911.9
539.03,910.0
539.574,904.6
540.118,899.8
540.662,915.0
541.205,917.6
541.749,907.1
542.292,905.9
542.835,906.6
543.378,929.7
543.921,940.1
544.464,916.6
545.006,907.7
545.549,906.7
546.091,903.6
546.634,906.3
547.176,906.9
547.718,909.8
548.26,902.8
548.802,909.3
549.343,908.0
549.885,910.6
550.426,912.8
550.968,910.5
551.509,916.7
552.05,919.2
552.591,922.3
553.132,923.5
553.673,918.6
554.214,926.5
554.754,919.8
555.295,915.9
555.835,910.5
556.375,912.9
556.915,916.7
557.455,931.1
557.995,1025.7
558.535,953.0
559.075,930.3
559.614,926.1
560.154,923.6
560.693,922.3
561.232,917.6
561.772,918.7
562.311,919.5
562.85,929.0
563.388,957.8
563.927,943.7
564.466,934.0
565.004,952.7
565.543,949.6
566.081,973.4
566.619,948.3
567.157,930.3
567.695,931.6
568.233,937.9
568.771,934.7
569.309,940.3
569.846,935.6
570.384,935.2
570.921,938.3
571.458,950.6
571.995,951.8
572.532,949.2
573.069,949.4
573.606,954.4
574.143,950.8
574.68,960.4
575.216,940.8
575.753,943.1
576.289,950.6
576.825,1011.8
577.361,965.8
577.897,945.4
578.433,944.1
578.969,940.6
579.505,945.1
580.041,942.5
580.576,945.1
581.112,944.9
581.647,942.8
582.183,941.9
582.718,944.9
583.253,945.7
583.788,953.4
584.323,953.0
584.858,944.6
585.392,949.3
585.927,950.1
586.462,958.2
586.996,988.4
587.53,1014.7
588.065,975.3
588.599,947.2
589.133,950.3
589.667,950.4
590.201,950.7
590.735,948.2
591.268,947.2
591.802,949.2
592.335,942.8
592.869,944.0
593.402,947.1
593.936,945.6
594.469,945.6
595.002,944.3
595.535,949.4
596.068,946.0
596.601,946.4
597.133,949.2
597.666,944.5
598.199,948.7
598.731,949.7
599.264,952.8
599.796,946.6
600.328,949.1
600.86,949.0
601.393,947.2
601.925,950.7
602.457,945.9
602.988,948.5
603.52,948.3
604.052,947.2
604.583,952.1
605.115,948.0
605.646,947.6
606.178,947.1
606.709,942.1
607.24,944.8
607.771,942.5
608.302,945.4
608.833,945.4
609.364,948.5
609.895,949.7
610.426,945.7
610.957,944.5
611.487,942.4
612.018,942.4
612.548,944.9
613.078,948.5
613.609,951.1
614.139,945.8
614.669,946.0
615.199,942.3
615.729,951.0
616.259,950.6
616.789,948.7
617.319,950.5
617.849,948.9
618.378,952.0
618.908,946.0
619.437,949.6
619.967,947.5
620.496,946.3
621.025,950.8
621.555,945.4
622.084,947.2
622.613,956.8
623.142,960.5
623.671,957.8
624.2,955.3
624.729,947.9
625.258,947.8
625.786,945.9
626.315,946.0
626.844,947.9
627.372,954.0
627.901,957.6
628.429,1015.9
628.957,1016.7
629.486,1009.5
630.014,1013.3
630.542,1067.2
631.07,1437.0
631.598,1216.6
632.126,1070.0
632.654,1049.6
633.182,1140.8
633.71,1114.3
634.237,1017.9
634.765,965.0
635.293,948.7
635.82,941.5
636.348,942.7
636.875,937.9
637.403,936.2
637.93,937.1
638.458,934.5
638.985,939.5
639.512,936.1
640.039,935.8
640.566,931.7
641.093,935.2
641.62,936.5
642.147,935.3
642.674,937.4
643.201,931.8
643.728,928.7
644.255,928.2
644.781,925.8
645.308,926.2
645.835,922.4
646.361,925.6
646.888,928.5
647.414,923.4
647.941,925.0
648.467,921.9
648.993,921.3
649.52,918.6
650.046,920.1
650.572,918.8
651.098,920.6
651.625,917.8
652.151,917.2
652.677,920.0
653.203,919.6
653.729,919.3
654.255,917.6
654.78,914.7
655.306,916.5
655.832,916.7
656.358,918.3
656.884,915.5
657.409,916.0
657.935,915.9
658.461,916.4
658.986,914.7
659.512,917.1
660.037,914.1
660.563,912.8
661.088,913.7
661.614,913.1
662.139,909.8
662.664,910.2
663.058,910.9

File: VLFR_08-PLA_nobio_Raman_cd8b90c7.csv
nm,Intensity
526.508,830.9
527.055,831.1
527.602,830.7
528.149,830.8
528.695,831.3
529.241,829.5
529.787,831.6
530.334,830.8
530.879,830.6
531.425,831.4
531.971,832.8
532.516,829.7
533.062,830.8
533.607,829.8
534.152,931.3
534.697,915.0
535.242,898.7
535.786,894.2
536.331,889.0
536.876,891.7
537.42,886.7
537.964,886.9
538.508,884.9
539.052,882.7
539.596,881.8
540.14,880.5
540.683,888.3
541.227,890.2
541.77,884.5
542.313,884.9
542.856,885.0
543.399,896.1
543.942,899.8
544.485,890.7
545.027,886.7
545.57,884.3
546.112,883.7
546.654,885.9
547.196,888.9
547.738,886.6
548.28,887.9
548.822,887.0
549.363,887.5
549.905,891.6
550.446,891.6
550.988,887.4
551.529,889.6
552.07,895.9
552.611,896.3
553.152,894.1
553.692,895.3
554.233,896.8
554.773,894.0
555.314,895.4
555.854,889.5
556.394,893.5
556.934,893.0
557.474,899.1
558.014,956.9
558.553,908.8
559.093,901.2
559.632,900.7
560.172,898.1
560.711,898.9
561.25,895.5
561.789,897.0
562.328,897.4
562.867,903.5
563.406,920.7
563.944,911.0
564.483,904.3
565.021,913.9
565.559,913.4
566.098,925.5
566.636,914.1
567.174,904.2
567.711,906.5
568.249,909.3
568.787,906.5
569.324,909.1
569.862,906.1
570.399,908.7
570.936,908.9
571.474,920.9
572.011,921.1
572.548,917.9
573.084,918.0
573.621,918.6
574.158,918.5
574.694,922.0
575.231,915.9
575.767,911.2
576.303,920.4
576.84,949.7
577.376,923.3
577.912,914.7
578.447,916.6
578.983,914.5
579.519,917.6
580.054,912.1
580.59,920.1
581.125,918.0
581.661,919.1
582.196,917.2
582.731,917.0
583.266,920.4
583.801,919.4
584.336,921.3
584.87,914.2
585.405,920.9
585.94,918.6
586.474,922.6
587.008,936.1
587.543,948.1
588.077,928.4
588.611,920.0
589.145,920.1
589.679,918.3
590.213,921.9
590.747,924.2
591.28,917.0
591.814,920.3
592.347,919.9
592.881,918.2
593.414,920.8
593.947,917.2
594.48,919.7
595.014,918.2
595.547,921.8
596.079,923.2
596.612,921.2
597.145,919.2
597.678,916.7
598.21,923.3
598.743,922.7
599.275,925.8
599.807,924.0
600.34,923.2
600.872,923.3
601.404,921.7
601.936,924.1
602.468,919.3
603.0,922.9
603.532,921.5
604.063,920.6
604.595,923.0
605.126,920.7
605.658,922.2
606.189,921.1
606.721,921.8
607.252,919.6
607.783,924.2
608.314,921.4
608.845,923.4
609.376,923.8
609.907,926.6
610.438,927.0
610.968,925.9
611.499,926.6
612.03,926.5
612.56,927.5
613.091,930.5
613.621,927.7
614.151,931.4
614.681,932.1
615.212,929.8
615.742,933.7
616.272,931.1
616.802,931.6
617.332,933.0
617.861,933.8
618.391,929.7
618.921,932.7
619.45,935.3
619.98,932.5
620.509,932.4
621.039,930.6
621.568,932.0
622.097,934.8
622.627,936.3
623.156,944.4
623.685,938.8
624.214,938.8
624.743,934.8
625.272,934.6
625.801,935.1
626.33,935.9
626.858,936.5
627.387,938.5
627.916,939.6
628.444,968.8
628.973,966.6
629.501,961.4
630.029,964.3
630.558,991.6
631.086,1149.3
631.614,1041.8
632.142,988.1
632.67,978.7
633.198,1020.1
633.726,1005.9
634.254,967.2
634.782,940.0
635.31,932.8
635.838,933.1
636.365,932.9
636.893,926.5
637.421,928.3
637.948,927.7
638.476,924.7
639.003,928.4
639.531,926.3
640.058,925.0
640.585,924.8
641.113,923.2
641.64,921.3
642.167,924.7
642.694,925.8
643.221,918.9
643.748,923.1
644.275,916.9
644.802,918.7
645.329,913.2
645.856,912.0
646.382,915.2
646.909,912.5
647.436,911.9
647.962,911.3
648.489,915.9
649.016,914.4
649.542,911.3
650.069,911.4
650.595,910.4
651.121,907.4
651.648,903.8
652.174,907.9
652.7,909.3
653.227,906.8
653.753,905.6
654.279,905.6
654.805,903.9
655.331,904.5
655.857,901.4
656.383,903.6
656.909,904.5
657.435,903.6
657.961,901.0
658.487,904.8
659.013,903.8
659.538,899.3
660.064,902.9
660.59,903.1
661.116,899.0
661.641,900.3
662.167,901.1
662.692,899.5
663.087,901.0

File: VLFR_08-PLA_nobio_Raman_d2b73856.csv
nm,Intensity
526.486,831.1
527.033,831.8
527.579,828.3
528.126,831.6
528.672,830.2
529.219,830.3
529.765,830.4
530.311,830.3
530.857,829.8
531.403,829.1
531.948,833.1
532.494,831.2
533.039,830.4
533.585,831.8
534.13,1022.9
534.675,994.9
535.22,965.0
535.764,956.3
536.309,955.9
536.854,955.8
537.398,946.7
537.942,945.4
538.486,944.0
539.03,939.3
539.574,939.2
540.118,938.2
540.662,946.2
541.205,949.1
541.749,949.5
542.292,939.4
542.835,944.7
543.378,961.7
543.921,970.4
544.464,956.8
545.006,952.6
545.549,950.1
546.091,949.4
546.634,952.3
547.176,951.8
547.718,953.2
548.26,951.9
548.802,956.8
549.343,958.6
549.885,955.6
550.426,958.7
550.968,961.5
551.509,961.5
552.05,963.0
552.591,970.0
553.132,966.6
553.673,960.5
554.214,971.5
554.754,971.9
555.295,962.8
555.835,959.8
556.375,967.9
556.915,971.4
557.455,977.2
557.995,1058.7
558.535,994.5
559.075,976.2
559.614,975.1
560.154,973.2
560.693,967.5
561.232,969.8
561.772,974.4
562.311,973.2
562.85,984.8
563.388,1005.5
563.927,993.7
564.466,986.8
565.004,1001.8
565.543,999.8
566.081,1016.1
566.619,1001.9
567.157,985.8
567.695,989.0
568.233,986.1
568.771,990.6
569.309,998.4
569.846,992.7
570.384,988.8
570.921,989.9
571.458,1001.7
571.995,1005.4
572.532,1005.9
573.069,1007.0
573.606,1009.5
574.143,1007.9
574.68,1016.3
575.216,1000.7
575.753,1000.1
576.289,1016.4
576.825,1057.0
577.361,1022.6
577.897,1008.5
578.433,1009.2
578.969,1002.0
579.505,1002.6
580.041,1004.5
580.576,1002.5
581.112,1010.4
581.647,1010.6
582.183,1004.1
582.718,1006.8
583.253,1016.8
583.788,1007.3
584.323,1012.4
584.858,1011.0
585.392,1011.2
585.927,1011.3
586.462,1018.5
586.996,1054.7
587.53,1069.5
588.065,1034.6
588.599,1015.5
589.133,1012.0
589.667,1019.1
590.201,1010.4
590.735,1010.5
591.268,1010.9
591.802,1013.4
592.335,1014.8
592.869,1008.9
593.402,1005.2
593.936,1009.0
594.469,1012.6
595.002,1011.0
595.535,1008.5
596.068,1008.7
596.601,1006.5
597.133,1014.7
597.666,1004.6
598.199,1008.5
598.731,1012.9
599.264,1008.7
599.796,1008.8
600.328,1012.5
600.86,1012.0
601.393,1005.8
601.925,1001.8
602.457,1010.8
602.988,1010.5
603.52,1005.8
604.052,1005.7
604.583,1008.9
605.115,1003.4
605.646,996.4
606.178,998.8
606.709,1003.8
607.24,997.3
607.771,996.5
608.302,998.8
608.833,1003.5
609.364,1004.5
609.895,1000.1
610.426,1003.8
610.957,1002.0
611.487,998.1
612.018,1001.3
612.548,1007.8
613.078,1001.7
613.609,1007.6
614.139,1005.9
614.669,1007.9
615.199,1000.4
615.729,1005.7
616.259,1006.3
616.789,1002.0
617.319,1003.5
617.849,1005.5
618.378,998.7
618.908,1003.9
619.437,1003.8
619.967,998.7
620.496,1002.5
621.025,1002.0
621.555,1003.6
622.084,1006.6
622.613,1009.5
623.142,1013.6
623.671,1012.2
624.2,1005.5
624.729,1006.6
625.258,1002.8
625.786,995.4
626.315,1001.4
626.844,1004.4
627.372,1001.9
627.901,1007.3
628.429,1066.5
628.957,1057.8
629.486,1054.8
630.014,1058.1
630.542,1105.3
631.07,1420.5
631.598,1228.1
632.126,1109.3
632.654,1085.7
633.182,1172.6
633.71,1145.0
634.237,1054.9
634.765,1016.2
635.293,1000.5
635.82,993.1
636.348,992.9
636.875,991.1
637.403,987.1
637.93,985.1
638.458,986.7
638.985,984.6
639.512,982.3
640.039,984.4
640.566,985.3
641.093,978.0
641.62,984.0
642.147,979.5
642.674,982.2
643.201,977.4
643.728,976.3
644.255,977.2
644.781,972.8
645.308,971.0
645.835,965.4
646.361,974.4
646.888,973.6
647.414,967.1
647.941,964.5
648.467,966.5
648.993,967.1
649.52,964.8
650.046,965.2
650.572,965.0
651.098,962.1
651.625,964.3
652.151,963.1
652.677,961.1
653.203,961.6
653.729,956.9
654.255,960.0
654.78,958.2
655.306,957.0
655.832,956.5
656.358,955.6
656.884,952.7
657.409,961.7
657.935,954.1
658.461,954.9
658.986,956.3
659.512,951.7
660.037,956.0
660.563,952.9
661.088,948.1
661.614,951.2
662.139,946.2
662.664,950.0
663.058,948.3

File: VLFR_08-PLA_nobio_Raman_d8eecd7d.csv
nm,Intensity
526.508,829.9
527.055,831.1
527.602,830.8
528.149,830.8
528.695,829.9
529.241,830.6
529.787,829.4
530.334,829.7
530.879,829.0
531.425,830.1
531.971,836.1
532.516,831.8
533.062,831.2
533.607,832.2
534.152,1050.4
534.697,1015.6
535.242,976.3
535.786,955.7
536.331,948.6
536.876,951.5
537.42,937.2
537.964,940.2
538.508,930.8
539.052,928.2
539.596,922.9
540.14,921.9
540.683,937.1
541.227,937.4
541.77,925.5
542.313,925.9
542.856,928.8
543.399,943.9
543.942,956.9
544.485,934.1
545.027,928.5
545.57,922.3
546.112,926.4
546.654,923.1
547.196,923.0
547.738,926.4
548.28,924.5
548.822,926.7
549.363,929.9
549.905,928.5
550.446,930.6
550.988,935.2
551.529,936.9
552.07,939.1
552.611,943.8
553.152,943.8
553.692,939.0
554.233,945.8
554.773,937.2
555.314,937.0
555.854,936.0
556.394,933.3
556.934,939.9
557.474,954.1
558.014,1067.5
558.553,970.2
559.093,950.4
559.632,948.2
560.172,945.8
560.711,943.0
561.25,942.5
561.789,943.1
562.328,942.1
562.867,955.5
563.406,983.2
563.944,967.2
564.483,953.9
565.021,974.5
565.559,965.9
566.098,998.8
566.636,972.8
567.174,952.8
567.711,953.8
568.249,954.7
568.787,961.7
569.324,958.6
569.862,957.7
570.399,957.3
570.936,964.3
571.474,978.1
572.011,981.5
572.548,977.8
573.084,975.4
573.621,976.1
574.158,974.1
574.694,986.5
575.231,965.3
575.767,966.7
576.303,984.0
576.84,1043.8
577.376,989.7
577.912,966.7
578.447,969.8
578.983,965.4
579.519,963.3
580.054,966.1
580.59,962.7
581.125,966.8
581.661,968.4
582.196,965.7
582.731,969.4
583.266,974.7
583.801,965.8
584.336,970.7
584.87,967.2
585.405,969.0
585.94,972.3
586.474,993.0
587.008,1018.1
587.543,1045.6
588.077,994.6
588.611,974.4
589.145,970.6
589.679,971.8
590.213,973.1
590.747,971.9
591.28,974.2
591.814,968.7
592.347,970.9
592.881,970.0
593.414,967.7
593.947,972.7
594.48,969.3
595.014,970.7
595.547,973.7
596.079,972.0
596.612,971.3
597.145,973.2
597.678,970.2
598.21,976.4
598.743,971.3
599.275,977.2
599.807,968.6
600.34,971.6
600.872,968.8
601.404,974.3
601.936,967.8
602.468,967.3
603.0,974.2
603.532,972.9
604.063,966.6
604.595,967.9
605.126,967.6
605.658,962.5
606.189,966.3
606.721,963.5
607.252,967.4
607.783,963.9
608.314,965.2
608.845,962.5
609.376,962.5
609.907,965.1
610.438,965.8
610.968,964.5
611.499,962.7
612.03,961.3
612.56,966.1
613.091,964.5
613.621,967.2
614.151,966.4
614.681,968.7
615.212,967.7
615.742,965.8
616.272,963.9
616.802,963.6
617.332,967.4
617.861,967.2
618.391,969.0
618.921,970.0
619.45,964.0
619.98,972.6
620.509,969.4
621.039,964.8
621.568,962.9
622.097,967.2
622.627,973.1
623.156,979.0
623.685,972.3
624.214,970.4
624.743,967.2
625.272,969.8
625.801,965.7
626.33,962.9
626.858,961.8
627.387,967.9
627.916,974.5
628.444,1032.3
628.973,1022.8
629.501,1018.4
630.029,1024.0
630.558,1079.9
631.086,1424.6
631.614,1204.6
632.142,1084.0
632.67,1062.1
633.198,1151.8
633.726,1111.9
634.254,1026.3
634.782,980.6
635.31,963.8
635.838,958.3
636.365,959.6
636.893,960.0
637.421,952.5
637.948,949.1
638.476,947.8
639.003,953.8
639.531,953.3
640.058,948.4
640.585,956.1
641.113,951.5
641.64,951.0
642.167,948.8
642.694,952.3
643.221,948.2
643.748,940.5
644.275,944.5
644.802,940.4
645.329,942.7
645.856,940.6
646.382,940.7
646.909,936.6
647.436,939.1
647.962,937.0
648.489,935.2
649.016,939.3
649.542,935.8
650.069,941.0
650.595,935.2
651.121,932.6
651.648,933.2
652.174,935.5
652.7,931.4
653.227,933.4
653.753,930.7
654.279,933.7
654.805,933.2
655.331,930.5
655.857,930.2
656.383,930.1
656.909,934.6
657.435,932.8
657.961,931.0
658.487,928.4
659.013,927.7
659.538,931.5
660.064,932.5
660.59,924.9
661.116,931.2
661.641,927.3
662.167,923.2
662.692,924.0
663.087,924.6

File: VLFR_08-PLA_nobio_Raman_d7121a8d.csv
cm-1,Intensity
-123.878,1861.25
-105.821,1862.1
-87.8007,1861.05
-69.8161,1859.2
-51.8675,1862.85
-33.9547,1864.95
-16.0776,1891.2
1.76388,3241.6
19.5698,1865.85
37.3403,1871.7
55.0755,2715.75
72.7754,5429.65
90.4402,5673.55
108.07,5924.6
125.665,6049.0
143.225,6130.5
160.75,6109.55
178.241,6160.75
195.697,6408.4
213.119,6485.8
230.506,6548.2
247.859,6661.1
265.178,6792.5
282.463,6847.45
299.713,6825.25
316.93,6956.15
334.113,7042.6
351.263,7173.4
368.379,7268.4
385.461,7407.15
402.51,7478.0
419.526,7406.4
436.508,7706.65
453.458,7783.85
470.374,7998.0
487.257,8063.55
504.107,8266.35
520.925,8229.05
537.71,8350.95
554.462,8614.75
571.182,8753.7
587.87,8548.65
604.525,8718.65
621.148,8643.0
637.739,9080.5
654.297,9083.75
670.824,9143.0
687.319,9286.5
703.782,9214.7
720.213,9376.15
736.613,9350.85
752.981,9447.05
769.317,9786.55
785.623,9769.2
801.897,9736.85
818.139,9857.85
834.351,9987.0
850.532,9862.75
866.681,10216.5
882.8,10418.9
898.888,10521.0
914.945,10677.0
930.972,10574.5
946.968,10769.2
962.934,10839.5
978.869,10941.4
994.774,11074.4
1010.65,11331.3
1026.49,11609.8
1042.31,11393.0
1058.09,11304.0
1073.85,11479.8
1089.57,12022.2
1105.27,12037.5
1120.93,12333.0
1136.57,12313.9
1152.18,12287.3
1167.75,12236.2
1183.3,12473.0
1198.82,12731.8
1214.31,12930.1
1229.77,12920.6
1245.2,13080.0
1260.6,13183.5
1275.97,13126.5
1291.32,13644.3
1306.63,13855.4
1321.92,13781.4
1337.18,13821.5
1352.41,13892.4
1367.61,13958.5
1382.78,13842.5
1397.93,14095.8
1413.05,14229.8
1428.14,14392.1
1443.2,14268.3
1458.23,13824.3
1473.23,14195.3
1488.21,14236.3
1503.16,14084.5
1518.08,14244.1
1532.97,14359.5
1547.84,14446.8
1562.68,14876.5
1577.49,14892.3
1592.27,14764.3
1607.03,14602.3
1621.76,14623.0
1636.46,14231.6
1651.14,14308.9
1665.78,14423.0
1680.41,14435.8
1695.0,14420.3
1709.57,14316.8
1724.11,14339.0
1738.62,14620.2
1753.11,14598.2
1767.57,14623.2
1782.01,15017.3
1796.41,14801.4
1810.8,14989.2
1825.15,14581.8
1839.48,15033.3
1853.79,14808.9
1868.06,15100.8
1882.31,15134.3
1896.54,15149.3
1910.74,15603.0
1924.91,15168.2
1939.06,15166.5
1953.19,15183.6
1967.28,15430.8
1981.35,15536.3
1995.4,15680.0
2009.42,15856.5
2023.42,16042.6
2037.39,15690.3
2051.33,15811.2
2065.25,15856.3
2079.15,15976.5
2093.01,15991.2
2106.86,16209.8
2120.68,16534.5
2134.47,16416.0
2148.24,16059.0
2161.99,16366.9
2175.71,16445.5
2189.41,16695.8
2203.08,16598.2
2216.73,16816.9
2230.35,16491.7
2243.95,16772.0
2257.52,16979.3
2271.07,16672.3
2284.6,16986.6
2298.1,17020.2
2311.58,17131.3
2325.03,16973.8
2338.46,17120.2
2351.87,17295.7
2365.25,17409.7
2378.61,17276.6
2391.94,17299.3
2405.26,17707.1
2418.54,17652.7
2431.81,18006.1
2445.05,17618.3
2458.27,17822.1
2471.46,18052.9
2484.63,17894.3
2497.78,17535.6
2510.9,18221.3
2524.0,17996.7
2537.08,18028.6
2550.14,18073.8
2563.17,17993.3
2576.18,18191.1
2589.17,18205.1
2602.13,18406.1
2615.07,18347.8
2627.99,18567.5
2640.89,18810.1
2653.76,18673.6
2666.61,18491.6
2679.44,18620.9
2692.25,18926.0
2705.03,19154.7
2717.79,18649.9
2730.53,19229.7
2743.25,18816.7
2755.94,18960.5
2768.61,19119.5
2781.27,19085.0
2793.89,18925.3
2806.5,19197.3
2819.09,19175.9
2831.65,19199.2
2844.19,19190.7
2856.71,19507.2
2869.21,19288.1
2881.69,18994.8
2894.14,19348.9
2906.58,19457.9
2918.99,19742.4
2931.38,19812.2
2943.75,19605.0
2956.1,19933.1
2968.42,19643.3
2980.73,19288.8
2993.01,19657.7
3005.28,20084.2
3017.52,19895.4
3029.74,19977.5
3041.94,19869.8
3054.12,19418.7
3066.28,19493.4
3078.42,20090.1
3090.54,19796.1
3102.63,19553.5
3114.71,20015.8
3126.77,19679.8
3138.8,19713.8
3150.82,19939.7
3162.81,19953.6
3174.78,20202.3
3186.74,19578.9
3198.67,19939.4
3210.58,19669.6
3222.47,19994.9
3234.35,19749.2
3246.2,19709.2
3258.03,20040.3
3269.84,19385.5
3281.64,19763.3
3293.41,19544.9
3305.16,19912.0
3316.89,19577.2
3328.61,19477.3
3340.3,19880.6
3351.97,19871.8
3363.63,20016.8
3375.26,19389.7
3386.88,19704.6
3398.47,19335.2
3410.05,19508.3
3421.6,19128.2
3433.14,19162.4
3444.66,19520.6
3456.15,19300.3
3467.63,18858.2
3479.09,19189.5
3490.53,18911.8
3501.96,18953.3
3513.36,18840.3
3524.74,19053.3
3536.11,18351.3
3547.45,18830.7
3558.78,18746.7
3570.09,18217.2
3581.37,18799.4
3592.64,18375.9
3603.9,17988.5
3615.13,17712.8
3626.34,17285.5
3637.54,17540.7
3648.72,18048.9
3659.87,17246.5
3665.45,17979.2