Folder: MPX_specDB/spectra (part 160)

File: VLFR_08-PLA_nobio_Raman_f70e02df.csv
nm,Intensity
526.547,831.9
527.094,833.3
527.641,831.7
528.188,832.7
528.734,832.4
529.281,832.0
529.827,833.9
530.373,832.8
530.92,833.2
531.466,833.3
532.011,839.4
532.557,832.2
533.103,830.9
533.648,837.4
534.193,1117.8
534.738,1072.3
535.283,1028.3
535.828,1005.0
536.373,998.5
536.917,1004.0
537.462,993.4
538.006,990.2
538.55,978.5
539.094,978.1
539.638,970.8
540.182,961.0
540.726,988.5
541.269,994.5
541.812,983.2
542.356,979.6
542.899,986.7
543.442,1010.4
543.985,1015.8
544.527,988.8
545.07,982.6
545.612,977.3
546.155,977.6
546.697,981.5
547.239,987.5
547.781,982.3
548.323,983.7
548.865,985.4
549.406,988.9
549.948,990.8
550.489,995.1
551.03,999.7
551.572,1001.0
552.113,1008.7
552.654,1008.1
553.194,1008.3
553.735,1008.7
554.276,1017.2
554.816,1008.1
555.356,1004.0
555.896,1000.7
556.437,1001.1
556.977,1009.3
557.516,1027.7
558.056,1179.9
558.596,1044.5
559.135,1022.4
559.675,1017.3
560.214,1011.8
560.753,1014.2
561.292,1008.6
561.831,1008.7
562.37,1014.8
562.909,1024.0
563.448,1065.0
563.986,1039.4
564.525,1033.0
565.063,1060.5
565.601,1052.5
566.139,1090.2
566.677,1046.0
567.215,1027.9
567.753,1034.3
568.291,1036.6
568.828,1036.6
569.366,1042.9
569.903,1035.8
570.441,1034.4
570.978,1038.9
571.515,1061.9
572.052,1059.7
572.589,1054.0
573.126,1059.1
573.662,1058.7
574.199,1054.8
574.735,1064.1
575.272,1042.7
575.808,1047.8
576.344,1070.7
576.88,1140.9
577.416,1072.8
577.952,1055.3
578.488,1054.0
579.024,1053.1
579.559,1050.0
580.095,1051.1
580.63,1053.0
581.166,1045.1
581.701,1049.5
582.236,1051.9
582.771,1052.9
583.306,1056.7
583.841,1049.9
584.376,1053.9
584.911,1057.5
585.445,1053.6
585.98,1059.3
586.514,1076.8
587.048,1113.5
587.583,1150.2
588.117,1088.5
588.651,1055.3
589.185,1055.8
589.719,1050.7
590.253,1057.1
590.786,1054.6
591.32,1057.5
591.853,1055.3
592.387,1051.1
592.92,1056.2
593.454,1049.4
593.987,1049.3
594.52,1052.2
595.053,1051.5
595.586,1049.0
596.119,1050.5
596.651,1054.4
597.184,1054.6
597.717,1055.1
598.249,1055.9
598.782,1062.2
599.314,1062.0
599.846,1053.2
600.379,1051.1
600.911,1051.1
601.443,1052.8
601.975,1049.7
602.507,1049.7
603.038,1051.2
603.57,1049.0
604.102,1053.2
604.633,1046.0
605.165,1044.0
605.696,1039.8
606.228,1041.4
606.759,1038.6
607.29,1045.7
607.821,1045.8
608.352,1045.0
608.883,1042.4
609.414,1037.5
609.945,1048.2
610.476,1040.6
611.006,1044.6
611.537,1039.5
612.067,1037.4
612.598,1043.4
613.128,1042.6
613.659,1048.7
614.189,1047.0
614.719,1041.7
615.249,1048.6
615.779,1043.4
616.309,1046.0
616.839,1042.1
617.369,1046.1
617.899,1046.5
618.428,1050.0
618.958,1040.5
619.487,1041.5
620.017,1040.5
620.546,1036.9
621.076,1040.4
621.605,1038.5
622.134,1041.1
622.663,1049.4
623.193,1056.0
623.722,1052.6
624.251,1046.1
624.78,1043.9
625.308,1037.6
625.837,1037.4
626.366,1046.9
626.895,1043.0
627.423,1049.5
627.952,1051.4
628.48,1137.9
629.009,1107.5
629.537,1109.9
630.065,1118.3
630.594,1198.9
631.122,1675.2
631.65,1326.7
632.178,1189.2
632.706,1168.6
633.234,1288.0
633.762,1227.3
634.29,1102.5
634.818,1052.6
635.346,1035.3
635.873,1032.9
636.401,1027.9
636.929,1024.8
637.456,1021.2
637.984,1021.7
638.511,1019.3
639.039,1019.6
639.566,1013.7
640.093,1015.3
640.62,1013.7
641.148,1015.5
641.675,1016.0
642.202,1022.4
642.729,1009.1
643.256,1009.2
643.783,1007.5
644.31,999.9
644.837,1003.1
645.364,1003.4
645.891,1000.5
646.417,999.2
646.944,1001.6
647.471,997.1
647.997,1000.4
648.524,994.4
649.051,992.9
649.577,995.7
650.104,996.0
650.63,995.7
651.157,991.5
651.683,993.9
652.209,992.7
652.736,988.7
653.262,989.1
653.788,985.4
654.314,987.0
654.84,986.4
655.366,986.5
655.893,988.4
656.419,983.8
656.945,987.6
657.471,987.7
657.997,985.6
658.522,984.2
659.048,979.2
659.574,981.1
660.1,981.0
660.626,978.0
661.152,975.3
661.677,980.1
662.203,975.6
662.729,979.2
663.123,974.2

File: VLFR_08-PLA_nobio_Raman_f88d6922.csv
nm,Intensity
526.532,830.4
527.079,830.2
527.625,830.133
528.172,830.733
528.718,831.233
529.265,829.767
529.811,830.733
530.357,830.1
530.903,830.867
531.449,830.433
531.994,835.3
532.54,829.6
533.085,830.533
533.63,832.733
534.176,1018.63
534.721,972.433
535.266,936.267
535.81,917.033
536.355,909.233
536.9,907.8
537.444,898.067
537.988,898.533
538.533,885.633
539.077,885.233
539.621,880.433
540.165,873.467
540.708,890.7
541.252,891.933
541.795,879.867
542.339,875.5
542.882,877.9
543.425,902.567
543.968,906.3
544.511,885.267
545.054,874.033
545.597,868.733
546.139,869.8
546.682,869.567
547.224,871.567
547.766,871.733
548.308,871.867
548.85,873.7
549.392,872.633
549.934,874.3
550.475,874.8
551.017,877.267
551.558,879.933
552.1,881.633
552.641,881.0
553.182,881.767
553.723,878.967
554.264,884.933
554.804,878.033
555.345,874.2
555.885,868.467
556.426,873.467
556.966,875.233
557.506,891.233
558.046,1012.6
558.586,903.467
559.126,886.733
559.665,884.433
560.205,880.633
560.745,876.9
561.284,874.467
561.823,875.833
562.362,872.667
562.901,886.533
563.44,918.533
563.979,893.6
564.518,885.267
565.056,909.567
565.595,901.233
566.133,934.467
566.671,897.833
567.21,880.467
567.748,886.633
568.285,885.433
568.823,882.833
569.361,886.7
569.899,882.5
570.436,882.9
570.974,887.2
571.511,906.1
572.048,902.767
572.585,896.267
573.122,898.033
573.659,903.0
574.196,895.5
574.733,904.233
575.269,883.267
575.806,887.933
576.342,906.933
576.878,961.233
577.414,904.667
577.951,887.667
578.486,884.1
579.022,883.4
579.558,884.367
580.094,885.267
580.629,883.6
581.165,883.3
581.7,883.833
582.236,885.9
582.771,885.267
583.306,885.8
583.841,887.0
584.376,885.567
584.911,885.5
585.445,887.233
585.98,889.533
586.514,901.467
587.049,937.767
587.583,961.133
588.117,908.833
588.651,890.2
589.186,886.7
589.72,886.267
590.253,887.667
590.787,884.1
591.321,885.6
591.854,886.1
592.388,886.833
592.921,882.733
593.455,884.333
593.988,884.1
594.521,884.267
595.054,884.6
595.587,885.0
596.12,886.5
596.653,887.167
597.186,886.033
597.718,886.5
598.251,887.1
598.783,886.4
599.316,886.467
599.848,886.5
600.38,885.633
600.912,886.133
601.444,884.3
601.976,885.733
602.508,883.367
603.04,886.6
603.572,885.367
604.103,885.3
604.635,885.767
605.167,884.967
605.698,882.5
606.229,883.4
606.761,885.633
607.292,883.167
607.823,884.1
608.354,885.467
608.885,885.5
609.416,885.833
609.947,886.0
610.477,885.6
611.008,884.533
611.539,885.133
612.069,884.1
612.6,886.433
613.13,886.5
613.66,887.333
614.19,887.7
614.721,885.733
615.251,887.033
615.781,887.9
616.311,886.133
616.841,888.167
617.37,889.233
617.9,888.533
618.43,887.133
618.96,887.167
619.489,885.633
620.019,885.267
620.548,886.333
621.077,886.8
621.607,887.867
622.136,887.9
622.665,899.433
623.194,904.033
623.723,899.6
624.252,892.6
624.781,889.167
625.31,888.567
625.839,886.6
626.368,887.533
626.896,890.2
627.425,891.033
627.953,901.733
628.482,967.767
629.01,952.5
629.539,952.333
630.067,959.433
630.596,1024.5
631.124,1403.03
631.652,1129.5
632.18,1016.13
632.708,1001.17
633.236,1090.87
633.764,1046.93
634.292,954.633
634.82,910.333
635.348,895.8
635.876,892.0
636.403,887.767
636.931,885.633
637.459,883.867
637.986,883.3
638.514,883.467
639.041,883.033
639.568,883.5
640.096,882.0
640.623,882.5
641.15,881.433
641.678,883.833
642.205,884.2
642.732,882.933
643.259,881.467
643.786,878.733
644.313,878.033
644.84,878.867
645.367,876.8
645.894,877.4
646.421,875.8
646.948,876.3
647.474,877.267
648.001,875.133
648.528,876.133
649.054,874.767
649.581,874.967
650.108,873.667
650.634,872.933
651.161,872.733
651.687,874.1
652.214,875.7
652.74,875.033
653.266,874.167
653.793,873.9
654.319,874.0
654.845,873.3
655.371,872.067
655.897,871.767
656.424,873.267
656.95,874.967
657.476,874.133
658.002,873.133
658.528,872.667
659.054,871.467
659.58,872.367
660.106,871.867
660.631,870.5
661.157,871.133
661.683,870.067
662.209,871.1
662.735,870.133
663.129,869.5

File: VLFR_08-PLA_nobio_Raman_f92ba4df.csv
nm,Intensity
526.532,830.6
527.079,830.033
527.625,830.533
528.172,829.9
528.718,830.267
529.265,829.8
529.811,830.233
530.357,829.867
530.903,829.767
531.449,829.833
531.994,834.333
532.54,830.1
533.085,830.067
533.63,832.567
534.176,1002.6
534.721,961.833
535.266,937.7
535.81,922.367
536.355,914.333
536.9,914.2
537.444,900.867
537.988,903.367
538.533,892.4
539.077,891.733
539.621,887.4
540.165,883.933
540.708,902.7
541.252,901.467
541.795,888.567
542.339,887.367
542.882,889.967
543.425,908.3
543.968,924.667
544.511,896.367
545.054,884.9
545.597,881.567
546.139,881.333
546.682,881.067
547.224,885.4
547.766,881.5
548.308,884.5
548.85,883.133
549.392,887.667
549.934,886.267
550.475,887.3
551.017,889.167
551.558,892.567
552.1,895.5
552.641,895.367
553.182,896.267
553.723,895.4
554.264,899.667
554.804,891.767
555.345,884.767
555.885,886.867
556.426,886.267
556.966,888.467
557.506,902.467
558.046,1010.43
558.586,914.1
559.126,899.467
559.665,898.4
560.205,895.167
560.745,891.2
561.284,888.233
561.823,889.867
562.362,890.333
562.901,899.167
563.44,929.6
563.979,907.667
564.518,900.4
565.056,924.833
565.595,914.067
566.133,944.867
566.671,912.767
567.21,896.267
567.748,905.233
568.285,903.6
568.823,902.2
569.361,903.267
569.899,899.933
570.436,900.0
570.974,901.333
571.511,925.033
572.048,917.0
572.585,910.333
573.122,913.1
573.659,917.067
574.196,912.267
574.733,921.133
575.269,904.133
575.806,902.567
576.342,924.867
576.878,972.7
577.414,920.933
577.951,905.5
578.486,904.233
579.022,904.0
579.558,902.633
580.094,902.8
580.629,903.267
581.165,902.967
581.7,905.667
582.236,904.067
582.771,905.467
583.306,903.667
583.841,906.067
584.376,906.6
584.911,907.933
585.445,905.7
585.98,909.767
586.514,917.167
587.049,948.933
587.583,975.7
588.117,924.367
588.651,908.267
589.186,908.733
589.72,904.5
590.253,904.2
590.787,906.067
591.321,906.9
591.854,903.633
592.388,905.2
592.921,902.867
593.455,905.867
593.988,903.8
594.521,902.533
595.054,904.867
595.587,904.833
596.12,904.167
596.653,904.067
597.186,903.033
597.718,905.2
598.251,905.5
598.783,905.567
599.316,906.6
599.848,903.567
600.38,905.767
600.912,904.433
601.444,905.1
601.976,905.267
602.508,903.533
603.04,902.933
603.572,902.767
604.103,902.867
604.635,900.867
605.167,903.4
605.698,900.167
606.229,900.5
606.761,901.9
607.292,899.833
607.823,900.867
608.354,901.567
608.885,901.067
609.416,902.033
609.947,904.067
610.477,902.033
611.008,902.267
611.539,903.733
612.069,901.667
612.6,903.433
613.13,903.367
613.66,903.3
614.19,903.467
614.721,902.533
615.251,904.967
615.781,901.633
616.311,903.333
616.841,903.4
617.37,904.4
617.9,902.667
618.43,902.233
618.96,901.533
619.489,903.767
620.019,902.533
620.548,900.633
621.077,900.133
621.607,903.4
622.136,903.467
622.665,911.433
623.194,916.067
623.723,911.967
624.252,906.6
624.781,905.433
625.31,900.867
625.839,903.1
626.368,904.433
626.896,903.567
627.425,905.733
627.953,914.567
628.482,975.4
629.01,960.633
629.539,958.333
630.067,963.733
630.596,1022.53
631.124,1381.77
631.652,1125.9
632.18,1021.93
632.708,999.733
633.236,1082.97
633.764,1044.5
634.292,962.533
634.82,918.8
635.348,908.067
635.876,905.267
636.403,902.0
636.931,897.9
637.459,897.267
637.986,893.667
638.514,893.967
639.041,893.9
639.568,894.833
640.096,896.2
640.623,895.6
641.15,896.2
641.678,898.133
642.205,897.6
642.732,896.9
643.259,893.0
643.786,890.233
644.313,889.833
644.84,888.967
645.367,889.133
645.894,889.4
646.421,886.933
646.948,888.467
647.474,887.433
648.001,886.533
648.528,887.8
649.054,885.3
649.581,887.033
650.108,886.867
650.634,885.033
651.161,885.933
651.687,883.6
652.214,886.333
652.74,884.7
653.266,883.8
653.793,885.9
654.319,882.867
654.845,884.4
655.371,884.5
655.897,883.667
656.424,883.967
656.95,886.0
657.476,884.867
658.002,885.733
658.528,884.6
659.054,883.233
659.58,883.767
660.106,884.867
660.631,883.0
661.157,882.533
661.683,881.133
662.209,880.067
662.735,880.467
663.129,879.333

File: VLFR_08-PLA_nobio_Raman_f673bdf3.csv
nm,Intensity
526.532,830.867
527.079,831.333
527.625,829.967
528.172,830.167
528.718,830.3
529.265,830.0
529.811,830.067
530.357,829.8
530.903,830.467
531.449,830.067
531.994,835.833
532.54,831.267
533.085,830.833
533.63,833.467
534.176,1037.1
534.721,984.167
535.266,954.333
535.81,932.467
536.355,922.167
536.9,925.567
537.444,912.9
537.988,911.467
538.533,900.067
539.077,898.2
539.621,890.567
540.165,888.233
540.708,907.9
541.252,905.5
541.795,895.3
542.339,890.0
542.882,890.667
543.425,916.933
543.968,933.067
544.511,897.367
545.054,886.833
545.597,884.333
546.139,882.767
546.682,885.033
547.224,885.7
547.766,881.267
548.308,884.5
548.85,884.967
549.392,889.3
549.934,884.467
550.475,887.533
551.017,889.9
551.558,890.333
552.1,897.767
552.641,898.5
553.182,897.333
553.723,894.2
554.264,899.3
554.804,890.733
555.345,887.333
555.885,883.8
556.426,886.433
556.966,887.433
557.506,904.267
558.046,1033.1
558.586,918.6
559.126,900.467
559.665,900.4
560.205,892.633
560.745,892.5
561.284,889.1
561.823,888.0
562.362,890.367
562.901,901.833
563.44,936.9
563.979,909.567
564.518,906.367
565.056,925.8
565.595,916.9
566.133,955.633
566.671,915.533
567.21,898.6
567.748,906.733
568.285,905.367
568.823,907.167
569.361,906.867
569.899,903.767
570.436,902.8
570.974,907.067
571.511,930.1
572.048,924.9
572.585,914.167
573.122,918.067
573.659,922.933
574.196,916.533
574.733,926.2
575.269,904.767
575.806,907.4
576.342,927.567
576.878,981.933
577.414,925.3
577.951,909.367
578.486,905.5
579.022,904.333
579.558,904.2
580.094,902.133
580.629,903.867
581.165,903.433
581.7,904.7
582.236,903.6
582.771,904.267
583.306,903.1
583.841,904.9
584.376,907.0
584.911,904.2
585.445,904.667
585.98,907.2
586.514,917.9
587.049,953.5
587.583,985.667
588.117,924.8
588.651,906.3
589.186,902.7
589.72,902.5
590.253,902.5
590.787,900.933
591.321,901.4
591.854,901.667
592.388,902.333
592.921,902.367
593.455,898.633
593.988,901.367
594.521,902.0
595.054,900.133
595.587,899.833
596.12,898.167
596.653,901.467
597.186,902.267
597.718,900.5
598.251,900.033
598.783,899.867
599.316,901.233
599.848,899.733
600.38,899.967
600.912,900.833
601.444,901.867
601.976,901.767
602.508,901.333
603.04,901.067
603.572,899.4
604.103,900.033
604.635,898.933
605.167,899.367
605.698,896.967
606.229,895.967
606.761,897.2
607.292,898.333
607.823,896.167
608.354,896.633
608.885,898.833
609.416,898.0
609.947,897.333
610.477,899.167
611.008,896.967
611.539,898.7
612.069,897.5
612.6,898.067
613.13,899.033
613.66,899.833
614.19,900.567
614.721,899.233
615.251,898.667
615.781,899.5
616.311,900.733
616.841,899.233
617.37,903.2
617.9,898.267
618.43,899.633
618.96,898.367
619.489,900.267
620.019,899.967
620.548,899.667
621.077,897.4
621.607,898.633
622.136,903.567
622.665,910.033
623.194,915.633
623.723,910.767
624.252,907.3
624.781,901.2
625.31,900.1
625.839,900.633
626.368,899.733
626.896,903.367
627.425,904.133
627.953,916.0
628.482,988.933
629.01,969.4
629.539,970.933
630.067,976.833
630.596,1048.43
631.124,1475.27
631.652,1171.77
632.18,1041.77
632.708,1014.87
633.236,1117.27
633.764,1070.3
634.292,967.533
634.82,920.733
635.348,905.867
635.876,900.1
636.403,896.233
636.931,893.3
637.459,892.933
637.986,891.533
638.514,893.1
639.041,893.167
639.568,894.133
640.096,891.667
640.623,892.833
641.15,892.0
641.678,893.033
642.205,893.0
642.732,890.167
643.259,887.167
643.786,887.533
644.313,886.133
644.84,886.467
645.367,882.867
645.894,884.367
646.421,884.433
646.948,883.333
647.474,882.7
648.001,883.433
648.528,883.567
649.054,882.833
649.581,880.933
650.108,881.867
650.634,881.833
651.161,881.067
651.687,880.033
652.214,881.667
652.74,881.1
653.266,879.733
653.793,880.067
654.319,880.633
654.845,880.033
655.371,879.967
655.897,878.4
656.424,877.867
656.95,879.6
657.476,880.667
658.002,880.433
658.528,878.967
659.054,877.867
659.58,877.967
660.106,878.0
660.631,876.6
661.157,876.3
661.683,877.433
662.209,874.733
662.735,875.3
663.129,875.5

File: VLFR_08-PLA_nobio_Raman_faf6741e.csv
nm,Intensity
526.486,830.6
527.033,830.8
527.579,831.0
528.126,830.2
528.672,828.5
529.219,829.8
529.765,829.8
530.311,830.2
530.857,831.1
531.403,829.8
531.948,835.0
532.494,831.0
533.039,831.9
533.585,831.1
534.13,1004.5
534.675,994.1
535.22,960.6
535.764,957.0
536.309,951.2
536.854,949.1
537.398,946.7
537.942,949.3
538.486,940.5
539.03,940.1
539.574,939.1
540.118,938.4
540.662,947.3
541.205,947.8
541.749,938.6
542.292,942.9
542.835,948.2
543.378,960.1
543.921,966.7
544.464,954.8
545.006,949.0
545.549,948.7
546.091,946.0
546.634,950.6
547.176,953.1
547.718,951.8
548.26,949.9
548.802,959.9
549.343,961.5
549.885,958.6
550.426,960.4
550.968,961.6
551.509,964.2
552.05,971.0
552.591,973.3
553.132,969.4
553.673,965.7
554.214,976.3
554.754,972.3
555.295,972.3
555.835,967.7
556.375,970.0
556.915,967.2
557.455,988.9
557.995,1056.1
558.535,1000.0
559.075,977.8
559.614,983.7
560.154,980.8
560.693,974.9
561.232,974.1
561.772,974.5
562.311,981.3
562.85,988.1
563.388,1007.0
563.927,1001.2
564.466,990.4
565.004,1004.4
565.543,1007.5
566.081,1025.2
566.619,1004.9
567.157,994.8
567.695,992.3
568.233,998.3
568.771,1000.8
569.309,1002.2
569.846,995.6
570.384,1002.2
570.921,1000.3
571.458,1015.4
571.995,1020.2
572.532,1013.5
573.069,1012.7
573.606,1020.5
574.143,1017.0
574.68,1018.8
575.216,1010.6
575.753,1011.9
576.289,1024.3
576.825,1064.9
577.361,1033.5
577.897,1016.1
578.433,1014.8
578.969,1014.3
579.505,1009.5
580.041,1012.5
580.576,1008.8
581.112,1018.5
581.647,1016.6
582.183,1011.1
582.718,1014.7
583.253,1017.0
583.788,1018.0
584.323,1019.7
584.858,1023.0
585.392,1016.5
585.927,1026.7
586.462,1028.9
586.996,1060.8
587.53,1073.7
588.065,1038.4
588.599,1019.3
589.133,1027.5
589.667,1022.6
590.201,1021.1
590.735,1020.7
591.268,1022.3
591.802,1018.6
592.335,1019.1
592.869,1015.7
593.402,1018.3
593.936,1018.3
594.469,1021.2
595.002,1018.4
595.535,1021.7
596.068,1018.4
596.601,1026.3
597.133,1020.1
597.666,1025.4
598.199,1020.8
598.731,1020.3
599.264,1018.3
599.796,1015.6
600.328,1017.8
600.86,1020.4
601.393,1020.2
601.925,1024.4
602.457,1018.8
602.988,1018.2
603.52,1017.7
604.052,1016.9
604.583,1016.8
605.115,1018.5
605.646,1008.3
606.178,1006.4
606.709,1011.1
607.24,1012.5
607.771,1009.1
608.302,1011.9
608.833,1009.9
609.364,1013.4
609.895,1011.1
610.426,1009.9
610.957,1004.8
611.487,1012.1
612.018,1011.6
612.548,1019.2
613.078,1010.9
613.609,1011.6
614.139,1014.0
614.669,1017.5
615.199,1010.0
615.729,1014.2
616.259,1014.9
616.789,1010.2
617.319,1018.5
617.849,1019.9
618.378,1009.7
618.908,1012.9
619.437,1006.4
619.967,1015.0
620.496,1006.0
621.025,1007.2
621.555,1014.1
622.084,1009.6
622.613,1016.4
623.142,1020.8
623.671,1015.6
624.2,1014.0
624.729,1014.4
625.258,1009.1
625.786,1006.4
626.315,1009.5
626.844,1007.4
627.372,1004.1
627.901,1015.2
628.429,1066.6
628.957,1054.9
629.486,1059.2
630.014,1062.6
630.542,1096.9
631.07,1404.5
631.598,1228.1
632.126,1114.1
632.654,1086.9
633.182,1164.2
633.71,1137.7
634.237,1055.5
634.765,1015.6
635.293,1006.7
635.82,1000.2
636.348,998.5
636.875,992.5
637.403,998.9
637.93,994.1
638.458,991.5
638.985,989.1
639.512,984.9
640.039,991.1
640.566,989.2
641.093,994.5
641.62,990.4
642.147,990.3
642.674,985.6
643.201,982.0
643.728,985.6
644.255,979.1
644.781,977.2
645.308,978.0
645.835,974.9
646.361,975.1
646.888,974.8
647.414,980.6
647.941,977.4
648.467,971.8
648.993,974.6
649.52,970.8
650.046,972.0
650.572,970.6
651.098,964.4
651.625,969.6
652.151,966.3
652.677,967.8
653.203,964.4
653.729,967.3
654.255,963.3
654.78,964.3
655.306,963.6
655.832,963.3
656.358,965.8
656.884,962.6
657.409,960.0
657.935,962.1
658.461,964.8
658.986,959.5
659.512,962.6
660.037,967.6
660.563,959.6
661.088,963.0
661.614,959.0
662.139,953.2
662.664,955.2
663.058,957.8

File: VLFR_08-PLA_nobio_Raman_fb61b8c8.csv
nm,Intensity
526.486,830.1
527.033,827.5
527.579,829.8
528.126,827.9
528.672,830.0
529.219,829.0
529.765,828.8
530.311,828.9
530.857,829.6
531.403,829.7
531.948,831.8
532.494,831.5
533.039,829.7
533.585,829.4
534.13,1044.1
534.675,997.0
535.22,956.1
535.764,934.5
536.309,918.1
536.854,924.1
537.398,911.6
537.942,910.2
538.486,897.6
539.03,892.5
539.574,893.0
540.118,880.7
540.662,904.8
541.205,903.1
541.749,892.0
542.292,887.2
542.835,886.3
543.378,907.7
543.921,924.4
544.464,897.8
545.006,883.8
545.549,881.8
546.091,880.1
546.634,879.0
547.176,883.6
547.718,881.7
548.26,883.3
548.802,885.9
549.343,885.8
549.885,884.3
550.426,885.0
550.968,887.8
551.509,892.2
552.05,894.6
552.591,895.6
553.132,892.2
553.673,888.7
554.214,898.8
554.754,889.4
555.295,885.4
555.835,880.9
556.375,882.8
556.915,886.3
557.455,900.0
557.995,1018.2
558.535,926.0
559.075,904.2
559.614,895.5
560.154,891.7
560.693,891.7
561.232,885.0
561.772,885.8
562.311,884.2
562.85,897.6
563.388,933.7
563.927,913.0
564.466,897.7
565.004,919.4
565.543,915.4
566.081,946.3
566.619,916.0
567.157,892.1
567.695,895.0
568.233,899.1
568.771,896.4
569.309,900.0
569.846,894.6
570.384,895.9
570.921,900.6
571.458,910.0
571.995,917.6
572.532,905.9
573.069,912.9
573.606,912.4
574.143,909.2
574.68,925.2
575.216,897.6
575.753,896.3
576.289,914.6
576.825,980.0
577.361,924.2
577.897,899.7
578.433,894.2
578.969,894.9
579.505,894.9
580.041,897.0
580.576,896.1
581.112,893.7
581.647,897.8
582.183,894.8
582.718,892.9
583.253,896.6
583.788,895.7
584.323,892.1
584.858,895.2
585.392,898.6
585.927,898.8
586.462,908.9
586.996,952.3
587.53,969.7
588.065,924.7
588.599,898.7
589.133,897.1
589.667,892.3
590.201,896.6
590.735,895.7
591.268,892.0
591.802,891.1
592.335,893.1
592.869,891.0
593.402,892.9
593.936,890.8
594.469,892.0
595.002,893.6
595.535,893.4
596.068,894.2
596.601,892.6
597.133,892.5
597.666,892.9
598.199,891.2
598.731,893.8
599.264,895.1
599.796,893.8
600.328,892.7
600.86,891.5
601.393,890.8
601.925,893.8
602.457,890.5
602.988,890.7
603.52,891.8
604.052,890.7
604.583,888.7
605.115,890.9
605.646,889.3
606.178,886.3
606.709,886.3
607.24,881.8
607.771,889.8
608.302,885.2
608.833,886.5
609.364,887.7
609.895,888.9
610.426,888.8
610.957,886.8
611.487,887.4
612.018,886.2
612.548,888.8
613.078,887.1
613.609,886.1
614.139,891.0
614.669,888.3
615.199,885.5
615.729,890.4
616.259,888.1
616.789,889.5
617.319,887.8
617.849,889.8
618.378,888.1
618.908,886.0
619.437,887.5
619.967,886.8
620.496,888.5
621.025,888.1
621.555,886.2
622.084,886.5
622.613,895.2
623.142,905.2
623.671,896.3
624.2,893.6
624.729,888.3
625.258,884.5
625.786,886.5
626.315,886.8
626.844,885.9
627.372,890.8
627.901,900.4
628.429,970.9
628.957,958.2
629.486,953.5
630.014,960.8
630.542,1016.4
631.07,1442.3
631.598,1194.6
632.126,1031.3
632.654,1011.0
633.182,1114.1
633.71,1078.5
634.237,975.3
634.765,908.2
635.293,892.5
635.82,884.9
636.348,885.7
636.875,879.6
637.403,880.2
637.93,880.9
638.458,880.4
638.985,878.3
639.512,880.4
640.039,878.3
640.566,880.1
641.093,881.4
641.62,879.9
642.147,876.5
642.674,878.5
643.201,877.8
643.728,875.6
644.255,873.0
644.781,871.0
645.308,871.5
645.835,872.2
646.361,875.0
646.888,870.5
647.414,872.4
647.941,869.4
648.467,868.9
648.993,868.1
649.52,867.8
650.046,870.1
650.572,868.4
651.098,869.8
651.625,871.7
652.151,869.8
652.677,869.2
653.203,868.2
653.729,867.6
654.255,867.3
654.78,866.1
655.306,866.0
655.832,868.0
656.358,867.2
656.884,867.2
657.409,866.9
657.935,863.5
658.461,865.3
658.986,866.4
659.512,865.5
660.037,866.3
660.563,866.5
661.088,865.1
661.614,864.4
662.139,865.0
662.664,865.6
663.058,863.1