Folder: MPX_specDB/spectra (part 79)

File: VLFR_06-PET_bio_Raman_da42305d.csv
nm,Intensity
528.635,1842.3
529.14,1841.3
529.645,1841.4
530.151,1842.1
530.656,1844.8
531.161,1846.8
531.666,1889.8
532.171,3735.2
532.676,1851.0
533.181,1864.7
533.686,4786.2
534.191,11141.6
534.696,9014.3
535.201,6652.1
535.705,4965.6
536.21,3889.4
536.715,3477.2
537.219,3322.1
537.724,3274.3
538.228,3302.0
538.733,3287.5
539.237,3346.9
539.741,3603.7
540.246,3341.6
540.75,3114.3
541.254,2973.9
541.758,3002.9
542.262,3003.0
542.766,3049.4
543.27,3024.5
543.774,3118.8
544.278,3075.6
544.781,3085.4
545.285,3124.1
545.789,3141.7
546.292,3194.2
546.796,3193.5
547.299,3166.5
547.803,3263.0
548.306,3297.8
548.809,3290.1
549.313,3272.4
549.816,3281.8
550.319,3565.4
550.822,4117.0
551.325,3456.0
551.828,3447.0
552.331,3461.2
552.834,4149.4
553.337,3570.4
553.839,3556.9
554.342,3647.9
554.845,3653.2
555.347,3995.4
555.85,4326.9
556.352,4455.5
556.854,4590.5
557.357,5935.6
557.859,5254.8
558.361,4921.8
558.863,4550.8
559.365,4167.1
559.867,4079.0
560.369,3981.4
560.871,4137.8
561.373,4208.9
561.875,4294.6
562.377,4450.5
562.878,4607.1
563.38,4653.5
563.881,4514.4
564.383,4566.6
564.884,5043.2
565.386,5756.5
565.887,6160.7
566.388,5127.0
566.889,4677.2
567.391,5049.3
567.892,5333.7
568.393,4819.4
568.893,4813.1
569.394,4947.3
569.895,5248.3
570.396,5900.2
570.897,7308.8
571.397,8500.1
571.898,6731.6
572.398,5702.2
572.899,5346.8
573.399,5288.8
573.899,5499.3
574.399,5526.5
574.9,5495.4
575.4,6003.5
575.9,5620.4
576.4,6007.7
576.899,5966.3
577.399,5590.9
577.899,5455.1
578.399,5621.2
578.898,5491.3
579.398,5723.2
579.897,5622.4
580.397,5889.5
580.896,6133.7
581.396,6609.8
581.895,12583.2
582.394,11189.8
582.893,6242.4
583.392,6055.9
583.891,6216.7
584.39,6234.9
584.889,6377.1
585.387,8074.4
585.886,12939.7
586.385,10433.1
586.883,6840.9
587.382,6550.4
587.88,6386.1
588.379,6258.1
588.877,6356.4
589.375,6282.9
589.873,6346.0
590.371,6326.9
590.869,6229.5
591.367,6305.0
591.865,6431.8
592.363,6369.6
592.86,6347.6
593.358,6405.1
593.856,6409.2
594.353,6477.3
594.851,6427.6
595.348,6525.5
595.845,6652.5
596.342,6630.2
596.84,6733.0
597.337,6620.2
597.834,6647.5
598.331,6646.2
598.827,6663.1
599.324,6683.0
599.821,6702.8
600.318,6636.1
600.814,6652.8
601.311,6705.1
601.807,6750.5
602.303,6724.0
602.8,6796.7
603.296,6741.4
603.792,6693.9
604.288,6710.8
604.784,6842.6
605.28,6692.2
605.776,6799.2
606.272,6902.9
606.767,6882.1
607.263,6871.1
607.758,6802.4
608.254,6899.3
608.749,6844.5
609.244,6798.6
609.74,6805.4
610.235,6989.3
610.73,6871.5
611.225,6719.0
611.72,6972.9
612.215,6972.6
612.709,6935.9
613.204,6967.6
613.699,6990.0
614.193,6990.6
614.688,6992.5
615.182,6960.8
615.676,6971.1
616.171,7059.5
616.665,7093.0
617.159,7071.1
617.653,7171.0
618.147,7242.1
618.641,7181.5
619.134,7280.6
619.628,7090.5
620.122,7196.3
620.615,7239.4
621.109,7170.7
621.602,7453.4
622.095,7243.7
622.588,7458.6
623.082,7357.5
623.575,7367.8
624.068,7475.6
624.56,7510.2
625.053,7543.0
625.546,7506.3
626.039,7541.5
626.531,7574.8
627.024,7600.2
627.516,7702.5
628.008,7720.3
628.501,7873.9
628.993,8136.8
629.485,8133.0
629.977,8133.7
630.469,8135.3
630.961,8719.6
631.452,9782.1
631.944,10065.3
632.436,9352.1
632.927,8973.0
633.418,8804.1
633.91,8796.5
634.401,8708.2
634.892,8406.1
635.383,8643.5
635.874,9342.7
636.365,10509.6
636.856,9884.2
637.347,8921.7
637.837,8731.6
638.328,8804.8
638.818,8505.8
639.309,8551.3
639.799,8613.7
640.289,8519.8
640.78,8497.9
641.27,8529.2
641.76,8494.2
642.249,8601.0
642.739,8595.5
643.229,8443.6
643.719,8507.2
644.208,8786.6
644.698,8454.2
645.187,8535.5
645.676,8710.7
646.165,8668.5
646.655,8581.1
647.144,8569.9
647.633,8602.5
648.121,8672.4
648.61,8426.8
649.099,8605.6
649.587,8361.5
650.076,8397.9
650.564,8658.3
651.053,8470.2
651.541,8154.0
652.029,8177.1
652.517,8102.7
653.005,8100.9
653.493,7778.5
653.981,7985.7
654.468,7970.5
654.956,8100.1
655.444,7835.2
655.931,7906.9
656.418,7726.7
656.906,7678.1
657.393,7682.2
657.88,7470.0
658.367,7526.4
658.854,7498.7
659.341,7373.1
659.827,7258.1
660.314,7276.1
660.8,7242.6
661.044,7147.3

File: VLFR_06-PET_bio_Raman_db1deb89.csv
nm,Intensity
526.493,828.6
527.039,827.6
527.586,828.8
528.133,830.3
528.679,828.8
529.225,827.9
529.771,828.3
530.317,828.5
530.863,828.5
531.409,828.3
531.955,830.8
532.5,830.4
533.046,828.8
533.591,839.3
534.136,1997.9
534.681,1673.2
535.226,1363.0
535.771,1185.5
536.315,1072.4
536.86,1023.0
537.404,1008.5
537.948,1001.4
538.493,1006.7
539.037,1001.9
539.58,1016.3
540.124,1024.8
540.668,986.0
541.211,985.7
541.755,976.5
542.298,979.6
542.841,979.7
543.384,981.0
543.927,991.8
544.47,988.3
545.013,993.9
545.555,994.8
546.098,996.7
546.64,1003.5
547.182,1003.3
547.724,1010.5
548.266,1010.2
548.808,1012.9
549.35,1017.6
549.892,1021.1
550.433,1035.9
550.974,1044.3
551.516,1033.9
552.057,1045.5
552.598,1045.4
553.139,1070.6
553.68,1052.2
554.22,1053.8
554.761,1063.3
555.301,1073.6
555.842,1127.7
556.382,1128.3
556.922,1136.2
557.462,1268.7
558.002,1165.5
558.542,1162.5
559.082,1128.7
559.621,1105.7
560.161,1098.8
560.7,1107.0
561.239,1116.4
561.778,1114.4
562.317,1139.2
562.856,1152.4
563.395,1161.4
563.934,1146.2
564.472,1165.0
565.011,1201.8
565.549,1268.9
566.088,1275.7
566.626,1192.7
567.164,1176.4
567.702,1261.5
568.24,1192.0
568.777,1194.1
569.315,1202.7
569.853,1224.9
570.39,1275.7
570.927,1392.9
571.465,1507.0
572.002,1358.9
572.539,1270.0
573.076,1247.6
573.612,1247.7
574.149,1289.3
574.686,1264.4
575.222,1292.6
575.759,1279.3
576.295,1298.4
576.831,1326.3
577.367,1297.6
577.903,1289.3
578.439,1291.6
578.975,1299.3
579.511,1301.2
580.046,1307.9
580.582,1321.4
581.117,1337.2
581.653,1417.6
582.188,2515.7
582.723,1399.4
583.258,1347.5
583.793,1359.2
584.328,1367.7
584.863,1376.2
585.398,1481.7
585.932,1976.1
586.467,1754.6
587.001,1439.1
587.535,1405.4
588.07,1388.5
588.604,1391.0
589.138,1390.8
589.672,1396.8
590.206,1395.4
590.739,1407.1
591.273,1397.5
591.807,1408.2
592.34,1404.0
592.873,1403.4
593.407,1410.1
593.94,1417.7
594.473,1416.2
595.006,1425.7
595.539,1433.0
596.072,1437.4
596.605,1436.3
597.138,1442.2
597.67,1444.6
598.203,1454.4
598.735,1452.6
599.268,1457.4
599.8,1461.5
600.332,1449.7
600.865,1463.1
601.397,1448.9
601.929,1456.7
602.46,1463.7
602.992,1457.9
603.524,1469.3
604.056,1466.2
604.587,1462.6
605.119,1459.7
605.65,1444.7
606.182,1453.2
606.713,1464.4
607.244,1462.6
607.775,1461.9
608.306,1470.7
608.837,1473.7
609.368,1472.4
609.899,1472.9
610.43,1473.1
610.961,1472.4
611.491,1462.7
612.022,1485.2
612.552,1497.2
613.083,1510.2
613.613,1500.1
614.143,1517.9
614.673,1509.4
615.203,1511.2
615.734,1513.4
616.263,1518.0
616.793,1527.0
617.323,1531.7
617.853,1546.6
618.383,1563.7
618.912,1545.6
619.442,1543.1
619.971,1535.8
620.501,1539.3
621.03,1548.4
621.56,1549.2
622.089,1560.0
622.618,1567.0
623.147,1570.5
623.676,1590.9
624.205,1590.0
624.734,1601.3
625.263,1602.9
625.792,1610.1
626.321,1608.4
626.849,1616.8
627.378,1618.0
627.906,1619.8
628.435,1655.9
628.963,1688.5
629.492,1680.4
630.02,1680.2
630.548,1695.3
631.077,1758.9
631.605,1882.1
632.133,1901.1
632.661,1835.3
633.189,1791.2
633.717,1775.2
634.245,1749.2
634.773,1747.8
635.3,1772.9
635.828,1839.3
636.356,1961.9
636.883,1966.2
637.411,1832.5
637.938,1810.9
638.466,1815.7
638.993,1820.1
639.521,1834.1
640.048,1821.2
640.575,1845.3
641.103,1841.5
641.63,1845.5
642.157,1873.5
642.684,1865.5
643.211,1863.6
643.738,1856.1
644.265,1847.8
644.792,1863.3
645.319,1856.6
645.845,1873.2
646.372,1875.8
646.899,1893.5
647.425,1895.9
647.952,1899.4
648.479,1906.1
649.005,1899.4
649.532,1892.9
650.058,1907.4
650.585,1903.3
651.111,1904.4
651.637,1917.8
652.164,1919.8
652.69,1944.7
653.216,1926.4
653.742,1936.1
654.268,1936.4
654.794,1936.8
655.32,1943.5
655.846,1925.3
656.372,1938.8
656.898,1936.9
657.424,1948.3
657.95,1939.0
658.476,1948.4
659.002,1949.1
659.528,1949.1
660.053,1953.8
660.579,1940.2
661.105,1934.3
661.63,1940.8
662.156,1913.8
662.681,1935.8
663.076,1944.5

File: VLFR_06-PET_bio_Raman_dde33878.csv
nm,Intensity
526.508,832.1
527.055,830.8
527.602,828.3
528.149,830.7
528.695,830.3
529.241,829.9
529.787,829.6
530.334,830.5
530.879,828.7
531.425,830.8
531.971,832.8
532.516,829.8
533.062,830.6
533.607,838.8
534.152,1952.2
534.697,1626.0
535.242,1327.3
535.786,1145.6
536.331,1039.9
536.876,985.6
537.42,971.5
537.964,962.9
538.508,974.8
539.052,966.4
539.596,984.2
540.14,993.8
540.683,954.1
541.227,943.4
541.77,933.9
542.313,938.0
542.856,939.4
543.399,941.0
543.942,942.9
544.485,945.1
545.027,948.7
545.57,949.8
546.112,954.1
546.654,959.1
547.196,956.4
547.738,960.2
548.28,962.2
548.822,964.7
549.363,961.7
549.905,965.1
550.446,987.7
550.988,988.3
551.529,978.4
552.07,979.4
552.611,988.2
553.152,999.4
553.692,993.8
554.233,987.3
554.773,990.3
555.314,1002.6
555.854,1049.2
556.394,1059.5
556.934,1067.2
557.474,1195.1
558.014,1089.6
558.553,1087.7
559.093,1046.3
559.632,1021.2
560.172,1023.7
560.711,1026.3
561.25,1032.9
561.789,1036.8
562.328,1053.1
562.867,1060.1
563.406,1070.8
563.944,1061.4
564.483,1064.9
565.021,1109.3
565.559,1176.4
566.098,1174.3
566.636,1090.0
567.174,1074.3
567.711,1155.4
568.249,1089.4
568.787,1084.1
569.324,1088.7
569.862,1124.9
570.399,1164.9
570.936,1272.3
571.474,1393.6
572.011,1245.8
572.548,1151.4
573.084,1124.1
573.621,1129.1
574.158,1158.7
574.694,1137.9
575.231,1167.7
575.767,1149.0
576.303,1172.2
576.84,1188.4
577.376,1170.5
577.912,1152.9
578.447,1158.1
578.983,1157.2
579.519,1164.1
580.054,1165.5
580.59,1177.7
581.125,1189.4
581.661,1267.0
582.196,2377.5
582.731,1234.6
583.266,1205.3
583.801,1194.0
584.336,1203.5
584.87,1219.0
585.405,1322.4
585.94,1808.4
586.474,1567.4
587.008,1264.9
587.543,1238.2
588.077,1214.7
588.611,1220.1
589.145,1226.1
589.679,1215.7
590.213,1228.8
590.747,1220.5
591.28,1223.4
591.814,1223.5
592.347,1225.5
592.881,1223.9
593.414,1227.8
593.947,1224.6
594.48,1231.8
595.014,1240.3
595.547,1237.4
596.079,1244.7
596.612,1243.6
597.145,1245.1
597.678,1241.1
598.21,1258.4
598.743,1251.0
599.275,1262.4
599.807,1255.9
600.34,1263.2
600.872,1253.1
601.404,1249.4
601.936,1250.7
602.468,1252.3
603.0,1262.6
603.532,1258.5
604.063,1261.6
604.595,1262.7
605.126,1251.2
605.658,1253.3
606.189,1253.5
606.721,1250.2
607.252,1256.2
607.783,1257.4
608.314,1264.3
608.845,1259.4
609.376,1259.8
609.907,1260.6
610.438,1257.1
610.968,1265.6
611.499,1263.2
612.03,1261.6
612.56,1268.1
613.091,1275.6
613.621,1284.6
614.151,1288.6
614.681,1283.3
615.212,1294.6
615.742,1281.0
616.272,1286.9
616.802,1291.1
617.332,1302.0
617.861,1301.3
618.391,1310.9
618.921,1312.5
619.45,1301.6
619.98,1301.4
620.509,1302.3
621.039,1298.6
621.568,1308.2
622.097,1307.6
622.627,1312.7
623.156,1316.5
623.685,1321.3
624.214,1329.7
624.743,1341.6
625.272,1338.2
625.801,1345.5
626.33,1337.6
626.858,1340.7
627.387,1344.8
627.916,1360.6
628.444,1380.6
628.973,1399.8
629.501,1408.4
630.029,1401.2
630.558,1410.2
631.086,1478.2
631.614,1602.7
632.142,1588.0
632.67,1503.2
633.198,1491.4
633.726,1473.3
634.254,1449.9
634.782,1436.8
635.31,1445.7
635.838,1513.7
636.365,1643.3
636.893,1646.6
637.421,1504.6
637.948,1465.9
638.476,1462.8
639.003,1468.4
639.531,1471.5
640.058,1465.1
640.585,1475.5
641.113,1487.8
641.64,1490.4
642.167,1503.7
642.694,1512.0
643.221,1494.4
643.748,1488.5
644.275,1488.2
644.802,1492.2
645.329,1499.8
645.856,1506.9
646.382,1509.3
646.909,1505.5
647.436,1520.1
647.962,1518.6
648.489,1514.4
649.016,1514.3
649.542,1520.7
650.069,1517.4
650.595,1516.5
651.121,1524.6
651.648,1530.8
652.174,1528.8
652.7,1543.8
653.227,1538.2
653.753,1538.1
654.279,1539.2
654.805,1548.2
655.331,1546.1
655.857,1545.4
656.383,1541.2
656.909,1550.6
657.435,1545.8
657.961,1549.0
658.487,1546.4
659.013,1547.7
659.538,1552.4
660.064,1554.5
660.59,1545.2
661.116,1546.8
661.641,1552.2
662.167,1534.2
662.692,1544.4
663.087,1531.4

File: VLFR_06-PET_bio_Raman_ddfd29d2.csv
nm,Intensity
526.493,829.88
527.039,829.64
527.586,829.04
528.133,829.84
528.679,829.12
529.225,828.94
529.771,829.46
530.317,829.22
530.863,828.9
531.409,828.72
531.955,830.82
532.5,830.18
533.046,828.84
533.591,831.78
534.136,1165.04
534.681,1072.54
535.226,977.82
535.771,920.26
536.315,885.2
536.86,872.52
537.404,864.38
537.948,860.24
538.493,863.38
539.037,860.3
539.58,866.68
540.124,869.72
540.668,855.7
541.211,852.8
541.755,850.36
542.298,851.26
542.841,849.6
543.384,849.86
543.927,852.34
544.47,850.14
545.013,850.12
545.555,851.24
546.098,851.28
546.64,851.74
547.182,851.6
547.724,852.74
548.266,852.08
548.808,852.6
549.35,852.32
549.892,853.12
550.433,858.66
550.974,860.24
551.516,854.4
552.057,855.18
552.598,856.38
553.139,861.08
553.68,856.62
554.22,854.92
554.761,855.9
555.301,859.8
555.842,873.38
556.382,873.98
556.922,874.98
557.462,915.48
558.002,884.46
558.542,881.08
559.082,868.16
559.621,861.88
560.161,860.32
560.7,860.4
561.239,862.42
561.778,864.06
562.317,868.42
562.856,869.58
563.395,868.26
563.934,865.4
564.472,868.26
565.011,882.8
565.549,896.98
566.088,898.82
566.626,871.54
567.164,866.78
567.702,890.06
568.24,870.54
568.777,867.3
569.315,869.88
569.853,875.0
570.39,887.74
570.927,923.36
571.465,959.9
572.002,911.02
572.539,881.86
573.076,873.46
573.612,873.14
574.149,879.48
574.686,875.12
575.222,883.7
575.759,877.14
576.295,882.0
576.831,887.58
577.367,878.28
577.903,874.0
578.439,875.2
578.975,873.82
579.511,873.48
580.046,875.28
580.582,877.34
581.117,881.7
581.653,906.02
582.188,1254.72
582.723,897.56
583.258,880.86
583.793,879.44
584.328,880.54
584.863,884.0
585.398,909.08
585.932,1057.32
586.467,995.46
587.001,895.62
587.535,883.76
588.07,880.46
588.604,879.92
589.138,877.96
589.672,878.8
590.206,878.6
590.739,878.24
591.273,878.62
591.807,878.16
592.34,878.28
592.873,878.86
593.407,877.26
593.94,878.3
594.473,878.1
595.006,879.22
595.539,879.16
596.072,878.96
596.605,879.8
597.138,880.22
597.67,879.94
598.203,881.2
598.735,879.52
599.268,881.02
599.8,880.04
600.332,879.84
600.865,879.32
601.397,881.16
601.929,879.28
602.46,879.6
602.992,881.32
603.524,880.66
604.056,880.68
604.587,879.4
605.119,881.0
605.65,878.84
606.182,879.88
606.713,877.86
607.244,880.02
607.775,878.42
608.306,878.86
608.837,879.22
609.368,880.74
609.899,881.24
610.43,879.6
610.961,879.1
611.491,879.32
612.022,879.82
612.552,880.54
613.083,882.4
613.613,882.48
614.143,882.64
614.673,881.7
615.203,882.5
615.734,882.88
616.263,881.92
616.793,883.56
617.323,883.52
617.853,885.42
618.383,885.94
618.912,885.42
619.442,883.7
619.971,883.5
620.501,883.62
621.03,883.74
621.56,882.64
622.089,883.92
622.618,882.78
623.147,885.42
623.676,884.26
624.205,885.66
624.734,887.44
625.263,887.76
625.792,887.96
626.321,887.06
626.849,886.84
627.378,886.86
627.906,886.92
628.435,892.88
628.963,895.72
629.492,897.36
630.02,895.04
630.548,895.16
631.077,907.56
631.605,936.98
632.133,937.68
632.661,917.18
633.189,912.22
633.717,906.86
634.245,900.96
634.773,897.78
635.3,900.1
635.828,912.44
636.356,942.28
636.883,942.9
637.411,907.3
637.938,900.54
638.466,897.0
638.993,897.32
639.521,898.28
640.048,897.14
640.575,897.26
641.103,896.0
641.63,897.02
642.157,900.32
642.684,901.06
643.211,896.88
643.738,895.54
644.265,895.68
644.792,896.26
645.319,896.42
645.845,896.46
646.372,897.46
646.899,898.78
647.425,899.08
647.952,899.18
648.479,898.4
649.005,897.78
649.532,896.54
650.058,897.68
650.585,898.78
651.111,898.18
651.637,898.46
652.164,897.8
652.69,897.9
653.216,898.96
653.742,897.76
654.268,897.86
654.794,898.04
655.32,896.5
655.846,898.32
656.372,897.28
656.898,898.24
657.424,897.44
657.95,897.74
658.476,897.26
659.002,897.26
659.528,896.76
660.053,896.58
660.579,896.04
661.105,895.38
661.63,895.16
662.156,894.28
662.681,894.26
663.076,894.56

File: VLFR_06-PET_bio_Raman_de3eba68.csv
nm,Intensity
526.493,828.7
527.039,829.3
527.586,828.85
528.133,829.2
528.679,828.55
529.225,828.45
529.771,828.45
530.317,829.1
530.863,830.3
531.409,829.8
531.955,831.1
532.5,830.15
533.046,828.7
533.591,840.3
534.136,2130.3
534.681,1757.35
535.226,1394.35
535.771,1168.75
536.315,1030.1
536.86,977.1
537.404,949.4
537.948,939.4
538.493,945.0
539.037,940.0
539.58,955.5
540.124,961.0
540.668,918.65
541.211,903.1
541.755,899.15
542.298,898.15
542.841,896.35
543.384,893.65
543.927,905.45
544.47,897.6
545.013,900.55
545.555,900.55
546.098,898.65
546.64,900.65
547.182,901.7
547.724,904.85
548.266,905.55
548.808,909.4
549.35,905.4
549.892,906.6
550.433,924.25
550.974,932.8
551.516,913.5
552.057,914.4
552.598,922.45
553.139,941.35
553.68,922.05
554.22,916.9
554.761,918.65
555.301,936.6
555.842,984.45
556.382,990.9
556.922,997.7
557.462,1129.8
558.002,1021.3
558.542,1015.85
559.082,965.3
559.621,939.8
560.161,936.75
560.7,938.65
561.239,942.5
561.778,945.55
562.317,965.45
562.856,971.75
563.395,975.2
563.934,959.4
564.472,971.05
565.011,1014.55
565.549,1072.6
566.088,1074.9
566.626,988.05
567.164,968.7
567.702,1050.55
568.24,978.15
568.777,969.4
569.315,974.45
569.853,1005.05
570.39,1045.3
570.927,1168.6
571.465,1290.0
572.002,1129.5
572.539,1025.25
573.076,993.15
573.612,995.6
574.149,1025.65
574.686,1001.25
575.222,1031.5
575.759,1010.25
576.295,1030.75
576.831,1043.45
577.367,1011.55
577.903,999.35
578.439,1003.4
578.975,1001.0
579.511,1001.0
580.046,1008.25
580.582,1011.35
581.117,1036.6
581.653,1112.15
582.188,2260.65
582.723,1082.15
583.258,1031.1
583.793,1025.45
584.328,1028.5
584.863,1046.9
585.398,1131.15
585.932,1651.0
586.467,1421.1
587.001,1084.9
587.535,1045.1
588.07,1037.9
588.604,1037.25
589.138,1031.35
589.672,1029.6
590.206,1028.8
590.739,1026.9
591.273,1028.45
591.807,1035.45
592.34,1030.3
592.873,1030.0
593.407,1030.15
593.94,1031.55
594.473,1033.65
595.006,1036.3
595.539,1041.55
596.072,1037.85
596.605,1042.35
597.138,1042.75
597.67,1040.95
598.203,1046.25
598.735,1044.0
599.268,1041.55
599.8,1046.5
600.332,1040.3
600.865,1046.15
601.397,1044.15
601.929,1045.7
602.46,1046.05
602.992,1047.1
603.524,1047.3
604.056,1047.05
604.587,1046.25
605.119,1045.35
605.65,1046.35
606.182,1041.4
606.713,1039.5
607.244,1045.25
607.775,1046.1
608.306,1047.55
608.837,1048.5
609.368,1051.9
609.899,1048.6
610.43,1048.85
610.961,1049.9
611.491,1044.65
612.022,1052.95
612.552,1056.15
613.083,1059.5
613.613,1064.2
614.143,1061.95
614.673,1062.9
615.203,1064.25
615.734,1061.25
616.263,1062.6
616.793,1068.8
617.323,1070.25
617.853,1076.45
618.383,1085.0
618.912,1077.85
619.442,1070.1
619.971,1069.1
620.501,1064.4
621.03,1069.85
621.56,1067.65
622.089,1072.9
622.618,1078.35
623.147,1079.55
623.676,1086.55
624.205,1083.8
624.734,1093.95
625.263,1095.5
625.792,1094.2
626.321,1093.2
626.849,1091.5
627.378,1094.6
627.906,1096.6
628.435,1110.95
628.963,1143.55
629.492,1136.6
630.02,1135.4
630.548,1131.05
631.077,1193.35
631.605,1323.5
632.133,1306.55
632.661,1221.25
633.189,1203.6
633.717,1187.15
634.245,1170.8
634.773,1152.9
635.3,1160.15
635.828,1215.4
636.356,1326.25
636.883,1331.15
637.411,1204.05
637.938,1171.0
638.466,1161.75
638.993,1156.7
639.521,1167.15
640.048,1163.9
640.575,1159.85
641.103,1161.6
641.63,1170.6
642.157,1173.15
642.684,1178.25
643.211,1169.7
643.738,1164.9
644.265,1166.65
644.792,1168.6
645.319,1167.6
645.845,1169.8
646.372,1172.35
646.899,1180.3
647.425,1181.6
647.952,1176.3
648.479,1176.3
649.005,1178.25
649.532,1178.5
650.058,1172.45
650.585,1176.1
651.111,1181.4
651.637,1183.25
652.164,1183.6
652.69,1182.35
653.216,1185.15
653.742,1185.85
654.268,1189.6
654.794,1183.15
655.32,1179.45
655.846,1187.6
656.372,1183.45
656.898,1188.5
657.424,1186.65
657.95,1183.6
658.476,1184.0
659.002,1182.1
659.528,1180.85
660.053,1186.7
660.579,1180.7
661.105,1181.65
661.63,1177.55
662.156,1178.7
662.681,1177.7
663.076,1176.65

File: VLFR_06-PET_bio_Raman_e7e86831.csv
nm,Intensity
526.508,829.9
527.055,830.1
527.602,831.4
528.149,830.4
528.695,830.6
529.241,831.1
529.787,830.8
530.334,830.9
530.879,830.7
531.425,831.3
531.971,832.1
532.516,828.9
533.062,830.9
533.607,837.9
534.152,1908.7
534.697,1591.3
535.242,1303.4
535.786,1134.3
536.331,1026.0
536.876,989.1
537.42,967.4
537.964,962.4
538.508,972.6
539.052,966.2
539.596,980.6
540.14,987.5
540.683,952.0
541.227,942.6
541.77,942.0
542.313,943.4
542.856,944.5
543.399,941.9
543.942,954.8
544.485,948.5
545.027,950.3
545.57,958.4
546.112,955.2
546.654,956.4
547.196,962.7
547.738,960.0
548.28,963.0
548.822,964.3
549.363,961.9
549.905,971.1
550.446,983.4
550.988,992.2
551.529,980.6
552.07,982.6
552.611,989.5
553.152,1011.3
553.692,990.3
554.233,995.0
554.773,999.3
555.314,1006.7
555.854,1049.4
556.394,1057.4
556.934,1070.7
557.474,1189.9
558.014,1093.0
558.553,1089.9
559.093,1051.3
559.632,1027.1
560.172,1028.7
560.711,1028.8
561.25,1045.8
561.789,1045.0
562.328,1060.5
562.867,1069.7
563.406,1080.4
563.944,1063.1
564.483,1075.4
565.021,1124.0
565.559,1171.5
566.098,1186.3
566.636,1099.0
567.174,1084.6
567.711,1156.7
568.249,1094.1
568.787,1092.9
569.324,1097.9
569.862,1123.1
570.399,1167.5
570.936,1271.0
571.474,1374.4
572.011,1233.9
572.548,1153.8
573.084,1135.0
573.621,1134.6
574.158,1156.7
574.694,1143.0
575.231,1171.7
575.767,1148.7
576.303,1175.9
576.84,1196.7
577.376,1161.9
577.912,1151.0
578.447,1158.6
578.983,1163.2
579.519,1165.5
580.054,1167.4
580.59,1178.3
581.125,1192.2
581.661,1273.1
582.196,2304.7
582.731,1238.2
583.266,1196.9
583.801,1197.3
584.336,1209.1
584.87,1217.5
585.405,1314.1
585.94,1775.3
586.474,1530.1
587.008,1260.2
587.543,1223.6
588.077,1215.1
588.611,1210.0
589.145,1209.6
589.679,1218.0
590.213,1213.6
590.747,1212.1
591.28,1217.8
591.814,1217.8
592.347,1219.1
592.881,1219.6
593.414,1218.3
593.947,1215.2
594.48,1223.5
595.014,1220.6
595.547,1222.3
596.079,1231.7
596.612,1231.3
597.145,1236.0
597.678,1234.5
598.21,1237.6
598.743,1234.6
599.275,1236.8
599.807,1238.6
600.34,1232.1
600.872,1237.2
601.404,1243.0
601.936,1233.2
602.468,1230.4
603.0,1236.3
603.532,1235.7
604.063,1240.6
604.595,1237.3
605.126,1231.1
605.658,1220.1
606.189,1224.1
606.721,1225.5
607.252,1229.0
607.783,1226.1
608.314,1234.0
608.845,1238.8
609.376,1231.3
609.907,1233.7
610.438,1229.5
610.968,1232.0
611.499,1236.8
612.03,1242.3
612.56,1241.0
613.091,1252.6
613.621,1249.6
614.151,1237.2
614.681,1245.9
615.212,1253.9
615.742,1243.9
616.272,1248.9
616.802,1251.9
617.332,1253.5
617.861,1260.2
618.391,1260.4
618.921,1258.9
619.45,1250.2
619.98,1255.4
620.509,1246.8
621.039,1255.1
621.568,1258.1
622.097,1258.5
622.627,1259.7
623.156,1270.3
623.685,1271.2
624.214,1267.3
624.743,1275.9
625.272,1281.9
625.801,1274.2
626.33,1276.9
626.858,1273.7
627.387,1271.6
627.916,1280.0
628.444,1307.3
628.973,1325.5
629.501,1325.6
630.029,1321.6
630.558,1326.3
631.086,1380.3
631.614,1503.9
632.142,1490.0
632.67,1407.1
633.198,1398.8
633.726,1379.0
634.254,1350.5
634.782,1339.0
635.31,1353.2
635.838,1405.1
636.365,1501.8
636.893,1512.7
637.421,1387.2
637.948,1363.9
638.476,1347.9
639.003,1357.8
639.531,1349.7
640.058,1350.1
640.585,1345.3
641.113,1356.9
641.64,1363.7
642.167,1368.8
642.694,1361.5
643.221,1358.3
643.748,1358.5
644.275,1360.8
644.802,1353.1
645.329,1352.0
645.856,1361.8
646.382,1364.8
646.909,1364.0
647.436,1362.9
647.962,1368.7
648.489,1358.5
649.016,1359.1
649.542,1360.0
650.069,1366.8
650.595,1367.7
651.121,1367.2
651.648,1358.8
652.174,1367.0
652.7,1357.8
653.227,1356.2
653.753,1365.6
654.279,1356.6
654.805,1355.0
655.331,1364.7
655.857,1359.2
656.383,1353.5
656.909,1353.6
657.435,1368.2
657.961,1359.7
658.487,1364.6
659.013,1355.6
659.538,1358.1
660.064,1350.5
660.59,1350.9
661.116,1349.1
661.641,1328.4
662.167,1335.4
662.692,1335.9
663.087,1337.3