Folder: MPX_specDB/spectra (part 24)

File: VLFR_01-LDPE_nobio_Raman_923b8375.csv
nm,Intensity
526.486,829.8
527.033,830.0
527.579,830.2
528.126,827.9
528.672,827.9
529.219,829.6
529.765,828.9
530.311,829.7
530.857,829.5
531.403,829.0
531.948,829.4
532.494,829.1
533.039,828.2
533.585,829.0
534.13,872.6
534.675,867.6
535.22,860.6
535.764,856.4
536.309,853.2
536.854,851.6
537.398,849.9
537.942,852.9
538.486,849.9
539.03,850.5
539.574,847.9
540.118,844.4
540.662,845.3
541.205,845.9
541.749,844.2
542.292,845.1
542.835,847.4
543.378,845.4
543.921,844.6
544.464,844.1
545.006,842.8
545.549,842.7
546.091,843.8
546.634,844.8
547.176,843.5
547.718,844.2
548.26,841.2
548.802,841.4
549.343,840.6
549.885,843.7
550.426,842.9
550.968,840.6
551.509,842.7
552.05,841.0
552.591,841.6
553.132,840.1
553.673,844.1
554.214,842.8
554.754,842.8
555.295,842.4
555.835,842.5
556.375,844.7
556.915,846.2
557.455,847.4
557.995,848.3
558.535,849.4
559.075,848.3
559.614,846.5
560.154,845.6
560.693,846.7
561.232,845.6
561.772,847.0
562.311,848.2
562.85,851.7
563.388,850.2
563.927,874.9
564.466,862.2
565.004,857.0
565.543,858.5
566.081,888.5
566.619,858.9
567.157,850.8
567.695,855.1
568.233,850.4
568.771,849.7
569.309,852.7
569.846,851.5
570.384,854.8
570.921,855.4
571.458,889.8
571.995,872.4
572.532,860.2
573.069,856.9
573.606,856.0
574.143,859.4
574.68,854.8
575.216,856.8
575.753,882.1
576.289,913.1
576.825,893.0
577.361,879.7
577.897,862.1
578.433,862.9
578.969,862.7
579.505,864.1
580.041,862.3
580.576,868.8
581.112,866.8
581.647,867.7
582.183,872.2
582.718,874.3
583.253,875.1
583.788,877.6
584.323,877.7
584.858,877.5
585.392,878.2
585.927,884.7
586.462,885.2
586.996,885.2
587.53,887.9
588.065,888.0
588.599,891.2
589.133,894.9
589.667,898.7
590.201,899.3
590.735,906.2
591.268,904.5
591.802,904.5
592.335,909.0
592.869,909.9
593.402,907.9
593.936,906.9
594.469,912.7
595.002,918.3
595.535,919.1
596.068,914.4
596.601,920.6
597.133,923.2
597.666,921.5
598.199,924.0
598.731,927.3
599.264,925.0
599.796,927.5
600.328,927.6
600.86,923.8
601.393,925.5
601.925,924.5
602.457,922.0
602.988,924.2
603.52,919.7
604.052,917.2
604.583,910.8
605.115,910.1
605.646,901.4
606.178,907.7
606.709,902.3
607.24,901.6
607.771,897.8
608.302,898.6
608.833,896.0
609.364,899.5
609.895,893.4
610.426,891.2
610.957,893.0
611.487,889.3
612.018,892.1
612.548,891.3
613.078,888.3
613.609,887.0
614.139,888.5
614.669,884.2
615.199,890.2
615.729,885.0
616.259,884.7
616.789,884.7
617.319,883.1
617.849,884.3
618.378,881.5
618.908,882.3
619.437,882.4
619.967,884.9
620.496,882.9
621.025,883.5
621.555,884.5
622.084,894.8
622.613,892.1
623.142,881.5
623.671,877.8
624.2,876.8
624.729,875.5
625.258,876.2
625.786,880.2
626.315,892.5
626.844,968.1
627.372,1183.5
627.901,1060.8
628.429,1116.2
628.957,1103.5
629.486,1051.6
630.014,1008.7
630.542,992.4
631.07,936.8
631.598,897.5
632.126,883.7
632.654,876.8
633.182,874.4
633.71,873.1
634.237,867.7
634.765,869.3
635.293,867.1
635.82,871.2
636.348,866.6
636.875,870.7
637.403,869.0
637.93,866.4
638.458,868.1
638.985,867.8
639.512,868.4
640.039,869.8
640.566,869.1
641.093,870.5
641.62,871.2
642.147,870.3
642.674,870.1
643.201,871.1
643.728,871.1
644.255,870.9
644.781,870.7
645.308,873.0
645.835,871.1
646.361,869.7
646.888,873.1
647.414,871.8
647.941,870.8
648.467,870.9
648.993,868.6
649.52,871.0
650.046,871.9
650.572,869.8
651.098,873.8
651.625,868.2
652.151,872.8
652.677,869.2
653.203,869.9
653.729,871.3
654.255,869.1
654.78,870.0
655.306,867.9
655.832,868.8
656.358,868.1
656.884,867.1
657.409,868.7
657.935,866.4
658.461,863.9
658.986,867.7
659.512,862.5
660.037,862.8
660.563,863.3
661.088,860.6
661.614,860.2
662.139,861.7
662.664,858.6
663.058,857.0

File: VLFR_01-LDPE_nobio_Raman_965bc2ab.csv
nm,Intensity
526.486,829.7
527.033,829.7
527.579,827.0
528.126,828.6
528.672,829.1
529.219,830.2
529.765,828.2
530.311,829.3
530.857,827.8
531.403,829.0
531.948,829.3
532.494,830.0
533.039,828.1
533.585,828.2
534.13,1059.5
534.675,1085.2
535.22,1083.2
535.764,1100.4
536.309,1094.8
536.854,1098.3
537.398,1101.7
537.942,1096.4
538.486,1101.0
539.03,1103.1
539.574,1102.1
540.118,1108.4
540.662,1111.3
541.205,1114.8
541.749,1111.3
542.292,1118.4
542.835,1118.1
543.378,1123.9
543.921,1126.0
544.464,1134.1
545.006,1135.4
545.549,1135.8
546.091,1134.5
546.634,1134.7
547.176,1141.8
547.718,1138.6
548.26,1140.9
548.802,1146.9
549.343,1150.8
549.885,1154.9
550.426,1154.2
550.968,1158.6
551.509,1159.4
552.05,1166.1
552.591,1159.1
553.132,1162.2
553.673,1163.9
554.214,1176.1
554.754,1170.6
555.295,1168.1
555.835,1172.1
556.375,1172.4
556.915,1182.3
557.455,1179.3
557.995,1185.2
558.535,1181.7
559.075,1180.5
559.614,1182.3
560.154,1188.7
560.693,1189.8
561.232,1196.1
561.772,1189.2
562.311,1200.0
562.85,1197.9
563.388,1213.6
563.927,1210.6
564.466,1211.3
565.004,1216.0
565.543,1217.7
566.081,1219.1
566.619,1223.5
567.157,1218.5
567.695,1226.3
568.233,1223.2
568.771,1226.2
569.309,1239.9
569.846,1238.1
570.384,1245.8
570.921,1238.7
571.458,1244.7
571.995,1249.8
572.532,1258.8
573.069,1253.6
573.606,1269.2
574.143,1265.9
574.68,1261.0
575.216,1266.1
575.753,1265.9
576.289,1269.7
576.825,1272.0
577.361,1276.7
577.897,1269.3
578.433,1280.1
578.969,1284.7
579.505,1291.8
580.041,1294.6
580.576,1288.7
581.112,1285.5
581.647,1280.3
582.183,1288.1
582.718,1290.8
583.253,1287.6
583.788,1277.3
584.323,1285.0
584.858,1280.4
585.392,1287.0
585.927,1287.7
586.462,1288.4
586.996,1295.1
587.53,1291.9
588.065,1288.3
588.599,1286.5
589.133,1288.3
589.667,1289.7
590.201,1283.9
590.735,1288.3
591.268,1292.6
591.802,1289.9
592.335,1299.3
592.869,1284.1
593.402,1285.9
593.936,1292.1
594.469,1297.4
595.002,1299.9
595.535,1294.8
596.068,1299.4
596.601,1300.2
597.133,1297.6
597.666,1300.1
598.199,1301.0
598.731,1311.1
599.264,1316.0
599.796,1315.2
600.328,1304.2
600.86,1304.7
601.393,1303.9
601.925,1305.0
602.457,1308.5
602.988,1315.3
603.52,1323.5
604.052,1321.3
604.583,1313.0
605.115,1309.0
605.646,1300.4
606.178,1299.5
606.709,1305.0
607.24,1307.2
607.771,1306.1
608.302,1313.5
608.833,1316.0
609.364,1316.5
609.895,1315.1
610.426,1316.7
610.957,1313.2
611.487,1316.5
612.018,1321.4
612.548,1331.7
613.078,1328.8
613.609,1334.0
614.139,1332.1
614.669,1329.8
615.199,1338.6
615.729,1333.9
616.259,1338.1
616.789,1331.7
617.319,1347.4
617.849,1346.9
618.378,1341.3
618.908,1338.8
619.437,1347.2
619.967,1346.1
620.496,1334.0
621.025,1335.7
621.555,1342.0
622.084,1343.8
622.613,1347.7
623.142,1344.2
623.671,1353.0
624.2,1344.8
624.729,1354.1
625.258,1358.4
625.786,1350.2
626.315,1354.7
626.844,1351.7
627.372,1354.8
627.901,1337.0
628.429,1345.1
628.957,1350.0
629.486,1350.0
630.014,1351.8
630.542,1348.2
631.07,1344.5
631.598,1350.5
632.126,1347.2
632.654,1347.8
633.182,1349.6
633.71,1334.3
634.237,1337.8
634.765,1335.5
635.293,1343.2
635.82,1340.8
636.348,1340.4
636.875,1335.4
637.403,1343.5
637.93,1338.2
638.458,1339.0
638.985,1341.1
639.512,1334.4
640.039,1332.6
640.566,1335.8
641.093,1337.7
641.62,1334.1
642.147,1336.3
642.674,1333.5
643.201,1322.5
643.728,1320.3
644.255,1322.9
644.781,1320.4
645.308,1312.6
645.835,1318.6
646.361,1317.6
646.888,1310.7
647.414,1316.5
647.941,1319.2
648.467,1316.9
648.993,1323.4
649.52,1311.5
650.046,1312.7
650.572,1306.4
651.098,1317.4
651.625,1317.4
652.151,1327.4
652.677,1312.1
653.203,1313.8
653.729,1320.7
654.255,1321.4
654.78,1310.5
655.306,1321.1
655.832,1309.7
656.358,1313.5
656.884,1318.6
657.409,1316.4
657.935,1315.2
658.461,1324.8
658.986,1327.9
659.512,1330.9
660.037,1326.2
660.563,1326.4
661.088,1330.9
661.614,1328.0
662.139,1321.0
662.664,1326.3
663.058,1323.5

File: VLFR_01-LDPE_nobio_Raman_2902faad.csv
nm,Intensity
526.486,830.7
527.033,830.5
527.579,830.9
528.126,830.8
528.672,829.8
529.219,830.7
529.765,830.5
530.311,830.3
530.857,828.9
531.403,830.6
531.948,832.2
532.494,832.1
533.039,829.9
533.585,830.2
534.13,926.5
534.675,919.8
535.22,902.2
535.764,882.6
536.309,871.7
536.854,870.0
537.398,866.7
537.942,865.7
538.486,864.7
539.03,857.1
539.574,856.7
540.118,854.2
540.662,854.3
541.205,851.6
541.749,850.7
542.292,851.7
542.835,852.7
543.378,848.5
543.921,849.6
544.464,850.2
545.006,847.9
545.549,848.9
546.091,847.9
546.634,845.9
547.176,848.1
547.718,846.3
548.26,847.0
548.802,846.6
549.343,846.8
549.885,846.0
550.426,844.2
550.968,845.7
551.509,845.6
552.05,844.1
552.591,846.7
553.132,848.0
553.673,849.4
554.214,849.1
554.754,850.6
555.295,851.9
555.835,852.3
556.375,854.6
556.915,860.0
557.455,860.4
557.995,863.7
558.535,863.5
559.075,862.2
559.614,857.6
560.154,856.5
560.693,855.7
561.232,856.2
561.772,859.8
562.311,864.3
562.85,864.9
563.388,872.3
563.927,928.2
564.466,896.0
565.004,889.9
565.543,878.4
566.081,950.4
566.619,888.6
567.157,875.4
567.695,884.9
568.233,871.6
568.771,875.0
569.309,879.9
569.846,878.3
570.384,884.8
570.921,895.9
571.458,994.7
571.995,939.3
572.532,908.7
573.069,905.8
573.606,910.5
574.143,923.3
574.68,917.5
575.216,930.6
575.753,991.7
576.289,1123.4
576.825,1063.1
577.361,1039.6
577.897,987.6
578.433,1003.2
578.969,1016.9
579.505,1026.4
580.041,1044.5
580.576,1062.1
581.112,1080.9
581.647,1091.4
582.183,1111.7
582.718,1124.3
583.253,1142.2
583.788,1148.4
584.323,1166.6
584.858,1173.7
585.392,1186.3
585.927,1199.2
586.462,1213.7
586.996,1217.3
587.53,1234.7
588.065,1246.7
588.599,1246.4
589.133,1272.8
589.667,1266.8
590.201,1285.2
590.735,1290.3
591.268,1289.9
591.802,1303.2
592.335,1298.8
592.869,1296.4
593.402,1300.2
593.936,1303.3
594.469,1301.7
595.002,1318.9
595.535,1322.9
596.068,1330.8
596.601,1339.1
597.133,1362.6
597.666,1359.9
598.199,1388.5
598.731,1402.3
599.264,1417.4
599.796,1418.6
600.328,1428.2
600.86,1416.1
601.393,1423.0
601.925,1415.6
602.457,1418.0
602.988,1399.5
603.52,1388.8
604.052,1361.4
604.583,1345.2
605.115,1320.5
605.646,1297.5
606.178,1271.2
606.709,1247.2
607.24,1234.3
607.771,1214.3
608.302,1205.1
608.833,1195.8
609.364,1177.3
609.895,1175.6
610.426,1161.4
610.957,1153.2
611.487,1141.2
612.018,1132.4
612.548,1123.5
613.078,1130.8
613.609,1122.5
614.139,1106.4
614.669,1105.0
615.199,1093.3
615.729,1090.1
616.259,1079.9
616.789,1076.8
617.319,1086.2
617.849,1079.6
618.378,1078.7
618.908,1073.3
619.437,1076.0
619.967,1069.6
620.496,1064.6
621.025,1071.1
621.555,1083.3
622.084,1114.4
622.613,1117.9
623.142,1075.7
623.671,1064.9
624.2,1065.0
624.729,1062.4
625.258,1070.1
625.786,1074.9
626.315,1118.5
626.844,1406.3
627.372,2068.6
627.901,1683.4
628.429,1925.2
628.957,1734.8
629.486,1592.4
630.014,1449.1
630.542,1408.6
631.07,1250.4
631.598,1132.0
632.126,1105.5
632.654,1088.0
633.182,1079.0
633.71,1078.3
634.237,1080.5
634.765,1071.5
635.293,1075.9
635.82,1078.4
636.348,1074.0
636.875,1080.2
637.403,1077.4
637.93,1072.5
638.458,1079.8
638.985,1074.7
639.512,1083.7
640.039,1082.5
640.566,1083.7
641.093,1082.1
641.62,1087.6
642.147,1093.8
642.674,1094.6
643.201,1084.9
643.728,1089.8
644.255,1089.9
644.781,1090.8
645.308,1086.1
645.835,1091.3
646.361,1090.1
646.888,1085.1
647.414,1087.6
647.941,1086.8
648.467,1090.9
648.993,1089.4
649.52,1092.1
650.046,1092.0
650.572,1085.8
651.098,1087.7
651.625,1090.0
652.151,1083.7
652.677,1088.3
653.203,1095.2
653.729,1090.3
654.255,1098.3
654.78,1085.7
655.306,1093.0
655.832,1090.4
656.358,1082.3
656.884,1076.9
657.409,1074.1
657.935,1076.6
658.461,1063.9
658.986,1059.7
659.512,1051.1
660.037,1048.6
660.563,1037.0
661.088,1027.7
661.614,1021.8
662.139,1009.9
662.664,1006.2
663.058,999.7

File: VLFR_01-LDPE_nobio_Raman_4295a8be.csv
nm,Intensity
526.5,830.4
527.047,830.1
527.594,828.3
528.14,828.7
528.687,828.1
529.233,828.2
529.779,828.6
530.325,828.5
530.871,828.5
531.417,829.5
531.962,838.5
532.508,831.0
533.053,829.8
533.599,829.0
534.144,902.5
534.689,883.7
535.234,876.1
535.778,863.8
536.323,859.7
536.867,859.0
537.412,856.3
537.956,853.9
538.5,854.6
539.044,849.2
539.588,849.5
540.132,848.2
540.675,847.4
541.219,846.1
541.762,847.1
542.305,846.0
542.848,846.5
543.391,845.6
543.934,845.1
544.477,846.6
545.02,843.7
545.562,843.4
546.105,842.6
546.647,844.2
547.189,843.6
547.731,844.4
548.273,844.1
548.815,844.3
549.356,841.6
549.898,844.1
550.439,843.5
550.981,841.6
551.522,844.0
552.063,842.9
552.604,844.0
553.145,846.0
553.686,847.0
554.226,846.7
554.767,847.9
555.307,846.3
555.848,849.1
556.388,851.8
556.928,853.5
557.468,855.1
558.008,857.5
558.547,857.3
559.087,856.6
559.626,855.1
560.166,856.8
560.705,856.8
561.244,855.3
561.783,857.8
562.322,859.3
562.861,861.8
563.4,868.0
563.939,917.8
564.477,888.7
565.015,880.7
565.554,874.8
566.092,943.8
566.63,881.5
567.168,872.5
567.706,875.3
568.244,873.6
568.781,875.3
569.319,880.0
569.857,880.3
570.394,883.4
570.931,896.6
571.468,989.5
572.005,930.6
572.542,907.9
573.079,909.3
573.616,910.9
574.153,925.4
574.689,926.1
575.226,939.9
575.762,984.1
576.298,1079.5
576.834,1041.7
577.371,1024.9
577.907,1005.1
578.442,1020.1
578.978,1039.2
579.514,1057.4
580.049,1079.5
580.585,1096.0
581.12,1114.0
581.656,1129.4
582.191,1150.7
582.726,1167.4
583.261,1167.8
583.796,1181.9
584.331,1194.5
584.865,1201.6
585.4,1221.0
585.935,1231.2
586.469,1240.9
587.004,1269.1
587.538,1271.3
588.072,1287.5
588.606,1290.4
589.14,1318.3
589.674,1330.3
590.208,1357.2
590.742,1372.2
591.275,1386.4
591.809,1403.2
592.342,1413.9
592.876,1419.2
593.409,1428.6
593.942,1427.1
594.476,1449.1
595.009,1453.9
595.542,1468.9
596.075,1469.8
596.607,1482.0
597.14,1489.3
597.673,1500.0
598.205,1512.7
598.738,1532.4
599.27,1542.5
599.803,1541.3
600.335,1540.4
600.867,1532.8
601.399,1542.9
601.931,1529.4
602.463,1524.8
602.995,1499.3
603.527,1503.6
604.058,1461.7
604.59,1446.1
605.122,1417.1
605.653,1382.5
606.184,1356.8
606.716,1340.6
607.247,1318.1
607.778,1305.0
608.309,1294.8
608.84,1275.1
609.371,1278.3
609.902,1257.2
610.433,1237.6
610.964,1228.5
611.494,1232.0
612.025,1210.7
612.556,1210.5
613.086,1206.3
613.616,1202.9
614.147,1192.3
614.677,1184.5
615.207,1173.0
615.737,1169.0
616.267,1164.3
616.797,1159.2
617.327,1154.1
617.857,1145.2
618.387,1145.2
618.917,1140.8
619.446,1133.4
619.976,1130.3
620.505,1127.5
621.035,1130.2
621.564,1137.5
622.093,1155.1
622.623,1154.0
623.152,1135.7
623.681,1126.5
624.21,1120.6
624.739,1119.9
625.268,1124.3
625.797,1129.0
626.326,1151.6
626.855,1344.8
627.383,1746.7
627.912,1509.9
628.441,1697.1
628.969,1612.6
629.498,1509.7
630.026,1410.1
630.554,1388.5
631.083,1267.1
631.611,1192.0
632.139,1176.9
632.667,1166.5
633.195,1163.2
633.724,1155.0
634.252,1161.5
634.779,1155.3
635.307,1164.9
635.835,1161.7
636.363,1161.0
636.891,1164.9
637.418,1167.7
637.946,1165.1
638.474,1167.0
639.001,1170.7
639.529,1169.7
640.056,1178.0
640.583,1175.3
641.111,1184.2
641.638,1183.2
642.165,1189.8
642.692,1189.0
643.22,1198.2
643.747,1194.0
644.274,1190.4
644.801,1189.6
645.328,1196.5
645.854,1200.6
646.381,1201.6
646.908,1195.5
647.435,1201.7
647.962,1202.9
648.488,1189.6
649.015,1193.1
649.542,1199.5
650.068,1194.8
650.595,1196.5
651.121,1188.5
651.648,1189.3
652.174,1189.4
652.7,1188.3
653.227,1186.7
653.753,1186.8
654.279,1177.4
654.805,1186.8
655.331,1179.4
655.858,1166.1
656.384,1170.8
656.91,1169.0
657.436,1155.9
657.962,1151.0
658.488,1148.1
659.013,1135.5
659.539,1125.2
660.065,1121.0
660.591,1102.0
661.117,1093.6
661.642,1085.4
662.168,1081.9
662.694,1068.8
663.088,1061.8

File: VLFR_01-LDPE_nobio_Raman_5489cf5d.csv
nm,Intensity
526.532,833.2
527.079,833.5
527.625,833.65
528.172,832.9
528.718,833.9
529.265,833.2
529.811,834.0
530.357,833.1
530.903,833.8
531.449,833.8
531.994,840.7
532.54,833.25
533.085,833.0
533.63,834.6
534.176,914.1
534.721,899.1
535.266,884.9
535.81,873.15
536.355,866.7
536.9,865.35
537.444,863.25
537.988,862.4
538.533,860.4
539.077,857.8
539.621,853.85
540.165,854.1
540.708,854.0
541.252,851.45
541.795,850.95
542.339,851.3
542.882,849.35
543.425,851.3
543.968,849.25
544.511,848.0
545.054,848.2
545.597,849.2
546.139,849.8
546.682,848.4
547.224,849.4
547.766,848.95
548.308,848.65
548.85,846.25
549.392,847.5
549.934,847.35
550.475,847.05
551.017,847.75
551.558,846.8
552.1,848.7
552.641,847.9
553.182,849.3
553.723,849.5
554.264,851.45
554.804,852.1
555.345,852.3
555.885,854.95
556.426,855.35
556.966,857.85
557.506,859.7
558.046,861.65
558.586,864.0
559.126,861.3
559.665,860.45
560.205,859.3
560.745,858.6
561.284,859.25
561.823,861.8
562.362,864.55
562.901,867.1
563.44,871.8
563.979,936.2
564.518,890.5
565.056,881.65
565.595,880.3
566.133,940.1
566.671,882.45
567.21,877.7
567.748,879.1
568.285,879.8
568.823,877.95
569.361,882.05
569.899,883.55
570.436,888.25
570.974,897.0
571.511,1018.65
572.048,926.8
572.585,909.0
573.122,907.6
573.659,913.7
574.196,919.65
574.733,916.1
575.269,928.4
575.806,970.9
576.342,1083.85
576.878,1037.35
577.414,1014.05
577.951,989.2
578.486,1001.65
579.022,1010.35
579.558,1023.65
580.094,1041.5
580.629,1056.45
581.165,1075.8
581.7,1087.4
582.236,1102.05
582.771,1118.85
583.306,1136.35
583.841,1150.6
584.376,1163.65
584.911,1177.8
585.445,1192.1
585.98,1207.5
586.514,1232.3
587.049,1252.35
587.583,1274.75
588.117,1296.1
588.651,1313.65
589.186,1339.1
589.72,1355.95
590.253,1371.95
590.787,1395.1
591.321,1412.8
591.854,1424.6
592.388,1426.2
592.921,1437.95
593.455,1444.9
593.988,1450.9
594.521,1462.5
595.054,1475.6
595.587,1487.15
596.12,1508.45
596.653,1530.9
597.186,1543.3
597.718,1564.7
598.251,1587.05
598.783,1610.75
599.316,1632.45
599.848,1640.6
600.38,1654.3
600.912,1639.7
601.444,1634.55
601.976,1638.5
602.508,1611.0
603.04,1600.4
603.572,1581.35
604.103,1551.7
604.635,1521.1
605.167,1479.85
605.698,1448.05
606.229,1424.7
606.761,1389.2
607.292,1371.7
607.823,1354.8
608.354,1331.35
608.885,1315.35
609.416,1298.2
609.947,1285.2
610.477,1270.7
611.008,1261.65
611.539,1252.7
612.069,1240.7
612.6,1238.55
613.13,1230.8
613.66,1216.95
614.19,1214.5
614.721,1200.95
615.251,1192.95
615.781,1180.3
616.311,1178.85
616.841,1169.0
617.37,1166.35
617.9,1163.0
618.43,1155.0
618.96,1150.4
619.489,1143.55
620.019,1145.1
620.548,1136.6
621.077,1144.1
621.607,1153.3
622.136,1179.1
622.665,1173.15
623.194,1140.9
623.723,1131.2
624.252,1127.45
624.781,1124.9
625.31,1129.5
625.839,1136.9
626.368,1169.8
626.896,1485.35
627.425,1910.65
627.953,1610.95
628.482,1939.3
629.01,1668.35
629.539,1546.3
630.067,1436.75
630.596,1401.95
631.124,1257.0
631.652,1189.45
632.18,1160.45
632.708,1149.85
633.236,1148.0
633.764,1145.95
634.292,1147.45
634.82,1150.2
635.348,1146.9
635.876,1150.6
636.403,1152.45
636.931,1154.8
637.459,1153.65
637.986,1159.95
638.514,1156.45
639.041,1166.5
639.568,1168.25
640.096,1173.25
640.623,1180.75
641.15,1186.35
641.678,1189.35
642.205,1190.55
642.732,1195.9
643.259,1188.5
643.786,1199.5
644.313,1194.65
644.84,1195.5
645.367,1195.6
645.894,1195.65
646.421,1197.45
646.948,1198.9
647.474,1198.6
648.001,1194.45
648.528,1196.4
649.054,1194.8
649.581,1192.65
650.108,1197.9
650.634,1197.15
651.161,1195.1
651.687,1195.25
652.214,1203.75
652.74,1203.4
653.266,1205.7
653.793,1206.25
654.319,1200.85
654.845,1201.15
655.371,1204.0
655.897,1195.05
656.424,1191.3
656.95,1187.7
657.476,1178.15
658.002,1175.2
658.528,1160.95
659.054,1153.3
659.58,1144.35
660.106,1132.05
660.631,1120.7
661.157,1110.25
661.683,1096.4
662.209,1087.6
662.735,1080.35
663.129,1071.85

File: VLFR_01-LDPE_nobio_Raman_8904a079.csv
nm,Intensity
526.5,829.6
527.047,827.7
527.594,829.0
528.14,829.8
528.687,829.1
529.233,828.6
529.779,829.8
530.325,829.7
530.871,829.6
531.417,828.2
531.962,833.7
532.508,830.4
533.053,829.7
533.599,830.2
534.144,905.6
534.689,895.9
535.234,882.5
535.778,869.9
536.323,863.4
536.867,858.3
537.412,859.2
537.956,857.6
538.5,856.0
539.044,853.0
539.588,850.9
540.132,848.0
540.675,850.6
541.219,848.4
541.762,846.2
542.305,845.2
542.848,846.2
543.391,846.2
543.934,846.8
544.477,845.3
545.02,845.8
545.562,846.2
546.105,845.6
546.647,843.7
547.189,845.8
547.731,846.3
548.273,843.6
548.815,842.4
549.356,843.5
549.898,843.1
550.439,844.2
550.981,842.7
551.522,844.2
552.063,844.2
552.604,844.5
553.145,846.5
553.686,848.1
554.226,848.2
554.767,848.3
555.307,849.5
555.848,849.5
556.388,853.9
556.928,856.1
557.468,856.0
558.008,857.8
558.547,860.5
559.087,857.4
559.626,855.5
560.166,854.9
560.705,857.8
561.244,853.5
561.783,859.2
562.322,859.3
562.861,862.1
563.4,869.0
563.939,920.8
564.477,887.5
565.015,884.1
565.554,877.6
566.092,928.7
566.63,883.4
567.168,879.9
567.706,879.4
568.244,877.7
568.781,877.7
569.319,881.9
569.857,885.2
570.394,892.9
570.931,897.8
571.468,990.4
572.005,933.8
572.542,918.8
573.079,914.4
573.616,915.1
574.153,932.3
574.689,933.6
575.226,942.7
575.762,989.0
576.298,1105.4
576.834,1061.2
577.371,1045.4
577.907,1022.5
578.442,1032.6
578.978,1052.6
579.514,1067.0
580.049,1085.3
580.585,1105.8
581.12,1119.9
581.656,1137.5
582.191,1153.8
582.726,1171.2
583.261,1186.1
583.796,1202.8
584.331,1220.3
584.865,1244.7
585.4,1256.6
585.935,1284.6
586.469,1318.7
587.004,1344.2
587.538,1378.9
588.072,1409.4
588.606,1437.8
589.14,1476.3
589.674,1496.2
590.208,1540.1
590.742,1578.0
591.275,1595.6
591.809,1626.7
592.342,1620.3
592.876,1645.9
593.409,1657.3
593.942,1672.8
594.476,1676.3
595.009,1702.1
595.542,1696.5
596.075,1712.7
596.607,1727.4
597.14,1743.5
597.673,1751.4
598.205,1764.4
598.738,1785.6
599.27,1800.1
599.803,1794.8
600.335,1795.5
600.867,1789.6
601.399,1773.6
601.931,1771.0
602.463,1758.0
602.995,1738.6
603.527,1717.9
604.058,1677.7
604.59,1656.3
605.122,1611.6
605.653,1573.1
606.184,1539.9
606.716,1493.5
607.247,1474.0
607.778,1448.0
608.309,1436.7
608.84,1413.4
609.371,1391.3
609.902,1378.9
610.433,1360.9
610.964,1348.6
611.494,1329.0
612.025,1315.4
612.556,1309.3
613.086,1309.8
613.616,1303.0
614.147,1289.6
614.677,1281.8
615.207,1258.5
615.737,1258.7
616.267,1246.2
616.797,1237.9
617.327,1232.4
617.857,1221.1
618.387,1219.7
618.917,1208.0
619.446,1207.7
619.976,1201.3
620.505,1198.1
621.035,1193.9
621.564,1205.1
622.093,1231.6
622.623,1228.9
623.152,1198.5
623.681,1184.8
624.21,1184.1
624.739,1184.0
625.268,1188.6
625.797,1190.3
626.326,1219.1
626.855,1512.1
627.383,2015.2
627.912,1669.2
628.441,1949.4
628.969,1738.7
629.498,1619.1
630.026,1497.1
630.554,1480.4
631.083,1336.0
631.611,1257.5
632.139,1230.2
632.667,1219.4
633.195,1216.1
633.724,1221.8
634.252,1213.0
634.779,1216.8
635.307,1216.0
635.835,1237.1
636.363,1238.5
636.891,1243.9
637.418,1237.5
637.946,1248.4
638.474,1252.4
639.001,1264.4
639.529,1266.3
640.056,1279.8
640.583,1291.6
641.111,1291.3
641.638,1298.2
642.165,1309.4
642.692,1315.3
643.22,1313.6
643.747,1318.0
644.274,1331.6
644.801,1335.9
645.328,1323.1
645.854,1330.8
646.381,1331.6
646.908,1330.0
647.435,1334.8
647.962,1329.7
648.488,1336.9
649.015,1318.5
649.542,1322.4
650.068,1317.8
650.595,1310.9
651.121,1311.2
651.648,1303.7
652.174,1308.8
652.7,1300.0
653.227,1292.2
653.753,1298.5
654.279,1291.9
654.805,1292.4
655.331,1283.6
655.858,1273.2
656.384,1265.8
656.91,1256.1
657.436,1250.1
657.962,1249.2
658.488,1229.6
659.013,1222.5
659.539,1206.7
660.065,1208.1
660.591,1184.2
661.117,1175.3
661.642,1159.1
662.168,1143.5
662.694,1131.2
663.088,1123.4