Folder: MPX_specDB/spectra (part 155)

File: VLFR_08-PLA_nobio_Raman_b70dbb38.csv
nm,Intensity
526.486,829.6
527.033,830.4
527.579,830.4
528.126,831.5
528.672,830.4
529.219,829.0
529.765,829.5
530.311,829.5
530.857,830.8
531.403,830.2
531.948,831.4
532.494,831.7
533.039,829.2
533.585,832.2
534.13,931.5
534.675,915.9
535.22,898.0
535.764,892.3
536.309,884.6
536.854,887.1
537.398,880.3
537.942,881.9
538.486,879.2
539.03,873.3
539.574,874.7
540.118,872.3
540.662,880.7
541.205,881.8
541.749,878.2
542.292,872.7
542.835,875.2
543.378,884.9
543.921,895.1
544.464,878.1
545.006,873.7
545.549,871.2
546.091,875.5
546.634,874.9
547.176,874.7
547.718,874.4
548.26,874.1
548.802,874.6
549.343,879.2
549.885,877.0
550.426,877.5
550.968,877.9
551.509,878.4
552.05,880.8
552.591,881.9
553.132,881.9
553.673,882.9
554.214,884.6
554.754,883.3
555.295,880.6
555.835,879.6
556.375,881.0
556.915,882.7
557.455,888.2
557.995,935.8
558.535,896.8
559.075,889.4
559.614,890.3
560.154,889.2
560.693,887.5
561.232,882.8
561.772,884.3
562.311,884.5
562.85,890.5
563.388,909.1
563.927,896.5
564.466,894.2
565.004,899.3
565.543,897.4
566.081,917.3
566.619,898.9
567.157,889.1
567.695,893.4
568.233,893.3
568.771,894.9
569.309,894.6
569.846,895.3
570.384,895.3
570.921,897.2
571.458,901.0
571.995,903.2
572.532,902.7
573.069,902.4
573.606,906.8
574.143,905.0
574.68,905.9
575.216,898.8
575.753,898.5
576.289,907.3
576.825,936.2
577.361,913.7
577.897,901.2
578.433,903.2
578.969,899.4
579.505,901.6
580.041,899.4
580.576,899.0
581.112,898.0
581.647,901.9
582.183,901.2
582.718,900.7
583.253,903.0
583.788,900.6
584.323,901.3
584.858,902.1
585.392,902.6
585.927,901.0
586.462,907.5
586.996,927.1
587.53,937.1
588.065,915.7
588.599,902.2
589.133,901.9
589.667,901.9
590.201,902.9
590.735,905.0
591.268,905.6
591.802,905.2
592.335,901.6
592.869,902.7
593.402,902.6
593.936,906.0
594.469,903.1
595.002,906.8
595.535,905.5
596.068,906.0
596.601,905.7
597.133,905.5
597.666,903.9
598.199,909.3
598.731,911.6
599.264,910.7
599.796,912.7
600.328,909.1
600.86,910.4
601.393,911.3
601.925,909.8
602.457,909.8
602.988,913.2
603.52,916.0
604.052,916.0
604.583,912.7
605.115,912.4
605.646,907.0
606.178,912.9
606.709,908.9
607.24,913.6
607.771,915.0
608.302,917.4
608.833,918.6
609.364,919.4
609.895,919.9
610.426,917.6
610.957,917.5
611.487,921.6
612.018,921.0
612.548,923.5
613.078,925.0
613.609,932.3
614.139,933.8
614.669,928.5
615.199,926.1
615.729,929.1
616.259,932.3
616.789,929.2
617.319,933.6
617.849,932.5
618.378,930.8
618.908,931.8
619.437,931.2
619.967,933.5
620.496,932.2
621.025,935.4
621.555,935.1
622.084,934.7
622.613,935.1
623.142,942.5
623.671,938.4
624.2,938.5
624.729,932.7
625.258,930.8
625.786,932.0
626.315,936.3
626.844,937.4
627.372,936.8
627.901,940.8
628.429,968.6
628.957,960.9
629.486,963.5
630.014,967.5
630.542,992.7
631.07,1160.0
631.598,1055.7
632.126,995.9
632.654,982.8
633.182,1024.0
633.71,1007.8
634.237,966.2
634.765,943.5
635.293,930.5
635.82,934.5
636.348,929.5
636.875,930.4
637.403,930.7
637.93,929.9
638.458,924.2
638.985,925.2
639.512,924.0
640.039,925.6
640.566,921.2
641.093,922.1
641.62,925.2
642.147,922.9
642.674,920.4
643.201,920.5
643.728,917.5
644.255,917.9
644.781,916.0
645.308,916.7
645.835,916.0
646.361,916.9
646.888,915.7
647.414,911.3
647.941,911.5
648.467,912.7
648.993,908.9
649.52,909.3
650.046,912.5
650.572,908.5
651.098,906.1
651.625,906.6
652.151,905.7
652.677,910.4
653.203,908.6
653.729,910.5
654.255,905.3
654.78,905.3
655.306,903.0
655.832,901.9
656.358,908.2
656.884,903.9
657.409,901.3
657.935,903.5
658.461,902.8
658.986,902.6
659.512,901.4
660.037,902.7
660.563,902.5
661.088,898.2
661.614,899.1
662.139,898.2
662.664,897.7
663.058,897.6

File: VLFR_08-PLA_nobio_Raman_bc328dfe.csv
cm-1,Intensity
-123.878,1853.65
-105.821,1851.8
-87.8007,1853.25
-69.8161,1852.95
-51.8675,1852.6
-33.9547,1853.75
-16.0776,1874.1
1.76388,2878.9
19.5698,1852.95
37.3403,1854.3
55.0755,1936.5
72.7754,2162.75
90.4402,2149.0
108.07,2157.0
125.665,2159.5
143.225,2138.9
160.75,2145.95
178.241,2141.0
195.697,2159.25
213.119,2140.4
230.506,2137.75
247.859,2147.5
265.178,2146.75
282.463,2154.65
299.713,2173.15
316.93,2166.85
334.113,2174.4
351.263,2172.75
368.379,2179.75
385.461,2201.15
402.51,2237.2
419.526,2206.4
436.508,2187.6
453.458,2192.9
470.374,2201.65
487.257,2193.85
504.107,2208.15
520.925,2213.55
537.71,2204.95
554.462,2219.45
571.182,2226.45
587.87,2225.45
604.525,2230.2
621.148,2215.2
637.739,2245.95
654.297,2240.7
670.824,2251.4
687.319,2249.4
703.782,2242.8
720.213,2257.45
736.613,2266.65
752.981,2269.95
769.317,2276.85
785.623,2266.45
801.897,2264.4
818.139,2261.6
834.351,2266.15
850.532,2284.4
866.681,2404.0
882.8,2367.05
898.888,2304.7
914.945,2291.75
930.972,2288.55
946.968,2293.4
962.934,2317.45
978.869,2306.65
994.774,2303.25
1010.65,2295.95
1026.49,2320.9
1042.31,2360.5
1058.09,2331.25
1073.85,2331.6
1089.57,2357.3
1105.27,2352.0
1120.93,2370.5
1136.57,2373.05
1152.18,2337.55
1167.75,2334.9
1183.3,2347.4
1198.82,2340.75
1214.31,2351.65
1229.77,2355.0
1245.2,2339.85
1260.6,2348.2
1275.97,2335.3
1291.32,2392.9
1306.63,2373.8
1321.92,2382.7
1337.18,2384.0
1352.41,2378.3
1367.61,2382.4
1382.78,2382.45
1397.93,2373.3
1413.05,2350.75
1428.14,2387.1
1443.2,2429.3
1458.23,2434.35
1473.23,2392.95
1488.21,2369.9
1503.16,2362.1
1518.08,2360.25
1532.97,2369.4
1547.84,2370.4
1562.68,2369.3
1577.49,2375.9
1592.27,2384.4
1607.03,2381.45
1621.76,2377.4
1636.46,2371.5
1651.14,2387.3
1665.78,2379.7
1680.41,2386.8
1695.0,2362.9
1709.57,2371.1
1724.11,2375.25
1738.62,2379.0
1753.11,2422.0
1767.57,2443.65
1782.01,2400.35
1796.41,2368.05
1810.8,2351.95
1825.15,2345.3
1839.48,2352.45
1853.79,2367.05
1868.06,2359.25
1882.31,2369.85
1896.54,2367.9
1910.74,2356.6
1924.91,2358.7
1939.06,2355.4
1953.19,2366.2
1967.28,2353.8
1981.35,2340.3
1995.4,2363.9
2009.42,2358.05
2023.42,2375.2
2037.39,2369.1
2051.33,2360.95
2065.25,2365.55
2079.15,2376.05
2093.01,2363.75
2106.86,2364.2
2120.68,2363.3
2134.47,2375.65
2148.24,2373.65
2161.99,2376.85
2175.71,2369.15
2189.41,2366.65
2203.08,2372.2
2216.73,2359.25
2230.35,2360.75
2243.95,2378.95
2257.52,2360.95
2271.07,2372.45
2284.6,2379.6
2298.1,2339.75
2311.58,2361.5
2325.03,2359.85
2338.46,2354.95
2351.87,2343.3
2365.25,2353.35
2378.61,2351.15
2391.94,2362.45
2405.26,2367.9
2418.54,2353.55
2431.81,2346.4
2445.05,2344.05
2458.27,2331.75
2471.46,2358.2
2484.63,2347.4
2497.78,2345.3
2510.9,2340.25
2524.0,2334.6
2537.08,2338.35
2550.14,2336.8
2563.17,2320.5
2576.18,2339.4
2589.17,2324.35
2602.13,2349.1
2615.07,2329.0
2627.99,2334.35
2640.89,2321.7
2653.76,2318.4
2666.61,2327.95
2679.44,2311.6
2692.25,2325.7
2705.03,2315.1
2717.79,2293.9
2730.53,2319.15
2743.25,2332.8
2755.94,2331.25
2768.61,2316.75
2781.27,2298.25
2793.89,2300.05
2806.5,2294.25
2819.09,2304.85
2831.65,2294.25
2844.19,2288.2
2856.71,2290.25
2869.21,2314.0
2881.69,2385.9
2894.14,2321.5
2906.58,2341.45
2918.99,2341.45
2931.38,2399.9
2943.75,2783.85
2956.1,2583.0
2968.42,2426.8
2980.73,2382.2
2993.01,2436.9
3005.28,2459.5
3017.52,2389.35
3029.74,2289.15
3041.94,2281.0
3054.12,2253.8
3066.28,2234.25
3078.42,2236.25
3090.54,2246.05
3102.63,2234.65
3114.71,2223.9
3126.77,2246.9
3138.8,2211.8
3150.82,2224.2
3162.81,2213.75
3174.78,2207.85
3186.74,2209.3
3198.67,2219.6
3210.58,2213.4
3222.47,2207.2
3234.35,2212.4
3246.2,2190.45
3258.03,2201.8
3269.84,2197.5
3281.64,2196.35
3293.41,2193.05
3305.16,2190.0
3316.89,2181.95
3328.61,2176.25
3340.3,2159.35
3351.97,2157.3
3363.63,2155.55
3375.26,2158.65
3386.88,2148.9
3398.47,2129.5
3410.05,2144.0
3421.6,2139.3
3433.14,2146.75
3444.66,2135.7
3456.15,2131.95
3467.63,2126.25
3479.09,2125.0
3490.53,2116.45
3501.96,2129.1
3513.36,2115.55
3524.74,2109.85
3536.11,2114.45
3547.45,2090.3
3558.78,2091.3
3570.09,2096.05
3581.37,2098.2
3592.64,2100.1
3603.9,2076.8
3615.13,2096.15
3626.34,2079.35
3637.54,2078.6
3648.72,2081.2
3659.87,2083.6
3665.45,2079.35

File: VLFR_08-PLA_nobio_Raman_bc35329c.csv
nm,Intensity
526.547,833.0
527.094,832.0
527.641,833.4
528.188,832.6
528.734,832.9
529.281,832.6
529.827,833.3
530.373,832.8
530.92,832.7
531.466,832.6
532.011,836.5
532.557,832.2
533.103,831.9
533.648,834.1
534.193,942.5
534.738,927.5
535.283,910.1
535.828,903.8
536.373,901.7
536.917,900.8
537.462,897.8
538.006,900.4
538.55,896.8
539.094,897.7
539.638,899.8
540.182,895.8
540.726,896.7
541.269,902.8
541.812,895.7
542.356,897.1
542.899,901.1
543.442,908.7
543.985,913.7
544.527,903.8
545.07,901.0
545.612,899.1
546.155,900.7
546.697,898.0
547.239,901.9
547.781,903.8
548.323,906.3
548.865,904.9
549.406,901.8
549.948,905.5
550.489,906.0
551.03,907.6
551.572,908.8
552.113,913.2
552.654,917.2
553.194,911.7
553.735,912.0
554.276,916.9
554.816,913.1
555.356,909.3
555.896,911.1
556.437,913.1
556.977,910.5
557.516,917.8
558.056,974.9
558.596,927.1
559.135,919.0
559.675,920.0
560.214,919.6
560.753,917.5
561.292,917.8
561.831,915.8
562.37,918.6
562.909,925.9
563.448,940.1
563.986,929.8
564.525,925.5
565.063,938.0
565.601,936.8
566.139,944.0
566.677,931.6
567.215,926.1
567.753,925.2
568.291,930.6
568.828,927.7
569.366,929.0
569.903,928.9
570.441,930.5
570.978,932.7
571.515,937.2
572.052,938.8
572.589,940.1
573.126,939.1
573.662,942.0
574.199,938.6
574.735,948.2
575.272,936.1
575.808,933.3
576.344,943.0
576.88,970.2
577.416,950.6
577.952,937.9
578.488,937.3
579.024,938.2
579.559,939.7
580.095,936.8
580.63,936.1
581.166,935.5
581.701,938.7
582.236,939.9
582.771,940.9
583.306,940.9
583.841,943.5
584.376,940.7
584.911,942.3
585.445,938.7
585.98,939.7
586.514,945.3
587.048,964.5
587.583,970.3
588.117,947.1
588.651,942.7
589.185,941.5
589.719,938.7
590.253,940.8
590.786,940.2
591.32,939.9
591.853,936.1
592.387,944.2
592.92,939.4
593.454,939.0
593.987,936.3
594.52,938.5
595.053,941.5
595.586,943.2
596.119,942.9
596.651,937.8
597.184,942.8
597.717,943.6
598.249,943.6
598.782,940.8
599.314,942.9
599.846,944.2
600.379,941.8
600.911,940.6
601.443,939.8
601.975,943.2
602.507,936.5
603.038,947.4
603.57,934.3
604.102,940.3
604.633,936.6
605.165,936.9
605.696,935.8
606.228,934.3
606.759,935.7
607.29,935.6
607.821,937.8
608.352,932.0
608.883,935.6
609.414,936.4
609.945,937.3
610.476,935.6
611.006,934.8
611.537,935.4
612.067,937.7
612.598,935.1
613.128,936.7
613.659,942.0
614.189,944.3
614.719,943.4
615.249,935.3
615.779,942.9
616.309,943.0
616.839,941.4
617.369,938.9
617.899,940.9
618.428,938.7
618.958,939.1
619.487,940.3
620.017,939.0
620.546,942.0
621.076,934.0
621.605,935.0
622.134,935.7
622.663,943.6
623.193,946.7
623.722,939.2
624.251,944.4
624.78,937.7
625.308,936.6
625.837,933.8
626.366,939.0
626.895,934.3
627.423,939.4
627.952,943.8
628.48,981.6
629.009,966.4
629.537,969.0
630.065,967.5
630.594,1006.0
631.122,1198.3
631.65,1060.2
632.178,1000.3
632.706,990.5
633.234,1039.1
633.762,1013.3
634.29,966.2
634.818,942.1
635.346,937.0
635.873,934.4
636.401,933.4
636.929,932.3
637.456,930.6
637.984,930.5
638.511,922.0
639.039,927.3
639.566,928.7
640.093,927.0
640.62,928.0
641.148,929.4
641.675,926.7
642.202,926.2
642.729,928.3
643.256,926.3
643.783,925.8
644.31,923.0
644.837,919.9
645.364,922.5
645.891,923.6
646.417,918.4
646.944,922.4
647.471,921.7
647.997,918.6
648.524,919.8
649.051,920.5
649.577,917.4
650.104,919.9
650.63,918.5
651.157,918.9
651.683,917.8
652.209,916.3
652.736,915.7
653.262,914.4
653.788,911.8
654.314,916.7
654.84,913.7
655.366,915.0
655.893,915.2
656.419,916.6
656.945,912.2
657.471,916.1
657.997,916.0
658.522,912.8
659.048,914.3
659.574,915.3
660.1,913.6
660.626,915.1
661.152,911.7
661.677,907.6
662.203,910.1
662.729,908.1
663.123,910.9

File: VLFR_08-PLA_nobio_Raman_bcd6559c.csv
nm,Intensity
526.5,827.5
527.047,828.7
527.594,828.2
528.14,828.2
528.687,827.4
529.233,829.0
529.779,827.8
530.325,829.4
530.871,827.1
531.417,828.8
531.962,835.5
532.508,829.0
533.053,827.9
533.599,829.3
534.144,1015.7
534.689,973.6
535.234,943.8
535.778,927.1
536.323,915.3
536.867,920.4
537.412,907.4
537.956,904.6
538.5,896.6
539.044,895.3
539.588,891.9
540.132,887.8
540.675,906.0
541.219,902.8
541.762,893.5
542.305,891.4
542.848,890.7
543.391,912.2
543.934,925.9
544.477,900.0
545.02,890.0
545.562,887.8
546.105,886.1
546.647,884.8
547.189,888.1
547.731,885.0
548.273,889.3
548.815,890.1
549.356,890.5
549.898,887.8
550.439,892.3
550.981,895.2
551.522,900.5
552.063,899.3
552.604,902.0
553.145,904.7
553.686,902.0
554.226,903.2
554.767,898.2
555.307,896.4
555.848,891.6
556.388,894.3
556.928,895.4
557.468,909.8
558.008,1015.4
558.547,926.9
559.087,904.8
559.626,901.6
560.166,901.6
560.705,900.7
561.244,897.1
561.783,896.4
562.322,896.7
562.861,905.4
563.4,940.3
563.939,918.8
564.477,910.5
565.015,931.0
565.554,929.0
566.092,950.0
566.63,923.4
567.168,904.0
567.706,907.2
568.244,913.2
568.781,910.7
569.319,912.4
569.857,909.8
570.394,910.6
570.931,913.8
571.468,929.7
572.005,926.5
572.542,923.5
573.079,918.2
573.616,928.6
574.153,919.5
574.689,931.4
575.226,914.1
575.762,913.0
576.298,930.0
576.834,981.2
577.371,932.2
577.907,913.8
578.442,916.3
578.978,914.4
579.514,914.0
580.049,914.1
580.585,914.8
581.12,916.7
581.656,914.0
582.191,915.7
582.726,915.9
583.261,918.5
583.796,918.5
584.331,916.1
584.865,913.9
585.4,919.3
585.935,918.2
586.469,931.0
587.004,964.5
587.538,983.8
588.072,943.3
588.606,921.9
589.14,915.2
589.674,918.4
590.208,913.9
590.742,913.6
591.275,917.7
591.809,917.8
592.342,922.2
592.876,914.7
593.409,912.8
593.942,918.6
594.476,915.5
595.009,919.0
595.542,917.2
596.075,916.3
596.607,919.6
597.14,913.1
597.673,921.1
598.205,918.6
598.738,917.2
599.27,922.2
599.803,917.3
600.335,920.4
600.867,918.8
601.399,918.7
601.931,916.5
602.463,918.4
602.995,917.4
603.527,919.2
604.058,915.9
604.59,917.4
605.122,915.7
605.653,913.5
606.184,915.5
606.716,914.7
607.247,914.7
607.778,913.8
608.309,911.8
608.84,917.5
609.371,911.9
609.902,916.0
610.433,915.2
610.964,913.6
611.494,913.0
612.025,915.3
612.556,916.1
613.086,918.2
613.616,917.5
614.147,918.3
614.677,917.6
615.207,914.0
615.737,913.5
616.267,916.4
616.797,916.2
617.327,915.5
617.857,911.3
618.387,916.7
618.917,917.8
619.446,911.8
619.976,916.4
620.505,916.4
621.035,915.8
621.564,915.5
622.093,914.2
622.623,926.2
623.152,926.7
623.681,925.4
624.21,918.0
624.739,916.8
625.268,916.5
625.797,917.2
626.326,916.9
626.855,914.6
627.383,915.8
627.912,925.3
628.441,984.8
628.969,975.4
629.498,976.5
630.026,979.1
630.554,1033.9
631.083,1399.8
631.611,1166.2
632.139,1039.3
632.667,1011.9
633.195,1099.5
633.724,1065.1
634.252,982.1
634.779,932.0
635.307,918.8
635.835,914.4
636.363,914.0
636.891,911.2
637.418,910.4
637.946,905.6
638.474,908.2
639.001,907.2
639.529,908.5
640.056,909.1
640.583,909.6
641.111,908.2
641.638,907.9
642.165,908.2
642.692,905.1
643.22,906.6
643.747,901.1
644.274,901.6
644.801,901.5
645.328,897.5
645.854,899.2
646.381,897.3
646.908,899.6
647.435,898.5
647.962,894.8
648.488,896.7
649.015,894.3
649.542,896.0
650.068,893.1
650.595,898.0
651.121,895.6
651.648,896.4
652.174,895.0
652.7,897.7
653.227,893.2
653.753,894.7
654.279,895.8
654.805,890.7
655.331,897.0
655.858,893.7
656.384,888.7
656.91,892.7
657.436,890.5
657.962,893.8
658.488,889.9
659.013,892.4
659.539,891.3
660.065,888.9
660.591,890.2
661.117,889.5
661.642,888.0
662.168,887.2
662.694,888.2
663.088,886.6

File: VLFR_08-PLA_nobio_Raman_bd43d0c9.csv
nm,Intensity
526.486,830.4
527.033,829.2
527.579,830.5
528.126,828.8
528.672,828.9
529.219,830.0
529.765,828.5
530.311,830.1
530.857,830.0
531.403,829.3
531.948,831.0
532.494,830.8
533.039,830.0
533.585,829.7
534.13,1019.8
534.675,987.2
535.22,952.5
535.764,935.6
536.309,926.5
536.854,929.8
537.398,921.2
537.942,920.1
538.486,912.4
539.03,910.6
539.574,906.8
540.118,900.6
540.662,916.2
541.205,917.0
541.749,911.6
542.292,903.9
542.835,905.5
543.378,926.9
543.921,935.0
544.464,915.6
545.006,909.1
545.549,905.7
546.091,905.1
546.634,904.8
547.176,909.3
547.718,907.5
548.26,903.5
548.802,909.0
549.343,914.6
549.885,911.3
550.426,911.6
550.968,916.0
551.509,917.9
552.05,919.7
552.591,918.8
553.132,924.7
553.673,922.9
554.214,932.6
554.754,924.8
555.295,914.5
555.835,913.7
556.375,915.3
556.915,920.6
557.455,935.4
557.995,1025.3
558.535,953.2
559.075,930.0
559.614,928.8
560.154,927.9
560.693,920.8
561.232,924.2
561.772,916.9
562.311,924.8
562.85,937.0
563.388,961.5
563.927,942.4
564.466,933.8
565.004,957.0
565.543,948.1
566.081,974.4
566.619,950.0
567.157,931.3
567.695,932.3
568.233,937.7
568.771,938.4
569.309,938.2
569.846,938.5
570.384,936.5
570.921,935.5
571.458,950.8
571.995,960.1
572.532,949.6
573.069,950.6
573.606,954.7
574.143,950.2
574.68,966.5
575.216,946.7
575.753,942.5
576.289,958.3
576.825,1012.5
577.361,966.8
577.897,951.1
578.433,944.2
578.969,940.8
579.505,948.0
580.041,944.6
580.576,945.1
581.112,943.5
581.647,951.9
582.183,945.0
582.718,951.3
583.253,952.4
583.788,948.4
584.323,949.8
584.858,953.4
585.392,948.1
585.927,956.0
586.462,962.7
586.996,993.0
587.53,1014.5
588.065,976.6
588.599,961.5
589.133,953.2
589.667,951.5
590.201,953.7
590.735,953.8
591.268,949.7
591.802,951.5
592.335,951.2
592.869,950.2
593.402,952.3
593.936,951.9
594.469,951.7
595.002,951.5
595.535,953.5
596.068,950.4
596.601,957.4
597.133,951.7
597.666,948.9
598.199,956.6
598.731,955.5
599.264,955.4
599.796,950.1
600.328,955.5
600.86,951.9
601.393,952.9
601.925,955.2
602.457,952.0
602.988,955.5
603.52,955.9
604.052,956.8
604.583,955.1
605.115,951.4
605.646,949.5
606.178,948.3
606.709,951.6
607.24,952.4
607.771,947.7
608.302,952.1
608.833,950.1
609.364,951.4
609.895,953.4
610.426,951.2
610.957,952.0
611.487,951.4
612.018,952.7
612.548,955.4
613.078,954.9
613.609,953.6
614.139,954.0
614.669,955.7
615.199,956.2
615.729,953.9
616.259,955.1
616.789,960.5
617.319,956.5
617.849,959.0
618.378,959.4
618.908,957.2
619.437,956.4
619.967,953.0
620.496,951.4
621.025,955.3
621.555,953.1
622.084,955.8
622.613,964.4
623.142,971.2
623.671,968.6
624.2,960.8
624.729,954.3
625.258,957.2
625.786,956.5
626.315,956.9
626.844,954.0
627.372,957.5
627.901,962.6
628.429,1025.3
628.957,1022.0
629.486,1013.9
630.014,1024.1
630.542,1072.9
631.07,1439.7
631.598,1225.3
632.126,1081.2
632.654,1061.9
633.182,1144.0
633.71,1122.2
634.237,1022.8
634.765,972.5
635.293,954.4
635.82,949.8
636.348,948.0
636.875,944.4
637.403,944.5
637.93,943.8
638.458,940.9
638.985,942.1
639.512,940.7
640.039,940.9
640.566,941.5
641.093,942.1
641.62,942.5
642.147,936.8
642.674,938.5
643.201,932.2
643.728,935.4
644.255,934.3
644.781,936.6
645.308,925.9
645.835,928.9
646.361,930.2
646.888,926.0
647.414,929.4
647.941,927.0
648.467,931.3
648.993,925.3
649.52,926.9
650.046,924.1
650.572,924.6
651.098,924.9
651.625,925.1
652.151,926.8
652.677,922.9
653.203,921.3
653.729,923.3
654.255,922.0
654.78,917.0
655.306,919.8
655.832,922.4
656.358,922.3
656.884,923.5
657.409,925.4
657.935,922.6
658.461,917.4
658.986,921.0
659.512,919.6
660.037,917.8
660.563,916.9
661.088,916.5
661.614,916.2
662.139,914.4
662.664,913.2
663.058,909.7

File: VLFR_08-PLA_nobio_Raman_be8dd6f9.csv
nm,Intensity
526.5,830.3
527.047,827.7
527.594,828.5
528.14,828.7
528.687,828.4
529.233,828.6
529.779,827.0
530.325,828.8
530.871,828.4
531.417,829.1
531.962,831.9
532.508,830.2
533.053,828.3
533.599,830.0
534.144,994.5
534.689,955.9
535.234,934.8
535.778,924.6
536.323,915.3
536.867,913.1
537.412,902.9
537.956,902.5
538.5,896.9
539.044,892.6
539.588,893.4
540.132,887.4
540.675,905.9
541.219,909.4
541.762,895.7
542.305,893.0
542.848,892.5
543.391,914.7
543.934,933.3
544.477,902.4
545.02,893.5
545.562,891.5
546.105,888.5
546.647,890.0
547.189,893.5
547.731,892.3
548.273,891.1
548.815,894.7
549.356,896.2
549.898,895.3
550.439,897.0
550.981,901.9
551.522,903.4
552.063,906.1
552.604,905.9
553.145,910.2
553.686,906.1
554.226,911.4
554.767,904.2
555.307,899.2
555.848,899.6
556.388,900.8
556.928,899.8
557.468,913.2
558.008,1004.2
558.547,923.9
559.087,909.7
559.626,920.0
560.166,906.1
560.705,907.2
561.244,901.3
561.783,902.4
562.322,904.7
562.861,909.7
563.4,936.4
563.939,922.9
564.477,916.5
565.015,940.3
565.554,928.3
566.092,958.1
566.63,930.1
567.168,912.5
567.706,914.6
568.244,912.7
568.781,914.3
569.319,922.2
569.857,912.9
570.394,916.8
570.931,916.8
571.468,937.9
572.005,929.2
572.542,924.2
573.079,928.0
573.616,933.7
574.153,928.0
574.689,941.1
575.226,922.2
575.762,923.8
576.298,931.6
576.834,985.8
577.371,938.6
577.907,921.1
578.442,926.0
578.978,920.3
579.514,924.6
580.049,918.8
580.585,916.3
581.12,920.8
581.656,918.7
582.191,916.8
582.726,922.6
583.261,922.8
583.796,923.6
584.331,921.7
584.865,920.1
585.4,926.3
585.935,923.9
586.469,932.8
587.004,962.7
587.538,989.3
588.072,943.5
588.606,925.4
589.14,923.3
589.674,925.9
590.208,923.3
590.742,923.4
591.275,922.6
591.809,922.2
592.342,920.8
592.876,921.6
593.409,921.4
593.942,918.9
594.476,924.1
595.009,916.6
595.542,920.1
596.075,921.8
596.607,919.5
597.14,922.6
597.673,921.6
598.205,923.7
598.738,924.7
599.27,924.8
599.803,927.2
600.335,919.5
600.867,923.0
601.399,920.2
601.931,923.9
602.463,918.8
602.995,923.7
603.527,920.7
604.058,921.6
604.59,920.2
605.122,917.1
605.653,922.1
606.184,917.2
606.716,918.0
607.247,916.7
607.778,918.3
608.309,916.7
608.84,918.0
609.371,917.2
609.902,918.5
610.433,914.2
610.964,914.8
611.494,918.1
612.025,917.9
612.556,915.5
613.086,919.0
613.616,918.6
614.147,915.6
614.677,921.5
615.207,918.4
615.737,917.8
616.267,920.0
616.797,923.5
617.327,917.9
617.857,916.1
618.387,917.6
618.917,914.8
619.446,919.0
619.976,918.8
620.505,917.5
621.035,913.4
621.564,918.7
622.093,920.4
622.623,921.7
623.152,931.7
623.681,931.6
624.21,925.8
624.739,920.1
625.268,917.6
625.797,916.3
626.326,918.0
626.855,916.3
627.383,918.8
627.912,929.9
628.441,981.6
628.969,979.3
629.498,977.9
630.026,980.3
630.554,1031.7
631.083,1402.4
631.611,1191.8
632.139,1051.5
632.667,1006.7
633.195,1090.6
633.724,1070.1
634.252,984.0
634.779,935.8
635.307,920.3
635.835,916.5
636.363,917.1
636.891,914.3
637.418,909.4
637.946,908.1
638.474,910.3
639.001,908.5
639.529,906.2
640.056,905.4
640.583,909.1
641.111,907.6
641.638,908.6
642.165,907.6
642.692,900.8
643.22,906.1
643.747,904.4
644.274,899.6
644.801,901.0
645.328,898.9
645.854,897.8
646.381,900.6
646.908,900.6
647.435,900.4
647.962,897.9
648.488,898.0
649.015,896.0
649.542,896.0
650.068,895.6
650.595,893.5
651.121,895.9
651.648,896.6
652.174,894.9
652.7,892.1
653.227,893.3
653.753,891.0
654.279,891.9
654.805,893.0
655.331,895.4
655.858,894.2
656.384,893.2
656.91,894.5
657.436,892.1
657.962,893.9
658.488,893.1
659.013,895.9
659.539,891.6
660.065,893.6
660.591,890.9
661.117,893.1
661.642,890.7
662.168,889.8
662.694,885.8
663.088,887.2