Folder: MPX_specDB/spectra (part 163)

File: VLFR_09-PET_bio_Raman_3cd4d7b1.csv
nm,Intensity
526.508,830.3
527.055,829.1
527.602,829.9
528.149,830.2
528.695,829.8
529.241,831.2
529.787,831.9
530.334,829.2
530.879,829.6
531.425,830.8
531.971,835.2
532.516,833.4
533.062,829.7
533.607,839.9
534.152,2150.8
534.697,1949.1
535.242,1681.5
535.786,1568.0
536.331,1473.1
536.876,1439.2
537.42,1420.3
537.964,1423.9
538.508,1433.4
539.052,1433.8
539.596,1454.0
540.14,1485.3
540.683,1455.2
541.227,1456.9
541.77,1449.8
542.313,1473.7
542.856,1479.6
543.399,1488.8
543.942,1511.9
544.485,1500.8
545.027,1521.0
545.57,1521.9
546.112,1530.5
546.654,1550.6
547.196,1535.8
547.738,1556.8
548.28,1555.3
548.822,1589.3
549.363,1586.1
549.905,1592.3
550.446,1616.5
550.988,1631.0
551.529,1612.6
552.07,1632.1
552.611,1635.6
553.152,1654.1
553.692,1662.2
554.233,1650.4
554.773,1670.1
555.314,1689.1
555.854,1718.0
556.394,1738.9
556.934,1765.5
557.474,1931.6
558.014,1822.9
558.553,1776.4
559.093,1768.5
559.632,1750.4
560.172,1751.1
560.711,1758.0
561.25,1785.6
561.789,1806.5
562.328,1830.3
562.867,1835.8
563.406,1835.6
563.944,1855.0
564.483,1874.7
565.021,1993.9
565.559,2004.4
566.098,1999.4
566.636,1902.6
567.174,1897.3
567.711,1966.2
568.249,1920.7
568.787,1916.2
569.324,1939.9
569.862,1965.1
570.399,2017.9
570.936,2165.0
571.474,2374.8
572.011,2149.0
572.548,2028.7
573.084,2011.1
573.621,2029.3
574.158,2071.7
574.694,2047.5
575.231,2074.3
575.767,2100.8
576.303,2091.6
576.84,2128.1
577.376,2106.8
577.912,2077.7
578.447,2111.1
578.983,2102.8
579.519,2110.0
580.054,2140.1
580.59,2141.4
581.125,2163.5
581.661,2266.2
582.196,3780.5
582.731,2261.4
583.266,2194.7
583.801,2183.0
584.336,2195.2
584.87,2210.0
585.405,2290.6
585.94,2960.8
586.474,2673.2
587.008,2303.6
587.543,2255.0
588.077,2235.5
588.611,2244.4
589.145,2231.6
589.679,2228.2
590.213,2248.9
590.747,2241.7
591.28,2256.4
591.814,2277.1
592.347,2267.1
592.881,2258.5
593.414,2254.9
593.947,2271.2
594.48,2271.4
595.014,2280.0
595.547,2281.9
596.079,2308.0
596.612,2299.9
597.145,2316.1
597.678,2312.2
598.21,2332.5
598.743,2351.4
599.275,2340.8
599.807,2350.2
600.34,2345.6
600.872,2348.3
601.404,2349.3
601.936,2353.0
602.468,2353.2
603.0,2387.5
603.532,2382.9
604.063,2405.8
604.595,2380.8
605.126,2367.9
605.658,2371.2
606.189,2374.4
606.721,2359.3
607.252,2391.3
607.783,2410.9
608.314,2421.6
608.845,2441.1
609.376,2443.4
609.907,2447.8
610.438,2453.4
610.968,2484.9
611.499,2490.9
612.03,2523.7
612.56,2552.6
613.091,2579.0
613.621,2621.1
614.151,2615.8
614.681,2642.1
615.212,2647.6
615.742,2647.9
616.272,2661.4
616.802,2693.8
617.332,2725.9
617.861,2752.8
618.391,2779.6
618.921,2787.6
619.45,2808.4
619.98,2807.2
620.509,2832.3
621.039,2843.6
621.568,2878.5
622.097,2885.5
622.627,2926.4
623.156,2953.3
623.685,2970.0
624.214,3027.3
624.743,3052.8
625.272,3056.9
625.801,3088.1
626.33,3102.8
626.858,3126.0
627.387,3126.2
627.916,3138.1
628.444,3176.2
628.973,3250.0
629.501,3266.9
630.029,3299.0
630.558,3309.9
631.086,3385.6
631.614,3479.0
632.142,3521.9
632.67,3478.9
633.198,3466.2
633.726,3461.0
634.254,3461.9
634.782,3457.9
635.31,3515.6
635.838,3585.7
636.365,3743.6
636.893,3778.9
637.421,3620.6
637.948,3617.6
638.476,3632.2
639.003,3646.6
639.531,3667.4
640.058,3681.9
640.585,3676.3
641.113,3727.8
641.64,3737.5
642.167,3768.9
642.694,3762.5
643.221,3779.0
643.748,3752.5
644.275,3757.1
644.802,3762.9
645.329,3758.4
645.856,3783.1
646.382,3789.5
646.909,3815.4
647.436,3843.2
647.962,3833.9
648.489,3871.7
649.016,3861.9
649.542,3855.1
650.069,3839.9
650.595,3872.9
651.121,3867.8
651.648,3880.6
652.174,3917.9
652.7,3909.5
653.227,3935.8
653.753,3932.9
654.279,3963.3
654.805,3935.5
655.331,3947.8
655.857,3947.6
656.383,3961.6
656.909,3984.9
657.435,3967.0
657.961,3984.8
658.487,4006.3
659.013,4002.0
659.538,4016.9
660.064,4016.4
660.59,4005.8
661.116,3991.5
661.641,3974.1
662.167,3961.7
662.692,3996.4
663.087,3968.5

File: VLFR_09-PET_bio_Raman_3e271478.csv
nm,Intensity
528.65,1847.4
529.155,1849.45
529.66,1850.4
530.165,1848.15
530.67,1851.25
531.175,1849.7
531.68,1867.7
532.185,2681.05
532.69,1851.75
533.194,1854.9
533.699,2412.0
534.204,3990.2
534.708,3917.35
535.213,3973.95
535.717,3905.6
536.222,3883.05
536.726,3979.05
537.231,4008.4
537.735,4127.4
538.239,4134.65
538.743,4223.05
539.247,4222.65
539.751,4334.05
540.255,4420.85
540.759,4413.1
541.263,4412.8
541.767,4463.85
542.271,4547.05
542.775,4587.75
543.279,4592.45
543.782,4701.55
544.286,4687.85
544.789,4725.15
545.293,4783.55
545.796,4900.85
546.3,4976.35
546.803,4950.35
547.306,5023.6
547.81,5045.0
548.313,5172.25
548.816,5136.05
549.319,5257.8
549.822,5273.8
550.325,5289.25
550.828,5544.0
551.331,5433.5
551.834,5543.55
552.337,5530.55
552.839,5647.9
553.342,5548.35
553.844,5706.8
554.347,5706.8
554.849,5657.05
555.352,5779.25
555.854,5886.4
556.357,5895.95
556.859,6032.85
557.361,6174.25
557.863,6228.25
558.365,6134.5
558.867,6140.0
559.369,6100.4
559.871,6111.55
560.373,6223.25
560.875,6304.5
561.377,6336.8
561.878,6442.3
562.38,6394.8
562.881,6511.55
563.383,6576.85
563.884,6572.3
564.386,6728.6
564.887,6941.3
565.388,6923.0
565.89,6924.4
566.391,6840.8
566.892,6873.55
567.393,6938.95
567.894,7065.15
568.395,7008.95
568.896,7085.0
569.396,7173.95
569.897,7291.15
570.398,7419.4
570.898,7727.4
571.399,7851.3
571.9,7583.9
572.4,7504.25
572.9,7575.0
573.401,7570.45
573.901,7673.5
574.401,7560.8
574.901,7614.7
575.401,7785.5
575.901,7845.15
576.401,7824.3
576.901,7830.25
577.401,7889.95
577.901,7889.65
578.4,7913.7
578.9,7943.3
579.399,7893.25
579.899,7994.65
580.398,8234.2
580.898,8064.15
581.397,8119.1
581.896,9313.1
582.395,8998.6
582.895,8013.6
583.394,8157.05
583.893,8449.15
584.391,8256.75
584.89,8168.15
585.389,8411.55
585.888,9275.2
586.386,8769.4
586.885,8459.55
587.384,8417.4
587.882,8355.7
588.38,8367.95
588.879,8322.45
589.377,8270.9
589.875,8270.2
590.373,8289.65
590.871,8216.5
591.369,8401.45
591.867,8313.1
592.365,8398.75
592.863,8526.55
593.361,8389.05
593.858,8381.55
594.356,8403.9
594.853,8592.0
595.351,8542.15
595.848,8404.1
596.345,8453.2
596.843,8703.95
597.34,8558.35
597.837,8644.75
598.334,8579.25
598.831,8527.45
599.328,8848.15
599.824,8696.95
600.321,8748.85
600.818,8680.3
601.314,8704.45
601.811,8768.05
602.307,8904.35
602.804,8717.95
603.3,8886.8
603.796,8993.5
604.293,8863.95
604.789,8851.55
605.285,9109.65
605.781,9152.25
606.277,9324.85
606.772,9239.1
607.268,9183.5
607.764,9189.6
608.259,9112.0
608.755,9136.45
609.25,9350.1
609.746,9521.1
610.241,9433.3
610.736,9553.45
611.231,9598.3
611.727,9662.35
612.222,9789.85
612.716,9718.5
613.211,9511.7
613.706,9777.1
614.201,9760.15
614.695,10115.0
615.19,10002.6
615.684,9979.1
616.179,9919.2
616.673,10268.0
617.168,10108.3
617.662,10291.0
618.156,10455.5
618.65,10649.0
619.144,10519.6
619.638,10811.0
620.131,10669.6
620.625,10740.0
621.119,10872.7
621.612,11156.6
622.106,10899.4
622.599,10745.7
623.093,11126.7
623.586,11234.7
624.079,11327.0
624.572,11403.4
625.065,11394.0
625.558,11425.7
626.051,11441.9
626.544,11472.9
627.037,11475.5
627.529,11499.8
628.022,11653.0
628.514,11577.6
629.007,11768.0
629.499,12013.5
629.991,12065.8
630.483,12026.5
630.976,12083.3
631.468,12169.2
631.959,12572.0
632.451,12511.0
632.943,12458.3
633.435,12404.7
633.926,12555.3
634.418,12184.9
634.909,12272.5
635.401,12552.7
635.892,12596.7
636.383,12493.3
636.874,12569.2
637.365,12203.5
637.856,12490.5
638.347,12626.2
638.838,12276.4
639.329,12375.8
639.819,12386.6
640.31,12425.3
640.8,12387.3
641.291,12180.3
641.781,12382.4
642.271,12392.7
642.761,12231.4
643.251,12297.4
643.741,12184.3
644.231,12588.5
644.721,12053.5
645.211,12205.8
645.7,12265.1
646.19,11856.8
646.679,12179.0
647.169,11627.5
647.658,11983.4
648.147,12126.2
648.636,12081.0
649.125,11686.3
649.614,11949.1
650.103,11874.1
650.592,11678.8
651.08,11789.5
651.569,12085.2
652.058,11597.4
652.546,11568.0
653.034,11200.6
653.523,11457.8
654.011,11054.4
654.499,11030.3
654.987,10996.1
655.475,10770.0
655.963,10955.3
656.45,10794.7
656.938,10793.1
657.425,10768.3
657.913,10653.8
658.4,10565.7
658.888,10331.5
659.375,10080.3
659.862,10381.6
660.349,10261.3
660.836,10068.4
661.079,9679.3

File: VLFR_09-PET_bio_Raman_4ae55241.csv
nm,Intensity
528.626,1864.7
529.132,1862.3
529.637,1865.5
530.143,1865.0
530.648,1865.3
531.153,1869.6
531.658,1901.6
532.164,4350.3
532.669,1865.1
533.174,1866.3
533.679,1997.3
534.184,2490.8
534.689,2525.5
535.194,2573.4
535.699,2590.5
536.203,2589.0
536.708,2620.9
537.213,2645.2
537.717,2652.5
538.222,2654.5
538.726,2685.5
539.231,2718.1
539.735,2739.6
540.239,2765.0
540.744,2769.8
541.248,2777.2
541.752,2820.1
542.256,2805.2
542.76,2857.6
543.264,2859.3
543.768,2896.8
544.272,2888.8
544.776,2924.3
545.28,2938.9
545.784,2937.5
546.287,2989.8
546.791,2958.0
547.294,3008.8
547.798,3005.6
548.301,3040.4
548.805,3099.1
549.308,3078.3
549.811,3062.8
550.315,3070.2
550.818,3127.1
551.321,3147.9
551.824,3168.2
552.327,3159.3
552.83,3157.8
553.333,3209.2
553.835,3206.3
554.338,3211.4
554.841,3243.6
555.343,3242.8
555.846,3265.1
556.349,3287.0
556.851,3260.3
557.353,3269.2
557.856,3278.5
558.358,3316.8
558.86,3313.9
559.362,3309.0
559.864,3322.9
560.366,3319.0
560.868,3326.8
561.37,3406.3
561.872,3384.6
562.374,3424.4
562.876,3393.1
563.377,3439.0
563.879,3464.4
564.38,3486.4
564.882,3496.8
565.383,3503.4
565.885,3538.2
566.386,3521.2
566.887,3543.9
567.388,3542.3
567.889,3523.8
568.391,3591.0
568.892,3586.8
569.392,3623.7
569.893,3594.1
570.394,3611.3
570.895,3640.6
571.395,3671.3
571.896,3666.4
572.397,3695.3
572.897,3693.8
573.397,3703.4
573.898,3731.4
574.398,3697.8
574.898,3713.2
575.398,3764.7
575.898,3775.9
576.398,3776.2
576.898,3809.6
577.398,3808.1
577.898,3777.6
578.398,3821.5
578.897,3777.9
579.397,3838.9
579.896,3848.2
580.396,3823.4
580.895,3820.8
581.395,3808.3
581.894,3873.9
582.393,3852.0
582.892,3878.2
583.391,3866.1
583.89,3859.3
584.389,3893.6
584.888,3836.6
585.387,3847.0
585.886,3927.4
586.384,3910.5
586.883,3847.8
587.381,3883.9
587.88,3930.4
588.378,3871.8
588.876,3927.8
589.375,3799.5
589.873,3838.1
590.371,3816.0
590.869,3846.7
591.367,3888.9
591.865,3891.8
592.363,3833.6
592.86,3909.5
593.358,3844.8
593.856,3839.6
594.353,3861.3
594.851,3850.1
595.348,3876.4
595.845,3921.1
596.342,3850.5
596.84,3890.0
597.337,3907.6
597.834,3867.4
598.331,3855.5
598.828,3881.4
599.324,3900.8
599.821,3880.6
600.318,3878.3
600.814,3912.7
601.311,3907.8
601.807,3853.3
602.304,3905.2
602.8,3933.1
603.296,3907.7
603.792,3885.5
604.288,3881.8
604.784,3887.9
605.28,3909.1
605.776,3928.4
606.272,3936.1
606.767,3908.7
607.263,3878.5
607.759,3964.7
608.254,3909.7
608.749,3949.8
609.245,3936.0
609.74,3944.6
610.235,3892.4
610.73,4000.1
611.225,3947.7
611.72,3969.5
612.215,3947.1
612.71,3923.6
613.204,3968.0
613.699,3985.9
614.194,3899.0
614.688,4011.5
615.182,4012.8
615.677,3995.1
616.171,3991.7
616.665,3960.8
617.159,3965.0
617.653,4003.6
618.147,4030.8
618.641,3996.0
619.135,4009.6
619.628,4076.8
620.122,4062.3
620.615,4028.5
621.109,3975.5
621.602,4022.7
622.095,4035.5
622.589,4037.3
623.082,4017.6
623.575,3994.2
624.068,4118.5
624.561,4063.3
625.053,4054.6
625.546,4029.7
626.039,4034.9
626.531,4093.7
627.024,4032.7
627.516,4061.9
628.008,4031.6
628.501,4055.0
628.993,4051.9
629.485,4081.4
629.977,4041.8
630.469,4071.3
630.96,4060.4
631.452,4089.0
631.944,4031.7
632.435,4090.6
632.927,3989.5
633.418,4016.9
633.91,4032.3
634.401,4013.6
634.892,3985.1
635.383,4024.9
635.874,3984.1
636.365,4021.8
636.856,3959.5
637.346,3945.4
637.837,3928.6
638.327,3957.8
638.818,4004.0
639.308,3984.2
639.799,3953.1
640.289,3935.2
640.779,3837.2
641.269,3887.4
641.759,3816.0
642.249,3848.4
642.738,3882.6
643.228,3854.7
643.718,3839.3
644.207,3867.2
644.697,3816.0
645.186,3806.7
645.675,3812.2
646.164,3767.4
646.653,3784.6
647.142,3792.0
647.631,3716.4
648.12,3716.8
648.609,3671.7
649.098,3662.2
649.586,3706.0
650.075,3637.8
650.563,3635.8
651.051,3685.9
651.539,3562.6
652.027,3621.1
652.515,3575.8
653.003,3544.8
653.491,3519.2
653.979,3538.1
654.467,3514.1
654.954,3433.1
655.442,3414.1
655.929,3388.0
656.416,3407.5
656.904,3366.7
657.391,3352.3
657.878,3350.2
658.365,3271.0
658.851,3298.8
659.338,3236.6
659.825,3233.6
660.311,3224.2
660.798,3217.7
661.041,3232.8

File: VLFR_09-PET_bio_Raman_05e3bfdd.csv
nm,Intensity
526.493,829.3
527.039,829.56
527.586,828.88
528.133,829.58
528.679,828.82
529.225,829.24
529.771,829.18
530.317,828.72
530.863,829.1
531.409,829.24
531.955,831.32
532.5,829.66
533.046,829.02
533.591,830.5
534.136,945.64
534.681,936.78
535.226,923.48
535.771,919.78
536.315,914.54
536.86,913.98
537.404,914.86
537.948,916.78
538.493,918.34
539.037,921.42
539.58,922.2
540.124,925.06
540.668,923.48
541.211,922.3
541.755,924.06
542.298,925.2
542.841,925.96
543.384,929.52
543.927,930.34
544.47,929.76
545.013,931.0
545.555,933.84
546.098,933.74
546.64,935.26
547.182,936.76
547.724,936.28
548.266,937.82
548.808,938.52
549.35,939.18
549.892,943.38
550.433,943.44
550.974,943.32
551.516,945.06
552.057,944.82
552.598,945.72
553.139,948.44
553.68,948.76
554.22,948.96
554.761,948.64
555.301,950.84
555.842,953.78
556.382,954.82
556.922,956.24
557.462,966.12
558.002,960.58
558.542,958.78
559.082,956.04
559.621,957.22
560.161,958.2
560.7,960.32
561.239,961.5
561.778,961.78
562.317,966.1
562.856,964.9
563.395,967.32
563.934,968.78
564.472,971.76
565.011,982.22
565.549,981.06
566.088,979.38
566.626,976.62
567.164,972.4
567.702,980.1
568.24,978.04
568.777,978.84
569.315,980.9
569.853,983.74
570.39,985.06
570.927,994.22
571.465,1012.58
572.002,995.46
572.539,989.08
573.076,990.18
573.612,989.12
574.149,991.6
574.686,990.5
575.222,996.9
575.759,995.12
576.295,994.86
576.831,998.88
577.367,998.64
577.903,997.44
578.439,998.82
578.975,999.94
579.511,999.14
580.046,997.68
580.582,1001.16
581.117,1003.68
581.653,1009.46
582.188,1103.32
582.723,1011.54
583.258,1004.22
583.793,1007.78
584.328,1007.14
584.863,1010.54
585.398,1014.34
585.932,1055.78
586.467,1040.08
587.001,1016.66
587.535,1012.56
588.07,1009.98
588.604,1011.32
589.138,1007.52
589.672,1009.66
590.206,1010.76
590.739,1011.78
591.273,1013.08
591.807,1012.2
592.34,1011.72
592.873,1010.3
593.407,1009.26
593.94,1008.42
594.473,1010.32
595.006,1010.78
595.539,1012.44
596.072,1011.04
596.605,1015.9
597.138,1014.84
597.67,1013.9
598.203,1015.9
598.735,1015.78
599.268,1016.9
599.8,1015.5
600.332,1015.38
600.865,1015.98
601.397,1015.42
601.929,1012.52
602.46,1018.3
602.992,1018.32
603.524,1019.68
604.056,1018.78
604.587,1017.84
605.119,1016.08
605.65,1015.6
606.182,1015.18
606.713,1016.28
607.244,1017.14
607.775,1016.38
608.306,1020.04
608.837,1023.34
609.368,1023.9
609.899,1023.8
610.43,1024.8
610.961,1024.62
611.491,1024.08
612.022,1026.88
612.552,1028.96
613.083,1033.18
613.613,1035.4
614.143,1038.32
614.673,1040.32
615.203,1039.6
615.734,1040.88
616.263,1041.38
616.793,1045.52
617.323,1045.44
617.853,1049.42
618.383,1049.58
618.912,1051.54
619.442,1052.78
619.971,1054.52
620.501,1056.94
621.03,1053.86
621.56,1058.18
622.089,1058.22
622.618,1059.3
623.147,1068.54
623.676,1068.68
624.205,1068.64
624.734,1071.16
625.263,1073.58
625.792,1074.58
626.321,1078.94
626.849,1077.6
627.378,1078.22
627.906,1078.94
628.435,1082.8
628.963,1085.98
629.492,1089.12
630.02,1089.16
630.548,1089.72
631.077,1091.52
631.605,1097.94
632.133,1100.82
632.661,1099.68
633.189,1101.32
633.717,1098.26
634.245,1094.68
634.773,1096.82
635.3,1096.04
635.828,1104.82
636.356,1110.26
636.883,1112.58
637.411,1108.1
637.938,1103.48
638.466,1105.1
638.993,1109.9
639.521,1107.58
640.048,1110.12
640.575,1108.44
641.103,1111.74
641.63,1112.66
642.157,1108.66
642.684,1107.04
643.211,1110.08
643.738,1106.98
644.265,1106.44
644.792,1106.12
645.319,1101.92
645.845,1109.48
646.372,1109.7
646.899,1109.02
647.425,1109.0
647.952,1108.22
648.479,1106.76
649.005,1105.66
649.532,1108.62
650.058,1105.66
650.585,1102.62
651.111,1105.76
651.637,1105.88
652.164,1106.26
652.69,1104.66
653.216,1103.76
653.742,1106.7
654.268,1103.14
654.794,1102.08
655.32,1102.46
655.846,1104.36
656.372,1100.78
656.898,1101.18
657.424,1101.2
657.95,1101.4
658.476,1102.7
659.002,1100.62
659.528,1101.96
660.053,1100.5
660.579,1098.62
661.105,1097.42
661.63,1092.78
662.156,1090.84
662.681,1093.0
663.076,1091.8

File: VLFR_09-PET_bio_Raman_13d2484d.csv
nm,Intensity
526.549,832.65
527.096,832.35
527.643,832.1
528.19,832.85
528.737,832.45
529.283,832.3
529.83,831.6
530.376,831.7
530.922,832.3
531.468,831.4
532.014,839.35
532.559,831.75
533.105,831.85
533.65,832.25
534.196,871.9
534.741,875.0
535.286,876.0
535.83,879.05
536.375,876.5
536.92,879.45
537.464,877.9
538.008,881.8
538.553,880.25
539.097,880.95
539.641,882.75
540.184,882.45
540.728,883.3
541.271,885.35
541.815,886.8
542.358,887.15
542.901,887.3
543.444,887.6
543.987,889.05
544.53,889.05
545.072,890.1
545.615,890.75
546.157,891.9
546.699,894.1
547.242,893.5
547.784,894.55
548.325,896.3
548.867,895.55
549.409,895.5
549.95,893.8
550.492,893.65
551.033,895.2
551.574,893.5
552.115,897.0
552.656,894.1
553.197,894.95
553.737,894.5
554.278,895.5
554.818,895.3
555.358,895.7
555.899,896.6
556.439,897.1
556.979,895.6
557.518,895.7
558.058,897.95
558.598,895.3
559.137,897.65
559.677,899.35
560.216,900.0
560.755,898.95
561.294,898.9
561.833,899.15
562.372,903.0
562.91,901.1
563.449,904.05
563.987,908.15
564.526,911.15
565.064,910.25
565.602,910.05
566.14,907.4
566.678,906.75
567.216,907.75
567.754,905.7
568.291,905.85
568.829,906.15
569.366,907.85
569.904,909.2
570.441,908.0
570.978,906.75
571.515,908.1
572.052,908.1
572.589,907.15
573.125,910.0
573.662,912.1
574.199,909.35
574.735,911.7
575.271,912.95
575.807,913.55
576.344,911.45
576.88,914.7
577.415,915.7
577.951,916.35
578.487,914.7
579.023,914.65
579.558,914.55
580.094,916.5
580.629,917.45
581.164,917.4
581.699,917.25
582.234,921.05
582.769,919.05
583.304,917.35
583.839,918.6
584.374,918.2
584.908,921.5
585.443,920.55
585.977,923.85
586.511,920.6
587.046,922.55
587.58,921.9
588.114,921.2
588.648,919.5
589.182,918.3
589.716,921.35
590.249,921.45
590.783,920.35
591.316,921.1
591.85,921.2
592.383,920.4
592.917,917.9
593.45,919.25
593.983,920.8
594.516,918.35
595.049,920.55
595.582,920.85
596.115,921.05
596.647,920.3
597.18,924.1
597.712,922.4
598.245,924.1
598.777,923.15
599.31,925.8
599.842,919.15
600.374,920.6
600.906,920.05
601.438,919.45
601.97,921.35
602.502,919.2
603.034,921.5
603.565,920.95
604.097,919.3
604.628,919.0
605.16,920.8
605.691,915.85
606.223,919.0
606.754,917.95
607.285,918.65
607.816,919.0
608.347,918.35
608.878,919.35
609.409,922.65
609.94,922.65
610.47,921.55
611.001,918.5
611.532,919.0
612.062,922.3
612.593,923.3
613.123,923.15
613.653,923.2
614.184,924.65
614.714,925.85
615.244,924.0
615.774,924.9
616.304,923.8
616.834,922.0
617.364,927.9
617.894,925.35
618.423,923.7
618.953,924.35
619.482,927.9
620.012,927.1
620.541,923.65
621.071,925.8
621.6,924.75
622.13,926.45
622.659,927.25
623.188,926.4
623.717,926.4
624.246,925.3
624.775,929.1
625.304,928.7
625.833,929.05
626.362,927.9
626.89,928.2
627.419,925.05
627.948,927.5
628.476,926.7
629.005,929.35
629.533,927.9
630.061,928.05
630.59,928.0
631.118,928.75
631.646,928.45
632.175,927.0
632.703,928.55
633.231,927.2
633.759,928.3
634.287,926.85
634.815,928.65
635.342,928.1
635.87,928.05
636.398,930.2
636.926,928.5
637.453,926.35
637.981,927.95
638.509,926.1
639.036,928.05
639.563,925.55
640.091,925.1
640.618,926.9
641.146,923.9
641.673,928.0
642.2,927.75
642.727,927.9
643.254,924.6
643.781,921.65
644.309,924.15
644.836,920.5
645.362,923.25
645.889,923.85
646.416,920.8
646.943,922.85
647.47,922.55
647.997,923.0
648.523,920.55
649.05,921.7
649.577,921.75
650.103,919.95
650.63,920.05
651.156,918.15
651.683,920.25
652.209,919.2
652.735,919.55
653.262,917.25
653.788,919.1
654.314,918.05
654.841,918.35
655.367,916.85
655.893,916.15
656.419,915.9
656.945,916.1
657.471,915.4
657.997,916.45
658.523,918.35
659.049,917.5
659.575,916.05
660.101,919.85
660.627,914.75
661.153,912.4
661.679,911.65
662.205,914.65
662.731,913.4
663.125,911.35

File: VLFR_09-PET_bio_Raman_13f5f7e4.csv
nm,Intensity
526.508,827.9
527.055,828.7
527.602,829.0
528.149,827.4
528.695,828.0
529.241,828.0
529.787,827.2
530.334,829.0
530.879,827.7
531.425,827.6
531.971,835.6
532.516,829.1
533.062,828.5
533.607,836.6
534.152,1855.3
534.697,1797.0
535.242,1680.4
535.786,1638.0
536.331,1603.3
536.876,1590.8
537.42,1583.1
537.964,1603.3
538.508,1627.4
539.052,1628.5
539.596,1646.4
540.14,1657.5
540.683,1655.1
541.227,1658.0
541.77,1677.0
542.313,1684.1
542.856,1697.5
543.399,1723.0
543.942,1724.2
544.485,1747.3
545.027,1758.7
545.57,1759.0
546.112,1776.8
546.654,1787.4
547.196,1796.5
547.738,1812.5
548.28,1817.5
548.822,1840.0
549.363,1849.3
549.905,1861.0
550.446,1879.6
550.988,1878.2
551.529,1889.2
552.07,1910.9
552.611,1914.7
553.152,1928.8
553.692,1928.8
554.233,1959.4
554.773,1962.0
555.314,1966.4
555.854,1993.6
556.394,1998.2
556.934,2026.4
557.474,2128.0
558.014,2060.1
558.553,2059.2
559.093,2050.1
559.632,2063.6
560.172,2082.7
560.711,2085.2
561.25,2111.7
561.789,2150.9
562.328,2136.4
562.867,2137.5
563.406,2165.2
563.944,2179.7
564.483,2224.7
565.021,2293.6
565.559,2290.6
566.098,2286.4
566.636,2240.3
567.174,2242.5
567.711,2294.3
568.249,2274.1
568.787,2275.7
569.324,2324.6
569.862,2336.5
570.399,2370.2
570.936,2440.5
571.474,2561.4
572.011,2438.6
572.548,2388.3
573.084,2389.2
573.621,2411.8
574.158,2444.4
574.694,2452.0
575.231,2469.3
575.767,2476.2
576.303,2474.5
576.84,2497.4
577.376,2496.2
577.912,2496.5
578.447,2520.7
578.983,2515.9
579.519,2536.3
580.054,2534.0
580.59,2540.9
581.125,2571.7
581.661,2641.4
582.196,3442.4
582.731,2647.0
583.266,2632.9
583.801,2623.5
584.336,2632.5
584.87,2655.5
585.405,2697.8
585.94,3053.3
586.474,2911.9
587.008,2735.1
587.543,2711.6
588.077,2691.6
588.611,2696.5
589.145,2704.8
589.679,2694.7
590.213,2705.1
590.747,2717.8
591.28,2722.1
591.814,2747.4
592.347,2708.4
592.881,2721.1
593.414,2738.7
593.947,2732.7
594.48,2745.3
595.014,2765.6
595.547,2784.1
596.079,2768.8
596.612,2790.9
597.145,2812.1
597.678,2809.8
598.21,2828.9
598.743,2835.1
599.275,2852.0
599.807,2846.6
600.34,2843.4
600.872,2856.1
601.404,2833.2
601.936,2846.5
602.468,2886.5
603.0,2884.5
603.532,2890.1
604.063,2896.0
604.595,2896.5
605.126,2897.0
605.658,2865.9
606.189,2861.2
606.721,2895.6
607.252,2902.2
607.783,2926.7
608.314,2945.5
608.845,2963.5
609.376,2974.4
609.907,2994.9
610.438,2974.1
610.968,3016.5
611.499,3022.0
612.03,3066.6
612.56,3103.8
613.091,3146.0
613.621,3172.1
614.151,3205.9
614.681,3214.1
615.212,3225.6
615.742,3247.1
616.272,3263.5
616.802,3291.0
617.332,3314.9
617.861,3348.1
618.391,3367.8
618.921,3394.9
619.45,3405.2
619.98,3419.0
620.509,3435.7
621.039,3448.4
621.568,3474.2
622.097,3526.1
622.627,3550.6
623.156,3588.8
623.685,3637.4
624.214,3686.8
624.743,3705.5
625.272,3717.0
625.801,3738.2
626.33,3764.8
626.858,3782.1
627.387,3811.2
627.916,3835.1
628.444,3869.1
628.973,3912.8
629.501,3945.9
630.029,3984.8
630.558,3993.7
631.086,4060.8
631.614,4130.6
632.142,4163.1
632.67,4143.0
633.198,4165.6
633.726,4162.3
634.254,4150.7
634.782,4156.5
635.31,4200.2
635.838,4269.2
636.365,4377.9
636.893,4406.2
637.421,4322.2
637.948,4321.5
638.476,4343.6
639.003,4363.1
639.531,4406.6
640.058,4416.0
640.585,4458.1
641.113,4461.2
641.64,4490.8
642.167,4506.2
642.694,4511.5
643.221,4487.3
643.748,4494.5
644.275,4471.6
644.802,4478.4
645.329,4500.9
645.856,4512.4
646.382,4519.9
646.909,4536.9
647.436,4587.4
647.962,4589.8
648.489,4589.9
649.016,4587.3
649.542,4568.8
650.069,4600.4
650.595,4583.4
651.121,4555.6
651.648,4598.0
652.174,4620.8
652.7,4620.5
653.227,4635.1
653.753,4626.4
654.279,4638.2
654.805,4635.8
655.331,4636.5
655.857,4637.9
656.383,4640.4
656.909,4666.1
657.435,4672.8
657.961,4650.2
658.487,4685.3
659.013,4641.6
659.538,4662.0
660.064,4688.5
660.59,4670.1
661.116,4635.6
661.641,4618.3
662.167,4604.8
662.692,4616.4
663.087,4574.6