Folder: MPX_specDB/spectra (part 165)

File: VLFR_09-PET_bio_Raman_48d71573.csv
nm,Intensity
528.626,1863.3
529.132,1864.2
529.637,1864.2
530.143,1863.9
530.648,1865.0
531.153,1866.4
531.658,1896.5
532.164,4093.7
532.669,1864.6
533.174,1866.1
533.679,1901.5
534.184,2051.1
534.689,2063.2
535.194,2082.1
535.699,2097.2
536.203,2085.0
536.708,2081.3
537.213,2093.2
537.717,2101.6
538.222,2091.3
538.726,2096.9
539.231,2091.3
539.735,2113.3
540.239,2124.6
540.744,2116.0
541.248,2135.1
541.752,2137.9
542.256,2150.3
542.76,2151.2
543.264,2137.3
543.768,2156.9
544.272,2149.8
544.776,2163.2
545.28,2158.2
545.784,2162.7
546.287,2154.1
546.791,2175.1
547.294,2173.7
547.798,2166.8
548.301,2179.7
548.805,2168.8
549.308,2182.6
549.811,2181.6
550.315,2184.8
550.818,2206.2
551.321,2201.4
551.824,2210.5
552.327,2205.0
552.83,2194.7
553.333,2207.2
553.835,2209.5
554.338,2221.8
554.841,2216.2
555.343,2229.8
555.846,2227.9
556.349,2222.0
556.851,2233.3
557.353,2230.3
557.856,2237.9
558.358,2244.0
558.86,2226.4
559.362,2231.9
559.864,2242.3
560.366,2255.1
560.868,2250.1
561.37,2255.5
561.872,2255.6
562.374,2253.8
562.876,2267.4
563.377,2264.2
563.879,2270.8
564.38,2261.9
564.882,2272.1
565.383,2272.8
565.885,2261.0
566.386,2291.2
566.887,2280.4
567.388,2270.2
567.889,2291.2
568.391,2286.9
568.892,2287.4
569.392,2283.5
569.893,2292.3
570.394,2286.7
570.895,2275.7
571.395,2307.3
571.896,2315.3
572.397,2309.5
572.897,2299.1
573.397,2307.8
573.898,2306.1
574.398,2300.9
574.898,2312.5
575.398,2314.1
575.898,2302.3
576.398,2317.5
576.898,2308.4
577.398,2317.6
577.898,2312.2
578.398,2309.2
578.897,2316.1
579.397,2316.8
579.896,2337.1
580.396,2316.4
580.895,2326.3
581.395,2329.9
581.894,2343.7
582.393,2337.3
582.892,2324.7
583.391,2343.1
583.89,2341.1
584.389,2328.4
584.888,2335.3
585.387,2329.2
585.886,2345.6
586.384,2326.1
586.883,2324.4
587.381,2326.1
587.88,2332.8
588.378,2311.1
588.876,2307.3
589.375,2324.4
589.873,2316.7
590.371,2330.6
590.869,2332.4
591.367,2337.1
591.865,2318.4
592.363,2326.6
592.86,2353.7
593.358,2327.9
593.856,2320.9
594.353,2326.4
594.851,2333.7
595.348,2327.5
595.845,2337.6
596.342,2318.5
596.84,2323.3
597.337,2318.5
597.834,2325.2
598.331,2339.8
598.828,2334.2
599.324,2333.2
599.821,2339.7
600.318,2323.1
600.814,2346.9
601.311,2327.7
601.807,2327.6
602.304,2341.7
602.8,2328.5
603.296,2352.3
603.792,2329.8
604.288,2326.3
604.784,2330.3
605.28,2326.0
605.776,2339.2
606.272,2330.7
606.767,2337.0
607.263,2344.1
607.759,2340.3
608.254,2327.9
608.749,2334.1
609.245,2342.8
609.74,2329.6
610.235,2310.4
610.73,2331.2
611.225,2340.7
611.72,2329.9
612.215,2312.5
612.71,2330.0
613.204,2332.4
613.699,2308.1
614.194,2319.4
614.688,2341.4
615.182,2323.6
615.677,2318.3
616.171,2314.9
616.665,2335.1
617.159,2333.4
617.653,2347.2
618.147,2321.7
618.641,2315.3
619.135,2333.8
619.628,2333.9
620.122,2320.4
620.615,2331.1
621.109,2310.1
621.602,2336.4
622.095,2332.1
622.589,2327.7
623.082,2330.5
623.575,2324.9
624.068,2322.5
624.561,2314.3
625.053,2327.0
625.546,2322.6
626.039,2326.1
626.531,2323.8
627.024,2319.6
627.516,2322.0
628.008,2316.2
628.501,2316.9
628.993,2319.5
629.485,2322.5
629.977,2320.3
630.469,2309.7
630.96,2322.3
631.452,2311.7
631.944,2319.3
632.435,2294.3
632.927,2322.3
633.418,2336.0
633.91,2316.0
634.401,2305.4
634.892,2321.0
635.383,2310.9
635.874,2315.9
636.365,2325.3
636.856,2305.8
637.346,2309.2
637.837,2307.8
638.327,2315.3
638.818,2291.9
639.308,2287.2
639.799,2285.7
640.289,2309.3
640.779,2294.8
641.269,2283.1
641.759,2275.2
642.249,2284.5
642.738,2290.4
643.228,2280.7
643.718,2276.3
644.207,2271.1
644.697,2274.9
645.186,2280.8
645.675,2264.6
646.164,2264.4
646.653,2263.2
647.142,2246.3
647.631,2233.7
648.12,2262.7
648.609,2240.9
649.098,2245.8
649.586,2214.9
650.075,2235.8
650.563,2229.1
651.051,2246.5
651.539,2219.0
652.027,2218.1
652.515,2218.8
653.003,2227.2
653.491,2211.1
653.979,2197.1
654.467,2192.5
654.954,2194.2
655.442,2197.1
655.929,2190.6
656.416,2152.2
656.904,2191.4
657.391,2193.2
657.878,2195.8
658.365,2176.9
658.851,2165.9
659.338,2155.8
659.825,2151.6
660.311,2157.4
660.798,2150.3
661.041,2161.3

File: VLFR_09-PET_bio_Raman_51f64c52.csv
nm,Intensity
528.626,1868.9
529.132,1868.75
529.637,1871.85
530.143,1870.3
530.648,1873.95
531.153,1877.1
531.658,1907.25
532.164,4614.75
532.669,1878.95
533.174,1886.6
533.679,3379.25
534.184,8463.6
534.689,7671.65
535.194,7095.0
535.699,6483.75
536.203,6176.5
536.708,6074.65
537.213,5982.65
537.717,6072.65
538.222,6066.35
538.726,6068.3
539.231,6199.45
539.735,6516.05
540.239,6509.2
540.744,6407.45
541.248,6515.15
541.752,6449.3
542.256,6612.75
542.76,6692.9
543.264,6687.65
543.768,6914.55
544.272,6847.6
544.776,7054.75
545.28,7110.75
545.784,7139.0
546.287,7343.75
546.791,7245.55
547.294,7427.7
547.798,7486.7
548.301,7529.1
548.805,7694.75
549.308,7695.9
549.811,7703.7
550.315,7920.05
550.818,8848.55
551.321,8157.75
551.824,8175.4
552.327,8098.85
552.83,8717.05
553.333,8388.0
553.835,8468.7
554.338,8510.05
554.841,8525.55
555.343,8907.7
555.846,8907.25
556.349,9163.75
556.851,9205.3
557.353,10415.5
557.856,10531.8
558.358,9434.35
558.86,9474.6
559.362,9333.85
559.864,9484.4
560.366,9524.0
560.868,9722.4
561.37,9826.85
561.872,10402.3
562.374,10296.3
562.876,10130.4
563.377,10109.3
563.879,10188.1
564.38,10578.1
564.882,11627.9
565.383,11532.5
565.885,11613.8
566.386,10966.5
566.887,10783.2
567.388,10961.3
567.889,11357.3
568.391,11122.3
568.892,11148.5
569.392,11191.2
569.893,11321.3
570.394,11796.3
570.895,13057.5
571.395,15000.7
571.896,12976.2
572.397,12052.8
572.897,11804.8
573.397,11782.7
573.898,11542.2
574.398,11861.8
574.898,11919.8
575.398,12700.7
575.898,12165.8
576.398,12442.5
576.898,12448.0
577.398,12187.5
577.898,12030.0
578.398,12395.0
578.897,12259.5
579.397,12312.4
579.896,12362.0
580.396,12665.2
580.895,12724.5
581.395,13087.8
581.894,18936.8
582.393,18575.4
582.892,12948.8
583.391,12830.8
583.89,12837.7
584.389,12769.0
584.888,12957.2
585.387,14098.3
585.886,18376.3
586.384,16758.6
586.883,13363.6
587.381,12947.7
587.88,13120.2
588.378,12893.5
588.876,12955.5
589.375,12975.5
589.873,13086.0
590.371,12811.4
590.869,13042.5
591.367,13229.2
591.865,13220.3
592.363,13227.2
592.86,13279.3
593.358,13327.3
593.856,13038.0
594.353,13288.7
594.851,13099.7
595.348,13329.9
595.845,13483.0
596.342,13456.8
596.84,13494.3
597.337,13665.1
597.834,13443.8
598.331,13609.3
598.828,13766.5
599.324,13573.7
599.821,13500.7
600.318,13872.3
600.814,13930.0
601.311,14237.7
601.807,13942.8
602.304,13683.4
602.8,14089.3
603.296,13837.0
603.792,14213.7
604.288,13826.5
604.784,14234.2
605.28,14335.8
605.776,13907.4
606.272,14279.3
606.767,14506.0
607.263,14605.6
607.759,14621.0
608.254,14663.0
608.749,14771.5
609.245,14478.7
609.74,14830.0
610.235,14821.4
610.73,14966.2
611.225,15132.3
611.72,15207.8
612.215,15369.7
612.71,15513.7
613.204,15118.3
613.699,15597.9
614.194,15507.3
614.688,15824.5
615.182,15988.6
615.677,16099.0
616.171,16163.8
616.665,16098.4
617.159,16625.3
617.653,16257.0
618.147,16704.1
618.641,16628.0
619.135,17057.5
619.628,16954.9
620.122,17575.3
620.615,17412.1
621.109,17055.9
621.602,17318.3
622.095,17560.8
622.589,17357.9
623.082,17132.8
623.575,17770.8
624.068,17386.1
624.561,17910.9
625.053,18228.6
625.546,18199.5
626.039,17969.5
626.531,17930.6
627.024,18017.3
627.516,18241.4
628.008,18590.2
628.501,18939.3
628.993,18989.0
629.485,19025.3
629.977,19302.9
630.469,19206.2
630.96,19256.8
631.452,19904.2
631.944,19981.1
632.435,19716.8
632.927,19782.7
633.418,19806.6
633.91,19834.2
634.401,19214.5
634.892,19688.9
635.383,19728.7
635.874,19865.7
636.365,21455.9
636.856,20750.6
637.346,19660.8
637.837,19535.1
638.327,20040.2
638.818,19829.2
639.308,19610.6
639.799,19653.1
640.289,19599.7
640.779,19432.8
641.269,19138.6
641.759,18959.9
642.249,19952.4
642.738,19409.8
643.228,19782.5
643.718,19153.0
644.207,19612.6
644.697,19354.8
645.186,19270.3
645.675,19159.1
646.164,19272.2
646.653,18949.4
647.142,19786.8
647.631,19319.7
648.12,19537.6
648.609,18930.4
649.098,18745.3
649.586,18975.5
650.075,18627.8
650.563,18638.2
651.051,18614.8
651.539,18501.6
652.027,18382.3
652.515,18064.3
653.003,18180.0
653.491,18052.5
653.979,17535.1
654.467,17390.4
654.954,17761.2
655.442,17180.8
655.929,17523.0
656.416,17070.9
656.904,16601.3
657.391,17107.2
657.878,16397.3
658.365,16456.3
658.851,15735.0
659.338,15666.5
659.825,15754.2
660.311,16217.6
660.798,15022.5
661.041,15411.4

File: VLFR_09-PET_bio_Raman_55a1e595.csv
nm,Intensity
528.626,1869.4
529.132,1871.1
529.637,1870.7
530.143,1870.3
530.648,1870.5
531.153,1881.0
531.658,2030.4
532.164,10368.6
532.669,1881.9
533.174,1895.4
533.679,4364.6
534.184,12231.4
534.689,10149.9
535.194,8649.7
535.699,7213.5
536.203,6092.6
536.708,5794.2
537.213,5439.9
537.717,5224.2
538.222,5176.6
538.726,5119.2
539.231,5334.7
539.735,5640.3
540.239,5551.3
540.744,5373.3
541.248,5147.3
541.752,5216.9
542.256,5211.8
542.76,5236.3
543.264,5374.6
543.768,5331.2
544.272,5456.3
544.776,5463.1
545.28,5534.3
545.784,5598.9
546.287,5559.8
546.791,5700.7
547.294,5725.5
547.798,5845.1
548.301,5833.0
548.805,6044.9
549.308,5828.7
549.811,5872.8
550.315,6401.7
550.818,7871.0
551.321,6172.3
551.824,6226.2
552.327,6388.8
552.83,7263.8
553.333,6368.1
553.835,6531.9
554.338,6548.3
554.841,6706.5
555.343,7199.0
555.846,7499.5
556.349,7565.8
556.851,7739.2
557.353,10555.9
557.856,10581.0
558.358,7979.1
558.86,7584.6
559.362,7364.8
559.864,7194.1
560.366,7266.0
560.868,7558.5
561.37,7846.2
561.872,8618.7
562.374,8451.9
562.876,8031.9
563.377,7965.3
563.879,7898.1
564.38,8484.1
564.882,10395.0
565.383,10370.6
565.885,10707.3
566.386,8913.9
566.887,8227.9
567.388,8904.2
567.889,9746.6
568.391,8765.8
568.892,8400.2
569.392,8602.5
569.893,8875.3
570.394,9798.6
570.895,13148.1
571.395,17174.7
571.896,12178.7
572.397,9946.9
572.897,9109.7
573.397,9102.6
573.898,9230.8
574.398,9160.7
574.898,9372.7
575.398,10654.3
575.898,9564.5
576.398,9807.0
576.898,10281.3
577.398,9652.5
577.898,9210.4
578.398,9278.9
578.897,9317.7
579.397,9448.5
579.896,9496.0
580.396,9615.5
580.895,10455.7
581.395,10925.3
581.894,24293.9
582.393,24354.1
582.892,10602.4
583.391,9886.5
583.89,9805.9
584.389,10155.5
584.888,10203.4
585.387,12553.0
585.886,22956.4
586.384,18900.4
586.883,11530.2
587.381,10376.5
587.88,10059.0
588.378,10117.3
588.876,9802.7
589.375,10011.9
589.873,9674.7
590.371,9860.8
590.869,9819.6
591.367,10007.5
591.865,10031.4
592.363,9973.9
592.86,10102.4
593.358,9900.6
593.856,9894.6
594.353,10042.3
594.851,10058.8
595.348,10201.4
595.845,10407.6
596.342,10259.1
596.84,10260.1
597.337,10256.7
597.834,10256.4
598.331,10442.8
598.828,10358.3
599.324,10230.4
599.821,10577.8
600.318,10557.9
600.814,10654.2
601.311,10540.3
601.807,10626.0
602.304,10934.4
602.8,10798.6
603.296,10964.1
603.792,10847.0
604.288,10894.5
604.784,10912.0
605.28,11130.0
605.776,11280.6
606.272,11236.2
606.767,11404.0
607.263,11212.0
607.759,11220.4
608.254,11627.5
608.749,11647.2
609.245,11505.6
609.74,11890.3
610.235,11734.3
610.73,12187.0
611.225,11874.8
611.72,12076.7
612.215,11994.0
612.71,12535.6
613.204,12236.2
613.699,12425.9
614.194,12686.8
614.688,12622.8
615.182,12959.9
615.677,13002.9
616.171,12886.8
616.665,13109.9
617.159,13242.5
617.653,13683.5
618.147,13543.3
618.641,13809.5
619.135,13704.6
619.628,14001.8
620.122,13938.0
620.615,13838.5
621.109,13896.0
621.602,14036.0
622.095,14285.2
622.589,14210.9
623.082,14359.2
623.575,14655.5
624.068,14563.5
624.561,14471.6
625.053,14785.7
625.546,14789.4
626.039,14672.5
626.531,14660.3
627.024,14986.7
627.516,15275.7
628.008,15252.6
628.501,15314.3
628.993,15551.0
629.485,15898.7
629.977,16043.2
630.469,15365.8
630.96,16296.0
631.452,16862.4
631.944,17915.6
632.435,17331.4
632.927,17203.8
633.418,16652.5
633.91,16696.0
634.401,15485.7
634.892,16306.2
635.383,16231.6
635.874,17528.8
636.365,20148.7
636.856,18777.3
637.346,16827.7
637.837,16402.1
638.327,16346.7
638.818,16391.7
639.308,16047.4
639.799,16105.4
640.289,15887.6
640.779,16029.7
641.269,15807.0
641.759,16197.4
642.249,15943.5
642.738,16107.6
643.228,15848.6
643.718,15951.7
644.207,16247.8
644.697,15535.0
645.186,16019.3
645.675,15501.0
646.164,15602.4
646.653,15706.0
647.142,15687.1
647.631,15649.6
648.12,15684.8
648.609,15210.3
649.098,15394.0
649.586,15049.6
650.075,15088.7
650.563,14962.7
651.051,14921.1
651.539,15226.1
652.027,14992.4
652.515,14660.2
653.003,14758.2
653.491,14672.2
653.979,14132.8
654.467,14563.3
654.954,14481.0
655.442,13912.6
655.929,14433.2
656.416,14149.8
656.904,13904.6
657.391,14161.7
657.878,13210.3
658.365,13335.7
658.851,13405.2
659.338,13155.9
659.825,12697.3
660.311,13052.2
660.798,13067.6
661.041,12852.1

File: VLFR_09-PET_bio_Raman_165ccf1c.csv
nm,Intensity
526.508,829.3
527.055,830.7
527.602,829.7
528.149,830.0
528.695,830.0
529.241,829.4
529.787,829.8
530.334,830.3
530.879,830.1
531.425,830.7
531.971,835.9
532.516,831.5
533.062,830.0
533.607,838.6
534.152,1910.2
534.697,1779.1
535.242,1598.4
535.786,1520.1
536.331,1458.8
536.876,1429.5
537.42,1421.9
537.964,1426.9
538.508,1437.6
539.052,1452.6
539.596,1468.3
540.14,1495.2
540.683,1473.6
541.227,1479.4
541.77,1485.1
542.313,1495.6
542.856,1499.4
543.399,1520.9
543.942,1526.6
544.485,1538.1
545.027,1532.5
545.57,1549.4
546.112,1568.8
546.654,1573.9
547.196,1573.7
547.738,1589.4
548.28,1589.0
548.822,1603.8
549.363,1619.2
549.905,1609.8
550.446,1638.9
550.988,1646.8
551.529,1659.6
552.07,1655.4
552.611,1670.7
553.152,1678.8
553.692,1684.7
554.233,1691.8
554.773,1710.8
555.314,1719.0
555.854,1746.4
556.394,1764.8
556.934,1779.4
557.474,1912.8
558.014,1815.3
558.553,1798.2
559.093,1784.9
559.632,1780.9
560.172,1796.7
560.711,1803.2
561.25,1819.9
561.789,1837.9
562.328,1846.1
562.867,1857.0
563.406,1880.6
563.944,1887.8
564.483,1927.2
565.021,1996.7
565.559,2011.6
566.098,2021.7
566.636,1954.3
567.174,1946.3
567.711,2006.3
568.249,1968.9
568.787,1976.4
569.324,1992.0
569.862,2011.9
570.399,2061.1
570.936,2174.7
571.474,2323.2
572.011,2162.1
572.548,2094.7
573.084,2073.4
573.621,2090.2
574.158,2113.4
574.694,2105.6
575.231,2151.5
575.767,2147.7
576.303,2166.8
576.84,2184.5
577.376,2180.1
577.912,2170.2
578.447,2174.9
578.983,2180.7
579.519,2195.9
580.054,2190.4
580.59,2216.2
581.125,2241.2
581.661,2332.9
582.196,3519.1
582.731,2317.7
583.266,2294.7
583.801,2290.2
584.336,2301.7
584.87,2302.1
585.405,2390.1
585.94,2899.3
586.474,2683.0
587.008,2391.7
587.543,2369.2
588.077,2345.7
588.611,2332.3
589.145,2343.8
589.679,2340.9
590.213,2351.3
590.747,2382.7
591.28,2384.8
591.814,2390.5
592.347,2378.5
592.881,2381.3
593.414,2383.9
593.947,2388.4
594.48,2405.2
595.014,2413.2
595.547,2436.3
596.079,2434.4
596.612,2443.5
597.145,2450.3
597.678,2459.8
598.21,2476.0
598.743,2497.0
599.275,2503.5
599.807,2503.4
600.34,2504.9
600.872,2509.3
601.404,2522.7
601.936,2514.6
602.468,2539.0
603.0,2539.2
603.532,2553.7
604.063,2547.4
604.595,2560.6
605.126,2559.6
605.658,2534.7
606.189,2541.4
606.721,2559.4
607.252,2571.5
607.783,2576.1
608.314,2604.3
608.845,2645.2
609.376,2635.4
609.907,2676.6
610.438,2640.3
610.968,2673.7
611.499,2712.0
612.03,2715.7
612.56,2756.1
613.091,2796.5
613.621,2828.7
614.151,2835.6
614.681,2871.4
615.212,2884.5
615.742,2893.8
616.272,2903.0
616.802,2960.5
617.332,2974.6
617.861,2997.5
618.391,3038.2
618.921,3053.7
619.45,3055.7
619.98,3069.9
620.509,3072.5
621.039,3113.4
621.568,3150.4
622.097,3169.0
622.627,3205.1
623.156,3247.7
623.685,3270.4
624.214,3314.3
624.743,3341.2
625.272,3361.8
625.801,3379.1
626.33,3413.8
626.858,3399.5
627.387,3440.2
627.916,3453.5
628.444,3516.9
628.973,3572.9
629.501,3614.6
630.029,3618.6
630.558,3650.9
631.086,3713.2
631.614,3810.8
632.142,3841.1
632.67,3783.5
633.198,3781.2
633.726,3824.7
634.254,3797.1
634.782,3822.5
635.31,3855.2
635.838,3926.4
636.365,4108.0
636.893,4112.9
637.421,3963.2
637.948,3977.2
638.476,3978.5
639.003,4007.3
639.531,4038.3
640.058,4064.9
640.585,4078.8
641.113,4091.7
641.64,4117.9
642.167,4149.8
642.694,4134.1
643.221,4115.7
643.748,4112.9
644.275,4105.3
644.802,4111.7
645.329,4150.2
645.856,4125.8
646.382,4159.6
646.909,4175.7
647.436,4214.3
647.962,4214.6
648.489,4225.4
649.016,4210.1
649.542,4220.1
650.069,4230.9
650.595,4213.6
651.121,4205.3
651.648,4224.8
652.174,4273.3
652.7,4262.2
653.227,4259.4
653.753,4281.9
654.279,4288.6
654.805,4288.4
655.331,4277.4
655.857,4302.7
656.383,4287.3
656.909,4338.9
657.435,4318.7
657.961,4331.7
658.487,4346.3
659.013,4333.4
659.538,4364.7
660.064,4352.4
660.59,4343.6
661.116,4337.7
661.641,4276.3
662.167,4294.0
662.692,4285.6
663.087,4278.6

File: VLFR_09-PET_bio_Raman_184e1003.csv
nm,Intensity
526.508,831.7
527.055,830.1
527.602,831.4
528.149,829.8
528.695,831.9
529.241,830.7
529.787,831.4
530.334,831.2
530.879,830.7
531.425,830.9
531.971,840.8
532.516,832.7
533.062,829.7
533.607,843.9
534.152,2312.6
534.697,2101.2
535.242,1848.0
535.786,1747.1
536.331,1656.3
536.876,1622.5
537.42,1619.8
537.964,1615.6
538.508,1630.1
539.052,1633.7
539.596,1665.9
540.14,1689.5
540.683,1676.1
541.227,1668.9
541.77,1674.6
542.313,1688.1
542.856,1710.3
543.399,1710.7
543.942,1737.8
544.485,1733.9
545.027,1766.1
545.57,1787.4
546.112,1790.2
546.654,1782.0
547.196,1795.4
547.738,1808.3
548.28,1820.1
548.822,1841.2
549.363,1866.8
549.905,1853.2
550.446,1896.0
550.988,1892.4
551.529,1889.5
552.07,1904.5
552.611,1920.8
553.152,1946.2
553.692,1948.6
554.233,1962.7
554.773,1973.6
555.314,1983.8
555.854,2028.4
556.394,2048.6
556.934,2074.7
557.474,2252.2
558.014,2121.2
558.553,2082.5
559.093,2065.7
559.632,2074.3
560.172,2078.3
560.711,2093.2
561.25,2112.4
561.789,2149.3
562.328,2160.3
562.867,2163.1
563.406,2180.5
563.944,2192.0
564.483,2235.4
565.021,2362.5
565.559,2348.4
566.098,2362.4
566.636,2276.9
567.174,2244.4
567.711,2350.2
568.249,2301.3
568.787,2301.4
569.324,2336.3
569.862,2374.7
570.399,2420.9
570.936,2581.8
571.474,2795.1
572.011,2547.5
572.548,2437.7
573.084,2438.5
573.621,2424.4
574.158,2469.9
574.694,2473.8
575.231,2520.2
575.767,2518.3
576.303,2517.1
576.84,2564.1
577.376,2558.9
577.912,2530.3
578.447,2549.3
578.983,2550.3
579.519,2560.1
580.054,2579.9
580.59,2579.9
581.125,2613.1
581.661,2752.1
582.196,4387.5
582.731,2725.1
583.266,2653.7
583.801,2674.7
584.336,2692.6
584.87,2704.8
585.405,2823.7
585.94,3499.0
586.474,3227.1
587.008,2806.9
587.543,2780.8
588.077,2751.9
588.611,2744.6
589.145,2743.0
589.679,2734.8
590.213,2750.9
590.747,2756.5
591.28,2785.2
591.814,2783.7
592.347,2777.5
592.881,2780.2
593.414,2779.6
593.947,2777.0
594.48,2792.7
595.014,2811.6
595.547,2833.4
596.079,2836.5
596.612,2856.0
597.145,2874.8
597.678,2869.5
598.21,2892.3
598.743,2911.5
599.275,2915.0
599.807,2916.1
600.34,2926.9
600.872,2914.1
601.404,2903.1
601.936,2934.0
602.468,2954.1
603.0,2949.9
603.532,2974.7
604.063,2992.7
604.595,2981.2
605.126,2958.1
605.658,2951.2
606.189,2941.6
606.721,2970.9
607.252,2977.7
607.783,3035.6
608.314,3059.8
608.845,3057.7
609.376,3071.4
609.907,3097.1
610.438,3108.9
610.968,3108.2
611.499,3122.2
612.03,3170.5
612.56,3218.9
613.091,3259.0
613.621,3283.1
614.151,3328.1
614.681,3367.5
615.212,3349.9
615.742,3379.2
616.272,3398.4
616.802,3431.5
617.332,3479.7
617.861,3515.5
618.391,3543.3
618.921,3577.2
619.45,3573.1
619.98,3583.2
620.509,3617.9
621.039,3643.1
621.568,3668.2
622.097,3719.7
622.627,3754.0
623.156,3799.0
623.685,3843.7
624.214,3868.4
624.743,3918.6
625.272,3926.7
625.801,3962.6
626.33,3975.7
626.858,4004.7
627.387,4058.6
627.916,4071.5
628.444,4134.1
628.973,4172.3
629.501,4233.8
630.029,4259.9
630.558,4305.6
631.086,4357.8
631.614,4528.4
632.142,4563.6
632.67,4479.7
633.198,4476.3
633.726,4510.4
634.254,4477.5
634.782,4502.1
635.31,4556.3
635.838,4655.2
636.365,4845.4
636.893,4866.2
637.421,4684.0
637.948,4703.5
638.476,4722.6
639.003,4729.7
639.531,4747.5
640.058,4818.2
640.585,4801.8
641.113,4839.7
641.64,4873.0
642.167,4867.3
642.694,4891.1
643.221,4890.9
643.748,4866.8
644.275,4851.8
644.802,4899.4
645.329,4882.2
645.856,4934.4
646.382,4909.2
646.909,4961.4
647.436,5012.5
647.962,5004.2
648.489,4994.5
649.016,5015.0
649.542,4985.1
650.069,5013.2
650.595,5006.5
651.121,5020.4
651.648,5042.1
652.174,5059.4
652.7,5092.3
653.227,5102.3
653.753,5102.4
654.279,5119.8
654.805,5078.8
655.331,5104.8
655.857,5123.0
656.383,5146.0
656.909,5153.5
657.435,5160.9
657.961,5161.6
658.487,5197.7
659.013,5203.0
659.538,5200.3
660.064,5205.1
660.59,5198.4
661.116,5145.7
661.641,5134.7
662.167,5140.6
662.692,5153.3
663.087,5144.1

File: VLFR_09-PET_bio_Raman_227feac7.csv
nm,Intensity
528.65,1845.35
529.155,1846.85
529.66,1848.15
530.165,1845.25
530.67,1847.8
531.175,1849.95
531.68,1888.4
532.185,3981.15
532.69,1852.8
533.194,1860.65
533.699,3084.8
534.204,6872.35
534.708,6776.95
535.213,6712.75
535.717,6667.55
536.222,6509.75
536.726,6499.0
537.231,6813.9
537.735,6970.25
538.239,6971.1
538.743,6890.9
539.247,7216.15
539.751,7482.8
540.255,7545.75
540.759,7511.05
541.263,7782.5
541.767,7895.65
542.271,8060.2
542.775,8163.1
543.279,8453.0
543.782,8444.1
544.286,8564.15
544.789,8730.3
545.293,8705.3
545.796,8921.15
546.3,8981.5
546.803,8952.95
547.306,9102.05
547.81,9234.45
548.313,9245.25
548.816,9568.5
549.319,9340.8
549.822,9410.65
550.325,9701.55
550.828,9836.6
551.331,9916.95
551.834,9914.6
552.337,10075.0
552.839,10224.0
553.342,10222.2
553.844,10304.0
554.347,10401.3
554.849,10476.3
555.352,10882.9
555.854,10987.0
556.357,11298.0
556.859,11090.7
557.361,11826.5
557.863,11762.7
558.365,11752.0
558.867,11650.0
559.369,11543.2
559.871,11851.0
560.373,11963.2
560.875,11921.7
561.377,12316.3
561.878,12763.8
562.38,12763.3
562.881,12566.7
563.383,12830.7
563.884,12693.4
564.386,13133.4
564.887,13247.5
565.388,13379.5
565.89,13731.8
566.391,13453.5
566.892,13318.0
567.393,13424.8
567.894,13782.7
568.395,13835.3
568.896,13722.0
569.396,13966.8
569.897,13938.4
570.398,14298.4
570.898,14549.0
571.399,15658.2
571.9,14937.7
572.4,14793.8
572.9,14427.4
573.401,14623.0
573.901,14630.0
574.401,14866.7
574.901,14635.2
575.401,15399.3
575.901,15310.8
576.401,15113.0
576.901,15196.3
577.401,15306.0
577.901,15761.5
578.4,15644.4
578.9,15380.2
579.399,15576.6
579.899,15878.6
580.398,15788.2
580.898,16140.5
581.397,16231.8
581.896,18100.6
582.395,17603.3
582.895,16435.7
583.394,16450.0
583.893,16358.2
584.391,16416.2
584.89,16679.2
585.389,17066.8
585.888,18713.4
586.386,18248.8
586.885,16913.3
587.384,17105.7
587.882,16989.4
588.38,17120.2
588.879,16588.6
589.377,16782.3
589.875,17050.1
590.373,16972.8
590.871,17086.6
591.369,17363.8
591.867,17287.1
592.365,17372.4
592.863,17234.7
593.361,17290.6
593.858,17304.4
594.356,17519.9
594.853,17532.6
595.351,17523.1
595.848,17886.0
596.345,18053.2
596.843,18127.1
597.34,18395.8
597.837,17670.6
598.334,17976.7
598.831,18050.6
599.328,18106.7
599.824,18147.8
600.321,18426.6
600.818,18420.0
601.314,18184.3
601.811,18901.0
602.307,18205.6
602.804,18969.3
603.3,18408.2
603.796,18196.1
604.293,18452.2
604.789,18477.6
605.285,19119.4
605.781,18845.6
606.277,18853.5
606.772,19261.8
607.268,19055.8
607.764,19198.8
608.259,19055.3
608.755,19528.2
609.25,19517.2
609.746,19621.1
610.241,19387.7
610.736,19681.4
611.231,20123.4
611.727,19720.4
612.222,19875.1
612.716,20164.2
613.211,20116.3
613.706,20416.5
614.201,19970.3
614.695,20800.3
615.19,20890.2
615.684,20951.5
616.179,21334.3
616.673,21122.6
617.168,21207.4
617.662,21569.1
618.156,21315.7
618.65,21688.6
619.144,21697.2
619.638,22408.8
620.131,22703.9
620.625,22713.0
621.119,22444.4
621.612,21779.5
622.106,22616.3
622.599,22935.8
623.093,23153.4
623.586,23059.3
624.079,23043.3
624.572,23424.0
625.065,23607.2
625.558,22969.2
626.051,23859.4
626.544,23606.5
627.037,24333.8
627.529,24679.3
628.022,24727.8
628.514,24978.9
629.007,25350.5
629.499,24853.9
629.991,25471.8
630.483,25194.6
630.976,24906.3
631.468,26104.3
631.959,26153.3
632.451,26047.1
632.943,26992.1
633.435,25847.5
633.926,26724.4
634.418,25947.1
634.909,26761.2
635.401,25589.1
635.892,26682.3
636.383,27250.1
636.874,27238.7
637.365,27231.6
637.856,26256.9
638.347,26954.8
638.838,26241.1
639.329,27602.1
639.819,26323.4
640.31,27385.2
640.8,26330.8
641.291,26746.6
641.781,27051.5
642.271,27110.8
642.761,28161.2
643.251,26388.4
643.741,27095.1
644.231,26961.4
644.721,26992.6
645.211,26972.5
645.7,26530.9
646.19,27079.2
646.679,26386.9
647.169,26476.9
647.658,27184.6
648.147,26368.2
648.636,26647.3
649.125,26207.8
649.614,25957.5
650.103,25739.7
650.592,25433.8
651.08,26459.8
651.569,26025.9
652.058,26200.6
652.546,25610.3
653.034,24929.3
653.523,24684.7
654.011,24513.6
654.499,25422.3
654.987,24505.9
655.475,24556.8
655.963,24775.6
656.45,24412.2
656.938,24270.2
657.425,24205.8
657.913,23136.3
658.4,23159.8
658.888,23197.8
659.375,22445.0
659.862,23369.0
660.349,22623.4
660.836,22712.3
661.079,21909.4