Folder: MPX_specDB/spectra (part 77)

File: VLFR_06-PET_bio_Raman_b4413bef.csv
nm,Intensity
528.626,1865.3
529.132,1865.3
529.637,1865.6
530.143,1866.1
530.648,1867.7
531.153,1869.3
531.658,1910.8
532.164,6024.2
532.669,1872.7
533.174,1877.2
533.679,3343.0
534.184,6910.5
534.689,5630.7
535.194,4611.7
535.699,3719.3
536.203,3248.0
536.708,3024.3
537.213,2958.7
537.717,2934.0
538.222,2950.6
538.726,2967.9
539.231,3023.7
539.735,3095.1
540.239,3022.3
540.744,2936.0
541.248,2876.8
541.752,2888.0
542.256,2910.7
542.76,2940.0
543.264,2901.9
543.768,2971.5
544.272,2949.9
544.776,2965.8
545.28,3022.4
545.784,2988.5
546.287,3013.3
546.791,3035.2
547.294,3070.3
547.798,3078.0
548.301,3093.9
548.805,3118.5
549.308,3122.6
549.811,3121.9
550.315,3258.0
550.818,3617.0
551.321,3189.6
551.824,3195.7
552.327,3247.7
552.83,3522.5
553.333,3203.4
553.835,3270.9
554.338,3276.4
554.841,3340.2
555.343,3451.7
555.846,3630.8
556.349,3765.4
556.851,3777.7
557.353,4425.5
557.856,4147.6
558.358,3892.5
558.86,3780.9
559.362,3539.9
559.864,3534.5
560.366,3562.7
560.868,3600.8
561.37,3627.6
561.872,3643.0
562.374,3714.8
562.876,3829.8
563.377,3785.0
563.879,3742.3
564.38,3801.6
564.882,4022.9
565.383,4317.6
565.885,4603.7
566.386,4116.7
566.887,3871.8
567.388,4072.7
567.889,4225.9
568.391,3907.1
568.892,3908.7
569.392,3980.2
569.893,4142.5
570.394,4512.7
570.895,5299.9
571.395,5805.6
571.896,5024.7
572.397,4430.9
572.897,4190.9
573.397,4203.4
573.898,4302.4
574.398,4347.1
574.898,4345.2
575.398,4594.1
575.898,4362.2
576.398,4627.3
576.898,4584.6
577.398,4386.1
577.898,4381.0
578.398,4370.3
578.897,4375.7
579.397,4433.2
579.896,4457.0
580.396,4514.6
580.895,4617.1
581.395,4833.5
581.894,7790.2
582.393,7492.9
582.892,4703.2
583.391,4627.5
583.89,4677.4
584.389,4655.0
584.888,4856.5
585.387,5539.0
585.886,8013.5
586.384,6853.6
586.883,5041.7
587.381,4789.5
587.88,4784.1
588.378,4721.2
588.876,4713.1
589.375,4751.9
589.873,4708.0
590.371,4660.8
590.869,4729.0
591.367,4743.1
591.865,4784.7
592.363,4829.6
592.86,4836.1
593.358,4788.9
593.856,4811.8
594.353,4766.1
594.851,4801.9
595.348,4898.7
595.845,4881.8
596.342,4898.1
596.84,4965.6
597.337,4871.5
597.834,4964.2
598.331,5019.3
598.828,4971.4
599.324,5031.3
599.821,4972.4
600.318,5113.6
600.814,5057.1
601.311,5074.9
601.807,5146.2
602.304,5074.8
602.8,5099.8
603.296,5148.2
603.792,5166.0
604.288,5131.4
604.784,5140.0
605.28,5185.7
605.776,5149.3
606.272,5193.0
606.767,5274.5
607.263,5208.2
607.759,5245.2
608.254,5227.2
608.749,5340.4
609.245,5297.7
609.74,5372.8
610.235,5362.2
610.73,5375.9
611.225,5328.4
611.72,5360.8
612.215,5415.8
612.71,5347.5
613.204,5379.9
613.699,5346.6
614.194,5407.9
614.688,5429.3
615.182,5472.8
615.677,5410.5
616.171,5504.5
616.665,5480.7
617.159,5527.4
617.653,5678.2
618.147,5464.7
618.641,5640.0
619.135,5535.4
619.628,5536.6
620.122,5610.5
620.615,5595.4
621.109,5525.7
621.602,5492.5
622.095,5540.5
622.589,5512.9
623.082,5612.6
623.575,5585.4
624.068,5660.5
624.561,5626.6
625.053,5579.7
625.546,5664.8
626.039,5684.5
626.531,5519.1
627.024,5636.7
627.516,5792.5
628.008,5736.5
628.501,5864.6
628.993,5865.9
629.485,6004.2
629.977,5875.6
630.469,5926.7
630.96,6123.4
631.452,6715.5
631.944,6919.4
632.435,6465.8
632.927,6427.2
633.418,6128.1
633.91,6252.7
634.401,5977.6
634.892,5940.3
635.383,6021.1
635.874,6529.7
636.365,7177.7
636.856,6861.1
637.346,6294.1
637.837,6004.6
638.327,6076.9
638.818,6095.2
639.308,6094.3
639.799,5950.9
640.289,5938.5
640.779,5924.3
641.269,6077.1
641.759,5884.1
642.249,6046.1
642.738,5968.6
643.228,5905.2
643.718,5909.1
644.207,6065.8
644.697,5936.4
645.186,6054.8
645.675,6079.0
646.164,6018.5
646.653,6032.4
647.142,5948.3
647.631,5831.9
648.12,5740.8
648.609,5934.3
649.098,5829.7
649.586,5679.8
650.075,5813.7
650.563,5798.6
651.051,5694.8
651.539,5644.4
652.027,5794.3
652.515,5794.8
653.003,5772.0
653.491,5716.8
653.979,5596.3
654.467,5497.8
654.954,5650.6
655.442,5604.0
655.929,5634.0
656.416,5430.9
656.904,5396.2
657.391,5523.6
657.878,5350.7
658.365,5276.2
658.851,5279.7
659.338,5232.2
659.825,5144.7
660.311,5196.7
660.798,5164.3
661.041,5127.7

File: VLFR_06-PET_bio_Raman_bbaedad5.csv
nm,Intensity
526.508,830.4
527.055,830.3
527.602,831.0
528.149,830.2
528.695,829.3
529.241,828.1
529.787,830.3
530.334,830.2
530.879,829.4
531.425,829.0
531.971,834.2
532.516,831.5
533.062,830.1
533.607,841.7
534.152,2354.5
534.697,1915.5
535.242,1483.0
535.786,1223.8
536.331,1066.7
536.876,1000.7
537.42,975.3
537.964,960.8
538.508,968.8
539.052,960.5
539.596,977.5
540.14,993.0
540.683,940.5
541.227,922.0
541.77,918.9
542.313,915.0
542.856,915.2
543.399,912.7
543.942,922.4
544.485,919.4
545.027,918.6
545.57,921.7
546.112,914.8
546.654,920.8
547.196,923.6
547.738,923.8
548.28,927.8
548.822,931.1
549.363,930.2
549.905,933.1
550.446,951.9
550.988,962.5
551.529,941.1
552.07,947.9
552.611,953.2
553.152,964.5
553.692,951.0
554.233,947.5
554.773,956.7
555.314,967.7
555.854,1023.4
556.394,1031.4
556.934,1046.4
557.474,1221.9
558.014,1080.6
558.553,1067.1
559.093,1014.6
559.632,979.8
560.172,977.9
560.711,977.3
561.25,986.6
561.789,995.3
562.328,1012.0
562.867,1023.7
563.406,1028.2
563.944,1013.5
564.483,1021.7
565.021,1082.3
565.559,1151.5
566.098,1160.5
566.636,1041.0
567.174,1016.2
567.711,1122.8
568.249,1036.1
568.787,1025.9
569.324,1034.8
569.862,1063.5
570.399,1122.9
570.936,1281.2
571.474,1423.1
572.011,1226.7
572.548,1086.0
573.084,1061.1
573.621,1056.9
574.158,1093.9
574.694,1073.2
575.231,1105.7
575.767,1075.9
576.303,1112.2
576.84,1128.3
577.376,1087.8
577.912,1067.9
578.447,1075.1
578.983,1082.8
579.519,1082.7
580.054,1087.8
580.59,1098.8
581.125,1117.0
581.661,1218.8
582.196,2663.1
582.731,1180.1
583.266,1118.1
583.801,1112.2
584.336,1122.2
584.87,1142.3
585.405,1267.0
585.94,1901.2
586.474,1597.0
587.008,1196.4
587.543,1143.1
588.077,1128.5
588.611,1125.1
589.145,1129.1
589.679,1123.4
590.213,1128.9
590.747,1128.3
591.28,1121.5
591.814,1131.6
592.347,1130.0
592.881,1127.0
593.414,1130.2
593.947,1130.2
594.48,1132.8
595.014,1146.0
595.547,1143.0
596.079,1143.4
596.612,1153.7
597.145,1142.4
597.678,1150.9
598.21,1150.0
598.743,1152.4
599.275,1148.1
599.807,1156.0
600.34,1151.4
600.872,1144.9
601.404,1152.7
601.936,1157.2
602.468,1152.9
603.0,1162.4
603.532,1151.7
604.063,1161.6
604.595,1157.0
605.126,1150.8
605.658,1150.4
606.189,1153.3
606.721,1143.9
607.252,1143.7
607.783,1155.4
608.314,1157.7
608.845,1159.3
609.376,1161.9
609.907,1163.7
610.438,1159.9
610.968,1160.1
611.499,1165.5
612.03,1163.4
612.56,1172.0
613.091,1178.2
613.621,1184.0
614.151,1183.0
614.681,1180.6
615.212,1181.1
615.742,1185.9
616.272,1181.7
616.802,1189.5
617.332,1191.0
617.861,1200.8
618.391,1202.1
618.921,1202.0
619.45,1191.0
619.98,1196.6
620.509,1199.1
621.039,1196.7
621.568,1197.3
622.097,1197.5
622.627,1205.6
623.156,1216.6
623.685,1209.5
624.214,1225.9
624.743,1222.1
625.272,1231.5
625.801,1229.0
626.33,1226.6
626.858,1231.0
627.387,1233.3
627.916,1247.0
628.444,1264.7
628.973,1291.1
629.501,1291.8
630.029,1292.1
630.558,1287.1
631.086,1361.1
631.614,1522.7
632.142,1500.2
632.67,1410.1
633.198,1391.7
633.726,1364.6
634.254,1341.0
634.782,1316.4
635.31,1327.7
635.838,1403.4
636.365,1553.5
636.893,1549.7
637.421,1388.7
637.948,1343.9
638.476,1333.2
639.003,1334.2
639.531,1336.0
640.058,1344.9
640.585,1346.6
641.113,1352.2
641.64,1357.5
642.167,1371.0
642.694,1367.8
643.221,1359.5
643.748,1352.5
644.275,1363.9
644.802,1359.5
645.329,1365.7
645.856,1368.4
646.382,1361.8
646.909,1373.4
647.436,1380.2
647.962,1386.9
648.489,1374.6
649.016,1382.0
649.542,1382.2
650.069,1384.5
650.595,1383.7
651.121,1384.1
651.648,1391.3
652.174,1394.2
652.7,1388.3
653.227,1392.4
653.753,1403.8
654.279,1391.3
654.805,1403.5
655.331,1411.5
655.857,1399.7
656.383,1399.0
656.909,1401.7
657.435,1405.6
657.961,1401.7
658.487,1408.1
659.013,1405.5
659.538,1416.5
660.064,1413.7
660.59,1404.5
661.116,1420.3
661.641,1395.2
662.167,1406.6
662.692,1405.9
663.087,1397.7

File: VLFR_06-PET_bio_Raman_bf6f0c2d.csv
nm,Intensity
526.493,828.95
527.039,828.65
527.586,828.95
528.133,829.4
528.679,829.2
529.225,828.35
529.771,829.2
530.317,830.2
530.863,828.7
531.409,827.65
531.955,831.7
532.5,829.0
533.046,829.05
533.591,838.1
534.136,1872.45
534.681,1587.55
535.226,1313.75
535.771,1135.85
536.315,1033.45
536.86,988.5
537.404,968.55
537.948,964.5
538.493,967.05
539.037,972.3
539.58,976.8
540.124,980.65
540.668,951.8
541.211,940.0
541.755,932.1
542.298,937.5
542.841,937.15
543.384,935.1
543.927,944.9
544.47,937.7
545.013,937.85
545.555,938.0
546.098,943.9
546.64,944.1
547.182,944.0
547.724,946.2
548.266,947.4
548.808,951.9
549.35,952.4
549.892,950.55
550.433,964.9
550.974,973.6
551.516,962.25
552.057,963.35
552.598,966.55
553.139,982.5
553.68,965.0
554.22,966.3
554.761,968.05
555.301,976.9
555.842,1015.95
556.382,1017.25
556.922,1027.7
557.462,1123.85
558.002,1043.55
558.542,1038.0
559.082,1005.05
559.621,985.25
560.161,985.3
560.7,986.25
561.239,984.9
561.778,990.95
562.317,1003.95
562.856,1011.3
563.395,1016.55
563.934,1002.4
564.472,1013.6
565.011,1046.0
565.549,1096.3
566.088,1098.1
566.626,1028.25
567.164,1010.6
567.702,1079.35
568.24,1023.75
568.777,1021.15
569.315,1025.35
569.853,1047.1
570.39,1081.25
570.927,1184.2
571.465,1268.3
572.002,1151.5
572.539,1067.2
573.076,1044.6
573.612,1047.05
574.149,1061.15
574.686,1052.1
575.222,1072.35
575.759,1057.9
576.295,1080.0
576.831,1086.25
577.367,1063.7
577.903,1054.55
578.439,1060.35
578.975,1058.2
579.511,1061.65
580.046,1066.4
580.582,1067.8
581.117,1082.05
581.653,1140.85
582.188,2025.25
582.723,1123.15
583.258,1082.2
583.793,1082.05
584.328,1085.65
584.863,1095.7
585.398,1159.9
585.932,1576.35
586.467,1388.85
587.001,1126.0
587.535,1097.35
588.07,1086.5
588.604,1088.6
589.138,1081.85
589.672,1083.55
590.206,1078.75
590.739,1083.05
591.273,1087.15
591.807,1085.35
592.34,1087.3
592.873,1086.05
593.407,1083.6
593.94,1085.15
594.473,1087.05
595.006,1083.95
595.539,1091.2
596.072,1090.95
596.605,1091.7
597.138,1094.05
597.67,1094.95
598.203,1099.75
598.735,1098.2
599.268,1097.7
599.8,1099.0
600.332,1098.05
600.865,1095.4
601.397,1099.6
601.929,1099.05
602.46,1098.9
602.992,1096.8
603.524,1099.45
604.056,1102.7
604.587,1096.45
605.119,1096.05
605.65,1094.05
606.182,1088.95
606.713,1091.85
607.244,1094.2
607.775,1097.05
608.306,1092.85
608.837,1096.05
609.368,1097.1
609.899,1091.3
610.43,1097.6
610.961,1094.55
611.491,1091.15
612.022,1095.45
612.552,1102.9
613.083,1106.05
613.613,1108.9
614.143,1107.25
614.673,1110.1
615.203,1108.0
615.734,1106.75
616.263,1111.1
616.793,1111.7
617.323,1114.0
617.853,1116.3
618.383,1114.7
618.912,1115.4
619.442,1112.6
619.971,1107.35
620.501,1106.6
621.03,1106.25
621.56,1107.85
622.089,1110.2
622.618,1111.45
623.147,1117.25
623.676,1116.6
624.205,1120.6
624.734,1129.3
625.263,1123.6
625.792,1126.05
626.321,1121.35
626.849,1125.75
627.378,1124.05
627.906,1128.75
628.435,1143.3
628.963,1161.55
629.492,1157.65
630.02,1150.15
630.548,1160.7
631.077,1198.3
631.605,1304.9
632.133,1294.45
632.661,1226.7
633.189,1213.0
633.717,1202.55
634.245,1179.45
634.773,1166.75
635.3,1173.7
635.828,1220.6
636.356,1318.7
636.883,1317.6
637.411,1205.65
637.938,1180.3
638.466,1173.7
638.993,1172.6
639.521,1173.75
640.048,1170.25
640.575,1172.05
641.103,1176.95
641.63,1181.25
642.157,1183.5
642.684,1187.2
643.211,1176.45
643.738,1176.8
644.265,1167.85
644.792,1173.4
645.319,1171.75
645.845,1179.05
646.372,1177.1
646.899,1178.65
647.425,1185.9
647.952,1180.75
648.479,1179.15
649.005,1181.05
649.532,1180.3
650.058,1175.8
650.585,1173.55
651.111,1176.05
651.637,1177.4
652.164,1177.25
652.69,1180.95
653.216,1180.8
653.742,1182.25
654.268,1176.05
654.794,1177.55
655.32,1181.9
655.846,1177.7
656.372,1180.6
656.898,1180.6
657.424,1179.0
657.95,1176.3
658.476,1180.5
659.002,1175.2
659.528,1180.9
660.053,1178.9
660.579,1172.1
661.105,1173.35
661.63,1171.95
662.156,1165.8
662.681,1172.95
663.076,1164.4

File: VLFR_06-PET_bio_Raman_c0ad7885.csv
nm,Intensity
528.65,1883.5
529.155,1887.45
529.66,1885.55
530.165,1889.8
530.67,1888.75
531.175,1898.15
531.68,1941.45
532.185,4118.95
532.69,1922.3
533.194,1981.4
533.699,10317.1
534.204,36434.4
534.708,38928.1
535.213,40208.7
535.717,41425.5
536.222,40727.1
536.726,41784.8
537.231,42876.6
537.735,43566.0
538.239,43694.3
538.743,44717.7
539.247,45760.8
539.751,47242.0
540.255,47598.5
540.759,47795.2
541.263,48309.8
541.767,49322.3
542.271,49750.9
542.775,51298.3
543.279,51623.2
543.782,52230.4
544.286,52705.8
544.789,53112.8
545.293,53864.0
545.796,54207.9
546.3,55147.2
546.803,55880.6
547.306,55990.9
547.81,56114.9
548.313,57225.7
548.816,57521.6
549.319,57595.3
549.822,57911.9
550.325,58487.2
550.828,59283.9
551.331,59151.3
551.834,60322.5
552.337,60581.6
552.839,60503.1
553.342,61177.1
553.844,61154.4
554.347,61972.8
554.849,62367.4
555.352,62402.4
555.854,62830.8
556.357,63079.8
556.859,63397.8
557.361,63258.1
557.863,63564.9
558.365,63906.6
558.867,64227.7
559.369,64432.6
559.871,64753.5
560.373,64597.1
560.875,64706.1
561.377,65057.8
561.878,65085.1
562.38,65050.1
562.881,65245.1
563.383,65307.9
563.884,65330.6
564.386,65474.6
564.887,65478.7
565.388,65508.6
565.89,65529.6
566.391,65508.6
566.892,65512.9
567.393,65535.0
567.894,65535.0
568.395,65535.0
568.896,65535.0
569.396,65535.0
569.897,65535.0
570.398,65535.0
570.898,65535.0
571.399,65535.0
571.9,65535.0
572.4,65535.0
572.9,65535.0
573.401,65535.0
573.901,65535.0
574.401,65535.0
574.901,65535.0
575.401,65535.0
575.901,65535.0
576.401,65535.0
576.901,65535.0
577.401,65535.0
577.901,65535.0
578.4,65535.0
578.9,65535.0
579.399,65535.0
579.899,65535.0
580.398,65535.0
580.898,65535.0
581.397,65535.0
581.896,65535.0
582.395,65535.0
582.895,65535.0
583.394,65535.0
583.893,65535.0
584.391,65535.0
584.89,65535.0
585.389,65535.0
585.888,65535.0
586.386,65535.0
586.885,65535.0
587.384,65535.0
587.882,65535.0
588.38,65535.0
588.879,65535.0
589.377,65535.0
589.875,65535.0
590.373,65535.0
590.871,65535.0
591.369,65535.0
591.867,65535.0
592.365,65535.0
592.863,65535.0
593.361,65535.0
593.858,65535.0
594.356,65535.0
594.853,65535.0
595.351,65535.0
595.848,65535.0
596.345,65535.0
596.843,65535.0
597.34,65535.0
597.837,65535.0
598.334,65535.0
598.831,65535.0
599.328,65535.0
599.824,65535.0
600.321,65535.0
600.818,65535.0
601.314,65535.0
601.811,65535.0
602.307,65535.0
602.804,65535.0
603.3,65535.0
603.796,65535.0
604.293,65535.0
604.789,65535.0
605.285,65535.0
605.781,65535.0
606.277,65535.0
606.772,65535.0
607.268,65535.0
607.764,65535.0
608.259,65535.0
608.755,65535.0
609.25,65535.0
609.746,65535.0
610.241,65535.0
610.736,65535.0
611.231,65535.0
611.727,65535.0
612.222,65535.0
612.716,65535.0
613.211,65535.0
613.706,65535.0
614.201,65535.0
614.695,65535.0
615.19,65535.0
615.684,65535.0
616.179,65535.0
616.673,65535.0
617.168,65535.0
617.662,65535.0
618.156,65535.0
618.65,65535.0
619.144,65535.0
619.638,65535.0
620.131,65535.0
620.625,65535.0
621.119,65535.0
621.612,65535.0
622.106,65535.0
622.599,65535.0
623.093,65535.0
623.586,65535.0
624.079,65535.0
624.572,65535.0
625.065,65535.0
625.558,65535.0
626.051,65535.0
626.544,65535.0
627.037,65535.0
627.529,65535.0
628.022,65535.0
628.514,65535.0
629.007,65535.0
629.499,65535.0
629.991,65535.0
630.483,65535.0
630.976,65535.0
631.468,65535.0
631.959,65535.0
632.451,65535.0
632.943,65535.0
633.435,65535.0
633.926,65535.0
634.418,65535.0
634.909,65535.0
635.401,65535.0
635.892,65535.0
636.383,65535.0
636.874,65535.0
637.365,65535.0
637.856,65535.0
638.347,65535.0
638.838,65535.0
639.329,65535.0
639.819,65535.0
640.31,65535.0
640.8,65515.2
641.291,65535.0
641.781,65531.3
642.271,65535.0
642.761,65475.3
643.251,65442.5
643.741,65486.1
644.231,65459.1
644.721,65135.3
645.211,65476.4
645.7,65307.0
646.19,65204.4
646.679,65356.3
647.169,65117.1
647.658,64877.1
648.147,64941.1
648.636,64662.6
649.125,64353.5
649.614,64501.5
650.103,64418.3
650.592,63920.0
651.08,64114.3
651.569,63180.6
652.058,63558.4
652.546,62936.9
653.034,63149.4
653.523,63346.9
654.011,62332.9
654.499,61843.9
654.987,62063.8
655.475,62031.8
655.963,61579.1
656.45,61900.2
656.938,61045.7
657.425,61539.3
657.913,60006.9
658.4,60235.3
658.888,59086.9
659.375,58146.9
659.862,58420.4
660.349,57959.5
660.836,58019.1
661.079,57964.2

File: VLFR_06-PET_bio_Raman_c4d3fb5c.csv
nm,Intensity
526.508,830.1
527.055,831.7
527.602,829.3
528.149,830.3
528.695,829.9
529.241,830.4
529.787,831.2
530.334,830.1
530.879,830.3
531.425,830.7
531.971,836.7
532.516,832.0
533.062,830.0
533.607,846.1
534.152,2411.2
534.697,1966.0
535.242,1509.5
535.786,1248.2
536.331,1092.4
536.876,1023.9
537.42,1005.3
537.964,993.3
538.508,990.4
539.052,991.1
539.596,1012.8
540.14,1015.1
540.683,965.6
541.227,949.3
541.77,944.2
542.313,941.5
542.856,944.1
543.399,942.3
543.942,952.2
544.485,949.0
545.027,952.7
545.57,949.3
546.112,960.2
546.654,954.2
547.196,955.4
547.738,956.9
548.28,961.7
548.822,965.6
549.363,968.8
549.905,966.3
550.446,989.2
550.988,994.2
551.529,971.6
552.07,981.6
552.611,992.8
553.152,1010.1
553.692,995.7
554.233,989.5
554.773,996.0
555.314,1015.3
555.854,1074.4
556.394,1087.1
556.934,1102.4
557.474,1271.9
558.014,1131.7
558.553,1125.4
559.093,1061.2
559.632,1029.1
560.172,1030.9
560.711,1031.0
561.25,1038.8
561.789,1042.8
562.328,1063.7
562.867,1078.0
563.406,1079.2
563.944,1066.2
564.483,1080.5
565.021,1135.8
565.559,1217.5
566.098,1224.6
566.636,1106.2
567.174,1089.5
567.711,1188.2
568.249,1099.8
568.787,1092.9
569.324,1105.7
569.862,1132.6
570.399,1191.2
570.936,1352.0
571.474,1519.2
572.011,1305.6
572.548,1175.2
573.084,1133.5
573.621,1136.4
574.158,1173.0
574.694,1149.7
575.231,1194.3
575.767,1154.5
576.303,1194.4
576.84,1213.0
577.376,1173.7
577.912,1153.9
578.447,1160.7
578.983,1158.0
579.519,1170.4
580.054,1170.0
580.59,1183.6
581.125,1208.2
581.661,1313.4
582.196,2813.6
582.731,1268.5
583.266,1203.0
583.801,1201.3
584.336,1215.3
584.87,1240.2
585.405,1368.8
585.94,2038.1
586.474,1690.0
587.008,1273.9
587.543,1226.0
588.077,1223.0
588.611,1223.3
589.145,1210.7
589.679,1223.3
590.213,1225.5
590.747,1220.7
591.28,1227.0
591.814,1227.3
592.347,1230.9
592.881,1229.2
593.414,1228.9
593.947,1214.0
594.48,1230.1
595.014,1239.9
595.547,1251.6
596.079,1239.9
596.612,1241.0
597.145,1240.5
597.678,1244.2
598.21,1249.1
598.743,1256.5
599.275,1251.3
599.807,1252.7
600.34,1253.6
600.872,1253.8
601.404,1252.7
601.936,1252.5
602.468,1257.5
603.0,1258.0
603.532,1262.9
604.063,1255.7
604.595,1261.0
605.126,1256.2
605.658,1248.6
606.189,1247.4
606.721,1247.7
607.252,1249.8
607.783,1255.7
608.314,1260.0
608.845,1254.6
609.376,1262.5
609.907,1254.4
610.438,1260.6
610.968,1256.6
611.499,1259.7
612.03,1266.2
612.56,1273.1
613.091,1276.2
613.621,1280.8
614.151,1289.7
614.681,1292.2
615.212,1288.0
615.742,1286.7
616.272,1286.7
616.802,1290.6
617.332,1295.8
617.861,1308.2
618.391,1317.2
618.921,1307.4
619.45,1302.7
619.98,1300.3
620.509,1303.8
621.039,1299.2
621.568,1309.7
622.097,1312.1
622.627,1314.4
623.156,1316.8
623.685,1320.3
624.214,1328.5
624.743,1335.4
625.272,1336.4
625.801,1332.0
626.33,1335.1
626.858,1335.3
627.387,1345.6
627.916,1356.1
628.444,1372.4
628.973,1413.6
629.501,1412.3
630.029,1395.7
630.558,1406.1
631.086,1489.7
631.614,1637.2
632.142,1622.7
632.67,1523.4
633.198,1502.5
633.726,1477.7
634.254,1448.0
634.782,1433.1
635.31,1441.7
635.838,1521.2
636.365,1681.1
636.893,1682.5
637.421,1507.9
637.948,1474.4
638.476,1466.5
639.003,1456.5
639.531,1468.6
640.058,1457.0
640.585,1468.9
641.113,1481.2
641.64,1481.7
642.167,1496.0
642.694,1496.8
643.221,1482.1
643.748,1485.2
644.275,1480.5
644.802,1486.3
645.329,1489.7
645.856,1495.2
646.382,1493.0
646.909,1496.8
647.436,1511.3
647.962,1510.5
648.489,1507.4
649.016,1507.5
649.542,1511.2
650.069,1501.3
650.595,1514.5
651.121,1518.9
651.648,1526.0
652.174,1523.5
652.7,1519.0
653.227,1525.1
653.753,1531.4
654.279,1537.4
654.805,1525.7
655.331,1524.8
655.857,1536.0
656.383,1536.7
656.909,1533.3
657.435,1547.8
657.961,1537.1
658.487,1532.3
659.013,1538.8
659.538,1542.3
660.064,1536.5
660.59,1549.3
661.116,1532.8
661.641,1530.1
662.167,1534.6
662.692,1531.5
663.087,1524.2

File: VLFR_06-PET_bio_Raman_c6aee2f4.csv
nm,Intensity
528.65,1845.8
529.155,1846.55
529.66,1845.75
530.165,1846.5
530.67,1846.65
531.175,1847.95
531.68,1863.85
532.185,2636.1
532.69,1847.7
533.194,1848.35
533.699,2172.35
534.204,2851.2
534.708,2639.1
535.213,2543.45
535.717,2413.6
536.222,2315.8
536.726,2313.8
537.231,2305.7
537.735,2295.65
538.239,2323.5
538.743,2327.5
539.247,2338.4
539.751,2357.85
540.255,2347.6
540.759,2358.45
541.263,2334.9
541.767,2339.55
542.271,2347.85
542.775,2363.2
543.279,2372.85
543.782,2390.75
544.286,2401.95
544.789,2400.8
545.293,2402.05
545.796,2417.1
546.3,2530.6
546.803,2490.5
547.306,2437.25
547.81,2447.0
548.313,2458.45
548.816,2469.25
549.319,2467.65
549.822,2487.1
550.325,2549.25
550.828,2564.55
551.331,2514.7
551.834,2534.65
552.337,2500.65
552.839,2567.2
553.342,2526.8
553.844,2502.15
554.347,2526.7
554.849,2538.15
555.352,2579.6
555.854,2590.65
556.357,2620.25
556.859,2622.75
557.361,2766.5
557.863,2680.95
558.365,2676.6
558.867,2649.05
559.369,2617.5
559.871,2604.25
560.373,2630.7
560.875,2647.65
561.377,2666.9
561.878,2765.2
562.38,3487.25
562.881,2723.5
563.383,2707.85
563.884,2703.85
564.386,2739.15
564.887,2767.05
565.388,2895.75
565.89,2938.5
566.391,2918.15
566.892,2806.65
567.393,2868.2
567.894,2867.15
568.395,2856.6
568.896,2879.6
569.396,2897.6
569.897,2925.7
570.398,3035.2
570.898,3168.7
571.399,3281.55
571.9,3137.0
572.4,3062.35
572.9,3054.9
573.401,3031.7
573.901,3068.5
574.401,3072.2
574.901,3084.4
575.401,3135.45
575.901,3098.45
576.401,3179.05
576.901,3161.75
577.401,3111.95
577.901,3155.05
578.4,3146.4
578.9,3184.65
579.399,3199.35
579.899,3215.0
580.398,3229.8
580.898,3258.2
581.397,3347.95
581.896,3872.85
582.395,3718.95
582.895,3297.65
583.394,3287.8
583.893,3295.9
584.391,3322.05
584.89,3303.25
585.389,3463.55
585.888,3874.0
586.386,3642.6
586.885,3346.5
587.384,3343.25
587.882,3330.6
588.38,3304.3
588.879,3353.75
589.377,3332.8
589.875,3360.8
590.373,3321.25
590.871,3295.15
591.369,3351.05
591.867,3353.3
592.365,3395.35
592.863,3349.95
593.361,3367.65
593.858,3333.8
594.356,3374.85
594.853,3381.05
595.351,3377.0
595.848,3388.45
596.345,3364.35
596.843,3384.1
597.34,3388.0
597.837,3423.8
598.334,3390.5
598.831,3399.2
599.328,3410.55
599.824,3393.65
600.321,3429.6
600.818,3455.5
601.314,3455.8
601.811,3432.85
602.307,3413.75
602.804,3466.35
603.3,3515.6
603.796,3455.3
604.293,3456.8
604.789,3477.55
605.285,3429.6
605.781,3462.2
606.277,3460.25
606.772,3491.7
607.268,3521.65
607.764,3457.1
608.259,3493.4
608.755,3484.0
609.25,3508.25
609.746,3516.5
610.241,3464.3
610.736,3542.25
611.231,3559.2
611.727,3514.1
612.222,3561.25
612.716,3508.85
613.211,3521.4
613.706,3495.1
614.201,3535.9
614.695,3558.55
615.19,3566.45
615.684,3539.25
616.179,3556.85
616.673,3580.65
617.168,3558.8
617.662,3594.4
618.156,3668.05
618.65,3643.15
619.144,3644.45
619.638,3584.6
620.131,3623.55
620.625,3630.6
621.119,3622.9
621.612,3634.1
622.106,3596.75
622.599,3641.15
623.093,3655.2
623.586,3719.55
624.079,3691.2
624.572,3657.4
625.065,3781.7
625.558,3678.35
626.051,3694.6
626.544,3688.6
627.037,3728.65
627.529,3790.6
628.022,3768.85
628.514,3797.75
629.007,3828.95
629.499,3901.1
629.991,3772.15
630.483,3868.15
630.976,3859.8
631.468,4082.7
631.959,4079.3
632.451,3996.5
632.943,4026.45
633.435,4035.25
633.926,3967.95
634.418,3955.35
634.909,3999.9
635.401,3934.75
635.892,4040.5
636.383,4206.15
636.874,4131.75
637.365,4016.6
637.856,4007.85
638.347,4014.25
638.838,3956.1
639.329,4016.3
639.819,3917.75
640.31,3987.35
640.8,3957.85
641.291,3882.6
641.781,3968.65
642.271,4004.15
642.761,3947.2
643.251,3873.85
643.741,3988.2
644.231,3936.65
644.721,3928.45
645.211,3938.25
645.7,3976.1
646.19,3958.45
646.679,3916.25
647.169,3914.65
647.658,3978.6
648.147,3880.05
648.636,3860.2
649.125,3896.85
649.614,3841.45
650.103,3965.15
650.592,3814.85
651.08,3939.3
651.569,3854.85
652.058,3817.4
652.546,3827.3
653.034,3770.85
653.523,3833.3
654.011,3875.95
654.499,3723.35
654.987,3775.9
655.475,3701.3
655.963,3710.15
656.45,3671.0
656.938,3737.9
657.425,3644.05
657.913,3652.45
658.4,3537.85
658.888,3605.5
659.375,3504.2
659.862,3519.7
660.349,3536.55
660.836,3468.25
661.079,3462.15