Folder: MPX_specDB/spectra (part 2)

File: VLFR_01-LDPE_bio_Raman_3f62140c.csv
nm,Intensity
526.508,830.0
527.055,830.7
527.602,829.9
528.149,829.3
528.695,829.2
529.241,830.5
529.787,829.3
530.334,830.6
530.879,831.1
531.425,830.5
531.971,836.4
532.516,832.5
533.062,829.1
533.607,830.9
534.152,917.8
534.697,906.6
535.242,891.9
535.786,872.5
536.331,866.7
536.876,866.9
537.42,862.6
537.964,863.2
538.508,856.9
539.052,856.4
539.596,851.5
540.14,854.4
540.683,850.6
541.227,848.8
541.77,849.6
542.313,849.1
542.856,849.6
543.399,845.5
543.942,850.2
544.485,848.2
545.027,846.4
545.57,846.8
546.112,847.3
546.654,845.9
547.196,845.7
547.738,845.5
548.28,845.2
548.822,844.7
549.363,846.7
549.905,845.4
550.446,845.3
550.988,844.6
551.529,843.3
552.07,845.0
552.611,846.0
553.152,848.8
553.692,849.5
554.233,850.4
554.773,850.7
555.314,852.4
555.854,853.9
556.394,854.4
556.934,854.8
557.474,856.8
558.014,861.6
558.553,861.9
559.093,858.6
559.632,858.3
560.172,856.8
560.711,858.0
561.25,857.5
561.789,861.9
562.328,865.7
562.867,868.8
563.406,872.9
563.944,930.4
564.483,894.0
565.021,889.3
565.559,882.6
566.098,939.4
566.636,885.2
567.174,884.1
567.711,888.0
568.249,881.5
568.787,881.1
569.324,885.8
569.862,889.3
570.399,898.6
570.936,909.7
571.474,1004.0
572.011,945.5
572.548,917.9
573.084,920.3
573.621,927.4
574.158,937.4
574.694,935.0
575.231,949.0
575.767,997.8
576.303,1116.9
576.84,1068.8
577.376,1059.0
577.912,1026.8
578.447,1044.1
578.983,1055.4
579.519,1081.2
580.054,1104.9
580.59,1131.2
581.125,1159.9
581.661,1182.1
582.196,1201.9
582.731,1236.8
583.266,1257.2
583.801,1271.5
584.336,1296.7
584.87,1315.5
585.405,1333.5
585.94,1353.0
586.474,1384.1
587.008,1395.5
587.543,1429.2
588.077,1446.6
588.611,1467.4
589.145,1501.1
589.679,1523.9
590.213,1545.8
590.747,1577.8
591.28,1601.1
591.814,1626.0
592.347,1637.5
592.881,1657.0
593.414,1668.5
593.947,1694.2
594.48,1709.0
595.014,1740.9
595.547,1759.7
596.079,1791.7
596.612,1831.6
597.145,1850.7
597.678,1894.7
598.21,1921.3
598.743,1958.8
599.275,1977.5
599.807,1992.5
600.34,2006.1
600.872,1991.4
601.404,2005.4
601.936,1999.6
602.468,1986.4
603.0,1957.1
603.532,1938.0
604.063,1902.4
604.595,1858.6
605.126,1803.3
605.658,1746.9
606.189,1712.9
606.721,1665.4
607.252,1629.7
607.783,1606.1
608.314,1575.7
608.845,1542.0
609.376,1512.3
609.907,1504.4
610.438,1481.4
610.968,1456.0
611.499,1442.9
612.03,1422.8
612.56,1419.0
613.091,1405.9
613.621,1399.2
614.151,1377.9
614.681,1367.8
615.212,1354.1
615.742,1335.6
616.272,1327.5
616.802,1308.8
617.332,1313.6
617.861,1296.5
618.391,1290.8
618.921,1279.5
619.45,1272.5
619.98,1267.8
620.509,1262.1
621.039,1256.6
621.568,1269.8
622.097,1299.1
622.627,1301.9
623.156,1255.3
623.685,1242.1
624.214,1242.6
624.743,1238.1
625.272,1232.7
625.801,1241.5
626.33,1279.3
626.858,1565.6
627.387,2145.7
627.916,1789.2
628.444,2033.5
628.973,1832.5
629.501,1699.0
630.029,1574.6
630.558,1543.8
631.086,1391.3
631.614,1298.0
632.142,1267.6
632.67,1249.4
633.198,1249.7
633.726,1257.7
634.254,1245.2
634.782,1250.2
635.31,1252.0
635.838,1261.1
636.365,1264.1
636.893,1273.6
637.421,1272.5
637.948,1275.2
638.476,1276.4
639.003,1280.8
639.531,1281.6
640.058,1292.7
640.585,1294.4
641.113,1304.1
641.64,1310.9
642.167,1316.1
642.694,1318.0
643.221,1322.4
643.748,1333.3
644.275,1324.6
644.802,1332.2
645.329,1325.8
645.856,1342.4
646.382,1344.3
646.909,1332.0
647.436,1342.2
647.962,1344.3
648.489,1345.0
649.016,1339.7
649.542,1347.9
650.069,1353.7
650.595,1352.6
651.121,1350.5
651.648,1364.0
652.174,1358.5
652.7,1364.4
653.227,1368.1
653.753,1367.2
654.279,1361.7
654.805,1361.5
655.331,1360.1
655.857,1359.8
656.383,1350.8
656.909,1341.6
657.435,1340.3
657.961,1321.5
658.487,1311.2
659.013,1295.7
659.538,1285.5
660.064,1272.2
660.59,1253.2
661.116,1235.4
661.641,1219.5
662.167,1206.3
662.692,1191.7
663.087,1178.3

File: VLFR_01-LDPE_bio_Raman_4c1d0e24.csv
nm,Intensity
528.65,1837.5
529.155,1836.85
529.66,1837.95
530.165,1837.05
530.67,1837.15
531.175,1838.9
531.68,1850.8
532.185,2241.0
532.69,1839.65
533.194,1838.1
533.699,1923.0
534.204,2072.65
534.708,2054.6
535.213,2013.65
535.717,1976.5
536.222,1952.15
536.726,1949.35
537.231,1954.1
537.735,1949.9
538.239,1942.3
538.743,1933.05
539.247,1926.25
539.751,1921.6
540.255,1919.1
540.759,1908.8
541.263,1915.55
541.767,1915.65
542.271,1918.7
542.775,1914.2
543.279,1910.55
543.782,1914.2
544.286,1914.5
544.789,1909.05
545.293,1908.25
545.796,1912.3
546.3,1910.6
546.803,1911.35
547.306,1911.75
547.81,1908.05
548.313,1905.9
548.816,1906.8
549.319,1905.2
549.822,1910.9
550.325,1904.75
550.828,1909.1
551.331,1903.75
551.834,1904.45
552.337,1908.4
552.839,1910.55
553.342,1918.85
553.844,1916.75
554.347,1917.5
554.849,1926.9
555.352,1922.95
555.854,1935.55
556.357,1935.25
556.859,1946.25
557.361,1956.6
557.863,1966.3
558.365,1972.2
558.867,1967.2
559.369,1952.35
559.871,1952.1
560.373,1947.6
560.875,1954.05
561.377,1951.45
561.878,1954.1
562.38,1969.7
562.881,1989.2
563.383,2007.45
563.884,2289.7
564.386,2079.2
564.887,2070.55
565.388,2017.0
565.89,2179.65
566.391,2129.7
566.892,2010.3
567.393,2036.15
567.894,1985.35
568.395,1991.9
568.896,1996.25
569.396,1999.35
569.897,2010.65
570.398,2032.15
570.898,2065.4
571.399,2496.25
571.9,2208.45
572.4,2094.45
572.9,2061.8
573.401,2068.85
573.901,2116.95
574.401,2087.9
574.901,2095.2
575.401,2265.5
575.901,2397.95
576.401,2653.75
576.901,2541.9
577.401,2347.9
577.901,2282.85
578.4,2306.4
578.9,2329.85
579.399,2366.45
579.899,2425.15
580.398,2445.55
580.898,2497.45
581.397,2551.55
581.896,2579.3
582.395,2632.15
582.895,2697.15
583.394,2750.4
583.893,2735.8
584.391,2786.7
584.89,2800.95
585.389,2842.05
585.888,2867.4
586.386,2916.5
586.885,2952.1
587.384,3004.3
587.882,3043.95
588.38,3062.45
588.879,3161.75
589.377,3180.15
589.875,3249.7
590.373,3280.7
590.871,3335.55
591.369,3440.15
591.867,3467.35
592.365,3478.65
592.863,3517.25
593.361,3549.1
593.858,3599.8
594.356,3585.7
594.853,3598.45
595.351,3686.7
595.848,3753.65
596.345,3825.85
596.843,3905.55
597.34,3986.95
597.837,3968.6
598.334,4102.3
598.831,4117.35
599.328,4215.15
599.824,4236.55
600.321,4291.25
600.818,4277.3
601.314,4246.9
601.811,4202.05
602.307,4205.05
602.804,4144.45
603.3,4121.25
603.796,4011.35
604.293,3945.15
604.789,3842.15
605.285,3750.45
605.781,3662.8
606.277,3609.15
606.772,3534.2
607.268,3420.4
607.764,3378.55
608.259,3304.0
608.755,3286.95
609.25,3225.6
609.746,3165.25
610.241,3159.7
610.736,3100.35
611.231,3079.75
611.727,3073.4
612.222,2993.0
612.716,2967.3
613.211,2941.55
613.706,2930.05
614.201,2907.75
614.695,2856.45
615.19,2828.0
615.684,2834.25
616.179,2808.65
616.673,2804.3
617.168,2745.5
617.662,2757.7
618.156,2735.3
618.65,2733.6
619.144,2726.3
619.638,2728.7
620.131,2702.2
620.625,2700.65
621.119,2694.95
621.612,2762.75
622.106,2835.95
622.599,2789.1
623.093,2680.5
623.586,2628.5
624.079,2634.6
624.572,2618.45
625.065,2628.7
625.558,2667.7
626.051,2702.65
626.544,3120.6
627.037,5315.8
627.529,4928.1
628.022,4461.45
628.514,5681.75
629.007,4427.05
629.499,4142.6
629.991,3770.05
630.483,3604.7
630.976,3100.2
631.468,2799.75
631.959,2670.75
632.451,2636.9
632.943,2605.2
633.435,2615.45
633.926,2612.75
634.418,2593.8
634.909,2592.15
635.401,2594.85
635.892,2577.9
636.383,2588.45
636.874,2594.0
637.365,2576.85
637.856,2596.6
638.347,2597.5
638.838,2605.3
639.329,2573.9
639.819,2627.5
640.31,2611.1
640.8,2627.25
641.291,2661.25
641.781,2639.85
642.271,2653.0
642.761,2668.05
643.251,2696.3
643.741,2683.1
644.231,2692.65
644.721,2688.0
645.211,2699.5
645.7,2712.4
646.19,2711.8
646.679,2705.8
647.169,2671.25
647.658,2732.9
648.147,2715.65
648.636,2717.2
649.125,2702.1
649.614,2718.95
650.103,2702.65
650.592,2690.8
651.08,2668.25
651.569,2674.6
652.058,2694.5
652.546,2653.65
653.034,2679.15
653.523,2671.2
654.011,2681.9
654.499,2661.95
654.987,2711.05
655.475,2660.05
655.963,2685.8
656.45,2639.1
656.938,2591.5
657.425,2581.95
657.913,2542.5
658.4,2517.9
658.888,2531.5
659.375,2451.2
659.862,2445.65
660.349,2437.85
660.836,2403.55
661.079,2418.15

File: VLFR_01-LDPE_bio_Raman_4d1a7bd8.csv
nm,Intensity
526.508,830.4
527.055,830.2
527.602,829.7
528.149,829.4
528.695,831.5
529.241,829.7
529.787,828.6
530.334,830.1
530.879,831.3
531.425,830.9
531.971,834.5
532.516,832.3
533.062,830.0
533.607,831.2
534.152,963.9
534.697,951.2
535.242,936.5
535.786,923.5
536.331,913.7
536.876,909.8
537.42,911.2
537.964,910.7
538.508,907.5
539.052,906.9
539.596,902.4
540.14,902.3
540.683,901.0
541.227,899.1
541.77,903.5
542.313,902.8
542.856,903.4
543.399,904.1
543.942,902.8
544.485,901.6
545.027,901.9
545.57,903.7
546.112,904.2
546.654,905.0
547.196,901.2
547.738,905.4
548.28,903.8
548.822,907.5
549.363,907.8
549.905,904.0
550.446,910.3
550.988,907.1
551.529,912.5
552.07,908.1
552.611,908.4
553.152,910.8
553.692,915.9
554.233,916.0
554.773,915.5
555.314,918.7
555.854,915.5
556.394,923.4
556.934,927.3
557.474,925.0
558.014,932.3
558.553,931.0
559.093,934.8
559.632,930.2
560.172,927.8
560.711,930.7
561.25,930.6
561.789,932.7
562.328,935.4
562.867,935.9
563.406,945.1
563.944,992.4
564.483,961.2
565.021,963.2
565.559,956.2
566.098,1009.8
566.636,964.5
567.174,963.7
567.711,960.1
568.249,956.8
568.787,951.2
569.324,956.5
569.862,961.7
570.399,963.4
570.936,968.1
571.474,1055.9
572.011,1004.6
572.548,983.3
573.084,978.5
573.621,985.4
574.158,991.7
574.694,994.9
575.231,998.3
575.767,1041.0
576.303,1136.9
576.84,1096.5
577.376,1072.7
577.912,1040.9
578.447,1046.8
578.983,1064.7
579.519,1070.4
580.054,1077.5
580.59,1082.2
581.125,1094.8
581.661,1110.6
582.196,1123.2
582.731,1130.5
583.266,1155.5
583.801,1180.0
584.336,1185.5
584.87,1202.6
585.405,1232.4
585.94,1237.6
586.474,1260.5
587.008,1292.6
587.543,1315.7
588.077,1334.5
588.611,1362.5
589.145,1370.6
589.679,1399.5
590.213,1435.5
590.747,1446.9
591.28,1463.2
591.814,1479.7
592.347,1491.0
592.881,1497.3
593.414,1493.9
593.947,1498.6
594.48,1520.4
595.014,1546.4
595.547,1550.5
596.079,1563.6
596.612,1573.2
597.145,1595.1
597.678,1613.7
598.21,1641.2
598.743,1647.2
599.275,1671.7
599.807,1686.8
600.34,1695.2
600.872,1689.9
601.404,1677.1
601.936,1670.9
602.468,1659.2
603.0,1640.6
603.532,1626.8
604.063,1619.2
604.595,1582.3
605.126,1549.6
605.658,1509.6
606.189,1486.0
606.721,1470.4
607.252,1447.6
607.783,1437.2
608.314,1426.8
608.845,1409.4
609.376,1378.3
609.907,1375.2
610.438,1363.8
610.968,1343.9
611.499,1339.6
612.03,1342.0
612.56,1339.0
613.091,1330.4
613.621,1326.7
614.151,1311.0
614.681,1302.9
615.212,1286.5
615.742,1274.6
616.272,1272.4
616.802,1263.5
617.332,1266.3
617.861,1249.9
618.391,1252.6
618.921,1246.6
619.45,1243.5
619.98,1232.0
620.509,1231.9
621.039,1229.5
621.568,1232.1
622.097,1256.7
622.627,1254.7
623.156,1219.0
623.685,1217.8
624.214,1203.9
624.743,1202.4
625.272,1211.4
625.801,1206.7
626.33,1230.3
626.858,1441.0
627.387,1871.6
627.916,1602.8
628.444,1811.8
628.973,1651.0
629.501,1542.2
630.029,1440.4
630.558,1427.3
631.086,1310.0
631.614,1236.7
632.142,1209.3
632.67,1198.3
633.198,1189.1
633.726,1189.6
634.254,1188.4
634.782,1184.8
635.31,1180.6
635.838,1190.3
636.365,1187.4
636.893,1199.5
637.421,1197.7
637.948,1193.0
638.476,1197.3
639.003,1202.6
639.531,1209.0
640.058,1213.2
640.585,1222.6
641.113,1224.1
641.64,1228.7
642.167,1224.8
642.694,1234.2
643.221,1229.6
643.748,1229.0
644.275,1225.1
644.802,1239.9
645.329,1227.5
645.856,1229.6
646.382,1234.8
646.909,1234.5
647.436,1235.1
647.962,1238.8
648.489,1239.2
649.016,1235.7
649.542,1235.1
650.069,1234.9
650.595,1235.5
651.121,1232.8
651.648,1240.2
652.174,1235.3
652.7,1228.4
653.227,1238.8
653.753,1243.9
654.279,1240.5
654.805,1245.2
655.331,1243.1
655.857,1236.4
656.383,1228.5
656.909,1230.8
657.435,1224.8
657.961,1221.0
658.487,1214.9
659.013,1208.3
659.538,1193.4
660.064,1182.6
660.59,1183.8
661.116,1174.3
661.641,1163.4
662.167,1157.4
662.692,1145.5
663.087,1138.1

File: VLFR_01-LDPE_bio_Raman_4e23bfeb.csv
nm,Intensity
526.547,831.55
527.095,832.55
527.642,831.85
528.189,832.65
528.736,832.55
529.283,832.75
529.829,832.2
530.376,832.65
530.922,832.05
531.468,832.85
532.014,843.25
532.56,832.5
533.106,833.1
533.651,833.45
534.196,879.45
534.742,870.95
535.287,862.65
535.832,855.3
536.376,853.3
536.921,850.45
537.465,850.2
538.01,850.25
538.554,848.2
539.098,846.45
539.642,843.85
540.186,843.7
540.729,845.6
541.273,843.6
541.816,843.45
542.36,843.2
542.903,842.45
543.446,843.4
543.988,841.7
544.531,841.05
545.074,841.6
545.616,841.4
546.158,841.0
546.701,841.45
547.243,840.1
547.785,841.35
548.326,839.9
548.868,841.0
549.41,840.25
549.951,839.95
550.492,839.65
551.034,840.7
551.575,839.7
552.116,839.75
552.656,840.85
553.197,841.45
553.738,843.2
554.278,842.0
554.819,842.85
555.359,845.0
555.899,843.7
556.439,845.15
556.979,845.05
557.519,846.5
558.058,849.7
558.598,848.3
559.137,846.3
559.677,846.3
560.216,845.55
560.755,844.3
561.294,847.05
561.833,846.25
562.371,848.0
562.91,849.25
563.449,852.65
563.987,896.35
564.525,865.0
565.064,859.8
565.602,857.35
566.14,916.65
566.678,855.5
567.216,851.8
567.753,850.45
568.291,848.7
568.828,849.2
569.366,849.5
569.903,849.5
570.44,853.75
570.977,857.0
571.514,939.15
572.051,873.7
572.588,859.65
573.125,855.45
573.661,854.9
574.198,858.0
574.734,854.1
575.271,858.4
575.807,890.95
576.343,937.7
576.879,908.9
577.415,885.65
577.951,867.9
578.486,866.3
579.022,868.25
579.557,868.05
580.093,871.1
580.628,871.05
581.164,876.05
581.699,878.3
582.234,882.55
582.769,884.35
583.304,891.65
583.838,893.45
584.373,896.65
584.908,901.5
585.442,906.85
585.977,910.85
586.511,916.2
587.045,922.1
587.58,926.0
588.114,932.5
588.648,938.75
589.182,945.25
589.715,950.75
590.249,958.1
590.783,966.5
591.316,970.55
591.85,977.45
592.383,977.55
592.917,978.9
593.45,986.8
593.983,990.4
594.516,994.65
595.049,999.6
595.582,1008.0
596.115,1017.7
596.648,1022.2
597.18,1027.8
597.713,1032.95
598.245,1042.4
598.778,1054.8
599.31,1061.1
599.842,1064.95
600.375,1068.55
600.907,1069.3
601.439,1062.0
601.971,1066.6
602.503,1062.65
603.034,1056.5
603.566,1053.85
604.098,1047.75
604.629,1036.2
605.161,1024.65
605.692,1019.85
606.224,1011.25
606.755,999.45
607.286,994.55
607.817,990.75
608.348,985.1
608.879,981.6
609.41,978.7
609.941,970.6
610.472,972.3
611.002,967.5
611.533,961.35
612.063,959.5
612.594,961.8
613.124,956.55
613.655,954.1
614.185,949.7
614.715,950.0
615.245,947.0
615.775,941.6
616.305,938.4
616.835,940.25
617.365,938.55
617.895,939.0
618.425,937.1
618.954,934.95
619.484,940.6
620.013,935.75
620.543,933.85
621.072,932.75
621.602,937.95
622.131,949.55
622.66,943.85
623.189,929.1
623.718,927.2
624.247,926.0
624.776,924.25
625.305,925.75
625.834,929.8
626.363,941.95
626.891,1097.2
627.42,1371.85
627.949,1204.1
628.477,1355.55
629.006,1253.3
629.534,1190.6
630.062,1117.7
630.591,1099.6
631.119,1002.7
631.647,951.4
632.175,934.7
632.703,924.55
633.231,918.7
633.759,915.25
634.287,915.4
634.815,912.5
635.343,911.15
635.871,912.9
636.398,917.1
636.926,915.1
637.454,913.05
637.981,915.55
638.509,915.4
639.036,919.25
639.564,919.3
640.091,917.6
640.618,922.0
641.146,922.85
641.673,923.0
642.2,924.75
642.727,925.85
643.254,926.1
643.781,926.7
644.308,929.25
644.835,929.4
645.362,927.3
645.889,929.95
646.416,930.75
646.942,934.05
647.469,934.6
647.996,935.25
648.522,937.9
649.049,933.35
649.576,935.65
650.102,936.95
650.629,936.85
651.155,935.6
651.682,940.15
652.208,935.85
652.734,942.7
653.261,941.9
653.787,938.35
654.313,942.65
654.839,943.8
655.365,941.0
655.892,938.05
656.418,939.2
656.944,938.9
657.47,936.85
657.996,934.75
658.522,934.65
659.048,929.45
659.574,929.65
660.099,927.4
660.625,923.05
661.151,918.25
661.677,915.0
662.203,913.25
662.728,910.1
663.123,907.95

File: VLFR_01-LDPE_bio_Raman_4f5d9147.csv
nm,Intensity
526.495,829.9
527.042,829.8
527.589,828.3
528.136,831.0
528.682,829.1
529.229,829.9
529.775,828.3
530.321,829.2
530.867,829.7
531.413,827.8
531.959,832.6
532.505,831.2
533.051,829.5
533.596,828.5
534.141,903.1
534.687,892.4
535.232,882.7
535.777,872.4
536.321,864.0
536.866,865.0
537.41,864.6
537.955,864.4
538.499,859.7
539.043,859.1
539.587,855.4
540.131,855.2
540.675,853.2
541.219,855.1
541.762,854.4
542.305,853.4
542.849,849.6
543.392,851.3
543.935,849.2
544.478,849.8
545.02,851.0
545.563,849.5
546.106,851.2
546.648,851.1
547.19,849.7
547.732,850.3
548.274,849.0
548.816,849.4
549.358,849.1
549.9,848.6
550.441,847.9
550.983,848.2
551.524,849.4
552.065,849.7
552.606,846.8
553.147,849.4
553.688,850.3
554.229,850.5
554.769,851.1
555.31,851.9
555.85,855.0
556.391,854.7
556.931,859.0
557.471,858.5
558.011,859.1
558.551,863.4
559.09,860.4
559.63,861.8
560.169,857.3
560.709,858.6
561.248,860.4
561.787,861.5
562.326,866.3
562.865,867.9
563.404,872.5
563.943,957.5
564.481,894.6
565.02,886.9
565.558,883.8
566.096,1050.7
566.634,889.9
567.172,876.4
567.71,877.2
568.248,871.8
568.786,874.7
569.324,875.5
569.861,876.7
570.399,882.3
570.936,888.2
571.473,1035.9
572.01,913.1
572.547,890.9
573.084,889.7
573.621,891.9
574.158,899.0
574.694,898.3
575.231,905.8
575.767,990.1
576.303,1017.5
576.84,983.0
577.376,953.1
577.912,935.3
578.448,937.1
578.984,942.8
579.519,953.3
580.055,963.1
580.59,958.6
581.126,968.4
581.661,972.5
582.196,977.0
582.731,976.7
583.267,983.8
583.801,978.3
584.336,978.6
584.871,975.5
585.406,973.4
585.94,970.7
586.475,971.0
587.009,970.3
587.543,967.2
588.078,969.3
588.612,966.3
589.146,969.8
589.68,969.5
590.214,968.7
590.747,974.4
591.281,973.3
591.815,973.7
592.348,978.0
592.881,979.5
593.415,979.9
593.948,977.9
594.481,982.3
595.014,982.4
595.547,987.6
596.08,979.1
596.613,982.1
597.146,981.3
597.678,979.6
598.211,982.8
598.743,981.9
599.276,980.5
599.808,985.2
600.34,982.9
600.872,974.0
601.404,973.4
601.936,971.0
602.468,971.3
603.0,970.4
603.532,965.8
604.064,964.2
604.595,958.0
605.127,953.9
605.658,946.5
606.189,944.7
606.721,943.0
607.252,942.2
607.783,936.8
608.314,937.9
608.845,932.4
609.376,928.6
609.907,930.6
610.438,927.9
610.968,928.1
611.499,930.2
612.029,922.4
612.56,920.1
613.09,922.3
613.621,920.6
614.151,916.9
614.681,915.9
615.211,915.7
615.741,912.6
616.271,911.9
616.801,914.2
617.331,915.7
617.861,912.5
618.39,915.3
618.92,916.0
619.45,917.9
619.979,914.5
620.509,916.2
621.038,916.5
621.567,928.4
622.096,942.1
622.626,945.1
623.155,922.7
623.684,916.8
624.213,917.0
624.742,912.8
625.271,917.9
625.799,928.5
626.328,949.6
626.857,1135.4
627.386,1516.8
627.914,1252.8
628.443,1384.0
628.971,1344.0
629.5,1243.8
630.028,1144.8
630.556,1126.0
631.084,1013.7
631.613,955.6
632.141,937.4
632.669,927.8
633.197,928.8
633.725,924.7
634.253,921.8
634.781,919.1
635.308,917.9
635.836,914.6
636.364,916.0
636.891,917.7
637.419,910.6
637.947,911.2
638.474,912.1
639.002,909.9
639.529,913.7
640.056,910.0
640.584,909.0
641.111,908.1
641.638,910.8
642.165,908.1
642.692,911.7
643.219,911.7
643.746,910.8
644.273,906.9
644.8,910.0
645.327,906.7
645.854,910.1
646.381,907.5
646.908,908.1
647.434,905.6
647.961,908.1
648.488,908.8
649.014,909.3
649.541,907.7
650.067,907.4
650.594,906.7
651.12,903.9
651.646,903.7
652.173,907.4
652.699,904.7
653.225,901.9
653.752,902.5
654.278,901.0
654.804,902.0
655.33,898.6
655.856,895.2
656.382,894.7
656.908,895.4
657.434,895.5
657.96,894.7
658.486,893.3
659.012,890.9
659.538,892.4
660.064,892.9
660.589,892.1
661.115,890.2
661.641,883.9
662.166,879.2
662.692,881.7
663.086,884.0

File: VLFR_01-LDPE_bio_Raman_5af6045f.csv
nm,Intensity
526.508,830.8
527.055,830.0
527.602,829.6
528.149,828.9
528.695,830.0
529.241,830.6
529.787,829.5
530.334,831.3
530.879,828.9
531.425,830.4
531.971,839.8
532.516,832.1
533.062,828.8
533.607,829.5
534.152,887.5
534.697,885.1
535.242,878.5
535.786,880.1
536.331,871.0
536.876,871.4
537.42,869.9
537.964,872.7
538.508,869.7
539.052,873.6
539.596,869.3
540.14,864.0
540.683,863.0
541.227,866.8
541.77,867.6
542.313,865.7
542.856,868.7
543.399,867.1
543.942,874.4
544.485,891.3
545.027,886.1
545.57,871.6
546.112,875.8
546.654,871.4
547.196,868.1
547.738,865.0
548.28,867.0
548.822,865.4
549.363,869.6
549.905,872.0
550.446,876.9
550.988,884.7
551.529,888.0
552.07,871.0
552.611,870.3
553.152,867.2
553.692,870.3
554.233,871.9
554.773,871.1
555.314,868.3
555.854,871.0
556.394,870.6
556.934,871.8
557.474,871.7
558.014,870.9
558.553,875.4
559.093,876.6
559.632,874.4
560.172,873.5
560.711,872.8
561.25,878.3
561.789,902.2
562.328,1080.1
562.867,922.8
563.406,881.6
563.944,894.8
564.483,894.3
565.021,889.7
565.559,890.0
566.098,907.8
566.636,898.4
567.174,899.5
567.711,893.2
568.249,886.8
568.787,890.7
569.324,884.9
569.862,887.9
570.399,889.6
570.936,892.6
571.474,916.9
572.011,899.1
572.548,893.8
573.084,892.9
573.621,890.6
574.158,894.3
574.694,894.3
575.231,889.9
575.767,906.9
576.303,934.6
576.84,924.5
577.376,913.3
577.912,898.9
578.447,898.7
578.983,903.8
579.519,901.6
580.054,900.3
580.59,909.7
581.125,908.0
581.661,912.6
582.196,915.6
582.731,920.4
583.266,922.7
583.801,925.5
584.336,932.2
584.87,938.8
585.405,941.5
585.94,946.6
586.474,954.7
587.008,961.2
587.543,969.4
588.077,972.6
588.611,987.7
589.145,992.2
589.679,998.7
590.213,1005.0
590.747,1021.0
591.28,1025.3
591.814,1026.4
592.347,1033.9
592.881,1037.1
593.414,1042.7
593.947,1050.3
594.48,1053.6
595.014,1065.2
595.547,1072.1
596.079,1082.3
596.612,1096.1
597.145,1102.8
597.678,1113.2
598.21,1130.9
598.743,1134.7
599.275,1147.1
599.807,1156.0
600.34,1164.5
600.872,1158.7
601.404,1160.6
601.936,1154.4
602.468,1149.5
603.0,1142.3
603.532,1136.4
604.063,1125.9
604.595,1110.8
605.126,1094.9
605.658,1086.3
606.189,1074.2
606.721,1069.4
607.252,1057.6
607.783,1052.4
608.314,1045.7
608.845,1044.4
609.376,1035.4
609.907,1028.8
610.438,1023.1
610.968,1017.1
611.499,1016.6
612.03,1016.6
612.56,1011.1
613.091,1014.8
613.621,1006.8
614.151,1008.0
614.681,1005.1
615.212,999.2
615.742,991.6
616.272,998.6
616.802,986.9
617.332,991.8
617.861,986.5
618.391,987.2
618.921,985.5
619.45,984.1
619.98,978.1
620.509,980.7
621.039,976.2
621.568,983.0
622.097,985.2
622.627,981.9
623.156,973.1
623.685,968.8
624.214,971.6
624.743,965.2
625.272,965.4
625.801,970.3
626.33,973.6
626.858,1040.9
627.387,1187.1
627.916,1091.7
628.444,1158.4
628.973,1111.6
629.501,1082.9
630.029,1044.6
630.558,1035.6
631.086,993.5
631.614,971.4
632.142,959.7
632.67,953.3
633.198,958.1
633.726,953.6
634.254,955.0
634.782,959.2
635.31,955.8
635.838,953.6
636.365,953.8
636.893,955.7
637.421,956.4
637.948,961.7
638.476,965.4
639.003,963.4
639.531,963.1
640.058,966.0
640.585,969.2
641.113,970.6
641.64,972.8
642.167,970.4
642.694,973.9
643.221,972.7
643.748,976.4
644.275,977.5
644.802,975.5
645.329,975.1
645.856,975.2
646.382,981.8
646.909,985.5
647.436,986.1
647.962,982.0
648.489,985.2
649.016,985.4
649.542,984.5
650.069,988.7
650.595,992.9
651.121,988.3
651.648,993.0
652.174,997.1
652.7,997.6
653.227,996.8
653.753,999.3
654.279,1004.7
654.805,997.5
655.331,998.2
655.857,995.9
656.383,996.1
656.909,989.9
657.435,982.5
657.961,982.2
658.487,980.6
659.013,976.8
659.538,975.7
660.064,970.4
660.59,964.5
661.116,955.3
661.641,948.8
662.167,951.7
662.692,945.3
663.087,944.1