Folder: MPX_specDB/spectra (part 153)

File: VLFR_08-PLA_nobio_Raman_46733898.csv
cm-1,Intensity
-123.878,1853.65
-105.821,1854.45
-87.8007,1855.8
-69.8161,1853.6
-51.8675,1854.35
-33.9547,1856.2
-16.0776,1884.4
1.76388,3247.05
19.5698,1855.4
37.3403,1856.35
55.0755,2024.25
72.7754,2456.25
90.4402,2349.45
108.07,2311.15
125.665,2269.1
143.225,2240.85
160.75,2268.55
178.241,2227.9
195.697,2250.95
213.119,2224.5
230.506,2232.4
247.859,2252.5
265.178,2203.55
282.463,2229.85
299.713,2254.6
316.93,2261.55
334.113,2250.7
351.263,2246.35
368.379,2272.3
385.461,2316.5
402.51,2354.7
419.526,2299.7
436.508,2249.6
453.458,2245.1
470.374,2249.55
487.257,2250.85
504.107,2253.6
520.925,2250.0
537.71,2278.1
554.462,2278.1
571.182,2278.2
587.87,2293.15
604.525,2297.15
621.148,2304.55
637.739,2316.15
654.297,2331.25
670.824,2337.1
687.319,2341.1
703.782,2339.4
720.213,2330.1
736.613,2356.1
752.981,2372.3
769.317,2356.4
785.623,2344.25
801.897,2337.3
818.139,2351.2
834.351,2352.45
850.532,2415.2
866.681,2717.6
882.8,2613.8
898.888,2418.3
914.945,2400.0
930.972,2406.75
946.968,2376.7
962.934,2394.75
978.869,2366.15
994.774,2381.55
1010.65,2383.95
1026.49,2440.85
1042.31,2544.65
1058.09,2465.75
1073.85,2452.3
1089.57,2501.45
1105.27,2504.55
1120.93,2555.9
1136.57,2536.4
1152.18,2431.3
1167.75,2446.15
1183.3,2457.05
1198.82,2445.2
1214.31,2443.4
1229.77,2437.65
1245.2,2456.7
1260.6,2441.2
1275.97,2463.85
1291.32,2520.4
1306.63,2550.25
1321.92,2518.9
1337.18,2507.55
1352.41,2531.5
1367.61,2509.05
1382.78,2521.75
1397.93,2467.25
1413.05,2464.0
1428.14,2495.65
1443.2,2605.5
1458.23,2722.1
1473.23,2500.7
1488.21,2479.55
1503.16,2466.8
1518.08,2455.1
1532.97,2449.1
1547.84,2462.1
1562.68,2473.65
1577.49,2457.35
1592.27,2465.15
1607.03,2469.2
1621.76,2478.95
1636.46,2471.65
1651.14,2469.75
1665.78,2485.45
1680.41,2485.95
1695.0,2474.4
1709.57,2481.05
1724.11,2452.65
1738.62,2520.95
1753.11,2643.9
1767.57,2763.05
1782.01,2635.4
1796.41,2505.15
1810.8,2495.3
1825.15,2474.4
1839.48,2471.7
1853.79,2461.8
1868.06,2460.4
1882.31,2469.85
1896.54,2469.3
1910.74,2466.9
1924.91,2491.2
1939.06,2471.7
1953.19,2456.85
1967.28,2467.05
1981.35,2458.15
1995.4,2469.9
2009.42,2474.65
2023.42,2471.1
2037.39,2467.45
2051.33,2455.3
2065.25,2471.1
2079.15,2467.9
2093.01,2476.05
2106.86,2442.35
2120.68,2461.85
2134.47,2455.8
2148.24,2464.65
2161.99,2464.2
2175.71,2460.9
2189.41,2444.65
2203.08,2460.05
2216.73,2449.55
2230.35,2432.15
2243.95,2462.25
2257.52,2442.75
2271.07,2428.85
2284.6,2441.7
2298.1,2421.1
2311.58,2435.5
2325.03,2429.95
2338.46,2437.8
2351.87,2422.75
2365.25,2413.85
2378.61,2409.1
2391.94,2414.95
2405.26,2429.7
2418.54,2413.2
2431.81,2417.15
2445.05,2413.05
2458.27,2390.5
2471.46,2400.5
2484.63,2397.65
2497.78,2400.35
2510.9,2414.85
2524.0,2395.1
2537.08,2404.85
2550.14,2396.3
2563.17,2408.95
2576.18,2402.25
2589.17,2397.3
2602.13,2397.7
2615.07,2383.75
2627.99,2399.6
2640.89,2392.8
2653.76,2380.4
2666.61,2380.5
2679.44,2383.5
2692.25,2370.2
2705.03,2375.9
2717.79,2390.7
2730.53,2414.0
2743.25,2422.4
2755.94,2394.25
2768.61,2398.35
2781.27,2374.7
2793.89,2380.55
2806.5,2359.4
2819.09,2367.6
2831.65,2363.35
2844.19,2352.65
2856.71,2371.55
2869.21,2465.55
2881.69,2673.15
2894.14,2596.4
2906.58,2604.2
2918.99,2625.15
2931.38,2880.55
2943.75,4234.15
2956.1,3577.85
2968.42,2951.1
2980.73,2813.25
2993.01,3049.75
3005.28,3158.3
3017.52,2859.8
3029.74,2515.7
3041.94,2407.3
3054.12,2350.5
3066.28,2328.95
3078.42,2335.05
3090.54,2328.3
3102.63,2311.9
3114.71,2308.7
3126.77,2310.75
3138.8,2299.95
3150.82,2299.4
3162.81,2288.45
3174.78,2316.75
3186.74,2291.65
3198.67,2292.45
3210.58,2285.0
3222.47,2292.4
3234.35,2278.95
3246.2,2275.95
3258.03,2273.1
3269.84,2265.8
3281.64,2246.55
3293.41,2258.05
3305.16,2259.55
3316.89,2235.2
3328.61,2239.5
3340.3,2228.15
3351.97,2222.0
3363.63,2221.4
3375.26,2218.95
3386.88,2217.7
3398.47,2211.25
3410.05,2200.6
3421.6,2212.9
3433.14,2203.45
3444.66,2196.8
3456.15,2205.6
3467.63,2185.75
3479.09,2185.8
3490.53,2184.65
3501.96,2176.45
3513.36,2174.2
3524.74,2164.3
3536.11,2169.4
3547.45,2155.3
3558.78,2137.9
3570.09,2155.15
3581.37,2151.55
3592.64,2143.4
3603.9,2138.0
3615.13,2127.7
3626.34,2121.7
3637.54,2120.4
3648.72,2120.2
3659.87,2122.45
3665.45,2119.65

File: VLFR_08-PLA_nobio_Raman_72745376.csv
nm,Intensity
526.486,827.9
527.033,829.4
527.579,829.2
528.126,828.7
528.672,827.6
529.219,828.0
529.765,828.5
530.311,829.1
530.857,828.7
531.403,829.6
531.948,832.6
532.494,830.2
533.039,829.3
533.585,829.9
534.13,1047.4
534.675,996.5
535.22,952.6
535.764,931.8
536.309,915.5
536.854,919.4
537.398,909.7
537.942,908.1
538.486,894.7
539.03,888.7
539.574,884.9
540.118,878.9
540.662,893.4
541.205,897.4
541.749,889.7
542.292,882.4
542.835,881.8
543.378,900.7
543.921,914.7
544.464,895.0
545.006,881.3
545.549,875.7
546.091,873.5
546.634,872.6
547.176,875.8
547.718,876.8
548.26,875.3
548.802,877.2
549.343,878.9
549.885,881.9
550.426,878.4
550.968,880.7
551.509,885.7
552.05,884.8
552.591,887.5
553.132,887.4
553.673,880.4
554.214,891.6
554.754,883.2
555.295,875.7
555.835,875.8
556.375,875.7
556.915,878.1
557.455,895.2
557.995,1032.3
558.535,928.3
559.075,891.6
559.614,890.4
560.154,881.9
560.693,881.5
561.232,875.3
561.772,877.2
562.311,879.1
562.85,892.2
563.388,925.2
563.927,904.4
564.466,890.2
565.004,914.2
565.543,911.0
566.081,938.2
566.619,906.2
567.157,884.1
567.695,889.2
568.233,889.7
568.771,889.9
569.309,889.1
569.846,885.8
570.384,884.5
570.921,890.1
571.458,906.7
571.995,910.8
572.532,904.1
573.069,904.4
573.606,906.4
574.143,901.5
574.68,912.8
575.216,888.7
575.753,894.4
576.289,907.3
576.825,976.5
577.361,917.0
577.897,890.7
578.433,888.7
578.969,889.2
579.505,887.3
580.041,885.9
580.576,884.6
581.112,887.9
581.647,887.3
582.183,885.6
582.718,889.0
583.253,888.7
583.788,888.4
584.323,888.2
584.858,886.8
585.392,888.0
585.927,888.4
586.462,902.1
586.996,941.6
587.53,970.6
588.065,921.0
588.599,893.4
589.133,890.9
589.667,888.5
590.201,886.3
590.735,886.6
591.268,884.6
591.802,886.1
592.335,884.2
592.869,887.1
593.402,887.7
593.936,885.9
594.469,886.3
595.002,885.9
595.535,885.7
596.068,884.6
596.601,884.4
597.133,885.8
597.666,886.6
598.199,889.0
598.731,886.5
599.264,883.7
599.796,887.3
600.328,887.5
600.86,884.9
601.393,884.1
601.925,888.5
602.457,885.6
602.988,883.5
603.52,885.4
604.052,884.9
604.583,885.2
605.115,883.9
605.646,881.2
606.178,883.6
606.709,881.5
607.24,884.6
607.771,881.2
608.302,885.6
608.833,880.7
609.364,882.3
609.895,884.9
610.426,883.8
610.957,881.4
611.487,882.5
612.018,881.8
612.548,883.0
613.078,885.0
613.609,884.7
614.139,885.9
614.669,883.0
615.199,884.2
615.729,885.2
616.259,883.1
616.789,884.7
617.319,884.1
617.849,885.4
618.378,885.8
618.908,882.0
619.437,879.7
619.967,883.1
620.496,880.4
621.025,885.0
621.555,886.0
622.084,883.4
622.613,892.7
623.142,902.8
623.671,896.4
624.2,887.9
624.729,885.2
625.258,884.8
625.786,882.8
626.315,883.7
626.844,886.8
627.372,885.8
627.901,894.4
628.429,972.7
628.957,956.6
629.486,956.5
630.014,964.8
630.542,1024.2
631.07,1464.1
631.598,1204.0
632.126,1040.1
632.654,1011.6
633.182,1118.4
633.71,1081.7
634.237,971.4
634.765,911.3
635.293,894.6
635.82,885.4
636.348,880.9
636.875,879.8
637.403,879.5
637.93,877.4
638.458,877.6
638.985,876.7
639.512,878.9
640.039,874.9
640.566,875.5
641.093,878.8
641.62,879.9
642.147,879.7
642.674,874.6
643.201,875.0
643.728,875.1
644.255,871.0
644.781,870.9
645.308,869.2
645.835,866.1
646.361,869.5
646.888,871.3
647.414,867.6
647.941,872.3
648.467,870.7
648.993,868.0
649.52,869.2
650.046,869.6
650.572,869.6
651.098,867.1
651.625,866.8
652.151,865.2
652.677,866.8
653.203,867.3
653.729,866.8
654.255,867.4
654.78,869.6
655.306,868.1
655.832,868.6
656.358,866.0
656.884,866.7
657.409,868.5
657.935,867.9
658.461,867.3
658.986,866.0
659.512,863.0
660.037,863.4
660.563,864.1
661.088,864.9
661.614,865.0
662.139,862.8
662.664,866.1
663.058,861.6

File: VLFR_08-PLA_nobio_Raman_82647865.csv
nm,Intensity
526.5,830.6
527.047,830.9
527.594,830.7
528.14,830.4
528.687,829.3
529.233,829.4
529.779,829.6
530.325,830.6
530.871,828.5
531.417,831.0
531.962,830.9
532.508,828.4
533.053,830.1
533.599,841.7
534.144,2527.1
534.689,2665.7
535.234,2642.3
535.778,2730.2
536.323,2757.4
536.867,2766.4
537.412,2801.1
537.956,2850.8
538.5,2850.3
539.044,2875.6
539.588,2913.1
540.132,2930.9
540.675,2943.4
541.219,2978.5
541.762,3000.4
542.305,3029.2
542.848,3075.7
543.391,3106.3
543.934,3128.3
544.477,3158.7
545.02,3206.0
545.562,3218.5
546.105,3265.9
546.647,3295.7
547.189,3304.1
547.731,3323.6
548.273,3359.9
548.815,3386.1
549.356,3427.9
549.898,3471.1
550.439,3482.3
550.981,3506.1
551.522,3543.1
552.063,3560.5
552.604,3592.2
553.145,3624.5
553.686,3655.1
554.226,3707.9
554.767,3723.4
555.307,3721.0
555.848,3747.0
556.388,3782.6
556.928,3820.8
557.468,3855.3
558.008,3866.9
558.547,3881.5
559.087,3926.4
559.626,4013.9
560.166,4043.0
560.705,4067.6
561.244,4076.7
561.783,4082.6
562.322,4138.8
562.861,4188.5
563.4,4257.6
563.939,4316.4
564.477,4360.1
565.015,4424.7
565.554,4459.3
566.092,4505.6
566.63,4510.5
567.168,4549.4
567.706,4608.5
568.244,4601.2
568.781,4693.5
569.319,4768.7
569.857,4799.9
570.394,4816.6
570.931,4845.5
571.468,4889.1
572.005,4888.5
572.542,4980.0
573.079,5075.0
573.616,5098.6
574.153,5137.7
574.689,5170.1
575.226,5224.0
575.762,5224.5
576.298,5234.2
576.834,5290.9
577.371,5324.6
577.907,5358.3
578.442,5397.4
578.978,5435.6
579.514,5460.1
580.049,5517.6
580.585,5569.8
581.12,5649.2
581.656,5613.4
582.191,5638.7
582.726,5648.5
583.261,5701.0
583.796,5731.9
584.331,5731.6
584.865,5749.5
585.4,5817.9
585.935,5855.1
586.469,5898.8
587.004,5950.3
587.538,5980.6
588.072,6007.1
588.606,5989.8
589.14,5972.2
589.674,5979.9
590.208,6030.7
590.742,6082.8
591.275,6128.3
591.809,6155.4
592.342,6155.7
592.876,6162.1
593.409,6106.4
593.942,6126.0
594.476,6212.5
595.009,6246.9
595.542,6315.8
596.075,6317.6
596.607,6338.0
597.14,6370.0
597.673,6427.7
598.205,6460.0
598.738,6529.5
599.27,6519.1
599.803,6505.8
600.335,6541.9
600.867,6510.5
601.399,6514.2
601.931,6532.9
602.463,6567.0
602.995,6609.9
603.527,6629.9
604.058,6679.6
604.59,6632.6
605.122,6593.9
605.653,6560.0
606.184,6555.4
606.716,6554.6
607.247,6612.2
607.778,6653.3
608.309,6697.4
608.84,6725.4
609.371,6751.4
609.902,6753.8
610.433,6741.1
610.964,6738.5
611.494,6773.2
612.025,6860.4
612.556,6917.4
613.086,7036.9
613.616,7090.1
614.147,7125.4
614.677,7124.5
615.207,7126.9
615.737,7090.3
616.267,7101.3
616.797,7136.5
617.327,7198.5
617.857,7227.2
618.387,7293.2
618.917,7253.9
619.446,7285.7
619.976,7276.6
620.505,7271.4
621.035,7317.4
621.564,7334.2
622.093,7363.7
622.623,7422.5
623.152,7461.9
623.681,7482.9
624.21,7551.2
624.739,7578.9
625.268,7576.2
625.797,7613.1
626.326,7576.7
626.855,7589.9
627.383,7626.8
627.912,7623.7
628.441,7643.0
628.969,7679.2
629.498,7702.4
630.026,7728.7
630.554,7745.2
631.083,7798.3
631.611,7812.5
632.139,7784.1
632.667,7807.4
633.195,7848.1
633.724,7823.0
634.252,7805.5
634.779,7821.7
635.307,7846.0
635.835,7922.6
636.363,7926.0
636.891,7944.4
637.418,7931.0
637.946,7992.7
638.474,7988.7
639.001,8027.4
639.529,8050.0
640.056,8076.7
640.583,8076.5
641.111,8130.3
641.638,8144.2
642.165,8127.7
642.692,8103.7
643.22,8120.7
643.747,8065.3
644.274,8059.0
644.801,8001.2
645.328,8026.8
645.854,8041.8
646.381,8059.1
646.908,8145.1
647.435,8145.6
647.962,8211.0
648.488,8179.0
649.015,8156.9
649.542,8176.5
650.068,8188.8
650.595,8153.7
651.121,8208.2
651.648,8213.5
652.174,8246.7
652.7,8291.7
653.227,8323.7
653.753,8346.5
654.279,8428.7
654.805,8397.2
655.331,8420.0
655.858,8436.4
656.384,8454.8
656.91,8556.7
657.436,8543.6
657.962,8559.1
658.488,8658.2
659.013,8659.0
659.539,8723.6
660.065,8770.5
660.591,8763.9
661.117,8714.8
661.642,8694.9
662.168,8688.1
662.694,8833.9
663.088,8802.2

File: VLFR_08-PLA_nobio_Raman_a0f4d3e9.csv
nm,Intensity
526.5,830.1
527.047,828.6
527.594,828.7
528.14,829.0
528.687,828.5
529.233,829.3
529.779,829.6
530.325,829.7
530.871,828.0
531.417,828.8
531.962,833.2
532.508,831.6
533.053,828.3
533.599,829.3
534.144,1034.9
534.689,980.3
535.234,952.2
535.778,939.6
536.323,921.6
536.867,928.9
537.412,907.6
537.956,910.4
538.5,901.2
539.044,894.7
539.588,892.5
540.132,882.4
540.675,908.4
541.219,911.2
541.762,892.4
542.305,887.7
542.848,887.2
543.391,915.0
543.934,943.4
544.477,903.2
545.02,888.7
545.562,883.7
546.105,884.0
546.647,882.4
547.189,887.9
547.731,884.5
548.273,883.1
548.815,891.7
549.356,892.3
549.898,888.2
550.439,888.2
550.981,890.7
551.522,895.6
552.063,900.4
552.604,899.2
553.145,906.5
553.686,897.5
554.226,903.3
554.767,891.1
555.307,889.9
555.848,888.5
556.388,889.9
556.928,891.4
557.468,903.7
558.008,1020.3
558.547,926.7
559.087,906.1
559.626,905.4
560.166,898.8
560.705,895.3
561.244,892.7
561.783,892.3
562.322,893.7
562.861,900.0
563.4,937.7
563.939,917.6
564.477,904.7
565.015,935.9
565.554,920.2
566.092,957.8
566.63,921.5
567.168,894.5
567.706,906.3
568.244,906.8
568.781,906.6
569.319,907.0
569.857,899.2
570.394,905.3
570.931,904.0
571.468,932.0
572.005,922.2
572.542,912.0
573.079,915.0
573.616,922.8
574.153,916.7
574.689,934.6
575.226,907.4
575.762,904.0
576.298,926.6
576.834,994.7
577.371,927.4
577.907,911.5
578.442,908.6
578.978,906.3
579.514,906.8
580.049,905.3
580.585,904.8
581.12,903.7
581.656,904.8
582.191,905.0
582.726,901.4
583.261,904.9
583.796,909.1
584.331,906.9
584.865,906.8
585.4,907.7
585.935,912.4
586.469,918.9
587.004,950.3
587.538,992.9
588.072,934.2
588.606,911.6
589.14,909.6
589.674,903.8
590.208,909.1
590.742,903.9
591.275,907.0
591.809,906.7
592.342,909.5
592.876,905.5
593.409,903.4
593.942,903.5
594.476,904.5
595.009,901.3
595.542,906.9
596.075,905.3
596.607,906.9
597.14,907.2
597.673,901.8
598.205,904.9
598.738,909.2
599.27,906.6
599.803,904.7
600.335,906.7
600.867,907.5
601.399,904.7
601.931,904.2
602.463,898.8
602.995,905.3
603.527,904.7
604.058,906.0
604.59,900.8
605.122,901.6
605.653,901.3
606.184,903.7
606.716,899.5
607.247,900.5
607.778,899.9
608.309,902.1
608.84,900.1
609.371,902.0
609.902,902.3
610.433,901.2
610.964,900.1
611.494,900.1
612.025,899.7
612.556,900.5
613.086,902.2
613.616,902.3
614.147,904.8
614.677,902.4
615.207,905.1
615.737,903.0
616.267,904.6
616.797,904.8
617.327,905.7
617.857,900.5
618.387,900.8
618.917,901.6
619.446,900.6
619.976,901.5
620.505,900.9
621.035,902.4
621.564,901.7
622.093,903.3
622.623,907.3
623.152,913.4
623.681,912.0
624.21,904.8
624.739,904.4
625.268,900.8
625.797,901.9
626.326,899.9
626.855,903.6
627.383,901.0
627.912,915.9
628.441,979.2
628.969,969.1
629.498,965.3
630.026,969.0
630.554,1016.7
631.083,1428.5
631.611,1211.4
632.139,1049.1
632.667,1005.2
633.195,1096.4
633.724,1068.0
634.252,980.6
634.779,921.8
635.307,902.8
635.835,901.4
636.363,896.6
636.891,894.3
637.418,894.6
637.946,894.1
638.474,894.2
639.001,891.0
639.529,891.3
640.056,892.3
640.583,890.2
641.111,894.3
641.638,895.0
642.165,892.2
642.692,893.7
643.22,890.5
643.747,885.7
644.274,886.7
644.801,887.4
645.328,883.2
645.854,882.7
646.381,883.6
646.908,883.6
647.435,879.3
647.962,883.5
648.488,879.5
649.015,881.1
649.542,884.4
650.068,881.5
650.595,880.6
651.121,879.3
651.648,879.6
652.174,879.5
652.7,880.2
653.227,878.9
653.753,880.0
654.279,877.8
654.805,877.5
655.331,880.1
655.858,878.6
656.384,881.1
656.91,879.4
657.436,879.5
657.962,880.1
658.488,878.2
659.013,877.5
659.539,877.1
660.065,876.4
660.591,876.4
661.117,875.9
661.642,874.0
662.168,872.2
662.694,874.3
663.088,871.8

File: VLFR_08-PLA_nobio_Raman_a41dd254.csv
cm-1,Intensity
-123.878,1855.05
-105.821,1856.95
-87.8007,1855.6
-69.8161,1855.7
-51.8675,1856.3
-33.9547,1857.3
-16.0776,1898.05
1.76388,3237.8
19.5698,1858.4
37.3403,1857.4
55.0755,2092.25
72.7754,2644.2
90.4402,2513.4
108.07,2434.1
125.665,2365.3
143.225,2356.45
160.75,2351.6
178.241,2317.35
195.697,2321.15
213.119,2277.3
230.506,2276.85
247.859,2294.6
265.178,2251.4
282.463,2297.65
299.713,2343.9
316.93,2350.15
334.113,2311.85
351.263,2293.5
368.379,2333.85
385.461,2391.55
402.51,2455.35
419.526,2387.1
436.508,2330.95
453.458,2306.7
470.374,2304.1
487.257,2314.05
504.107,2319.6
520.925,2314.0
537.71,2322.9
554.462,2333.9
571.182,2330.25
587.87,2367.15
604.525,2340.7
621.148,2355.85
637.739,2359.95
654.297,2394.55
670.824,2408.9
687.319,2413.0
703.782,2427.7
720.213,2406.15
736.613,2448.7
752.981,2440.2
769.317,2442.0
785.623,2404.7
801.897,2412.0
818.139,2415.65
834.351,2428.35
850.532,2508.2
866.681,3043.45
882.8,2800.1
898.888,2536.9
914.945,2498.2
930.972,2495.95
946.968,2480.5
962.934,2468.95
978.869,2460.65
994.774,2486.15
1010.65,2499.95
1026.49,2562.3
1042.31,2706.25
1058.09,2597.2
1073.85,2545.75
1089.57,2637.4
1105.27,2660.15
1120.93,2718.15
1136.57,2698.6
1152.18,2533.85
1167.75,2539.95
1183.3,2574.5
1198.82,2555.5
1214.31,2568.05
1229.77,2557.15
1245.2,2566.95
1260.6,2535.2
1275.97,2563.7
1291.32,2668.0
1306.63,2665.7
1321.92,2626.85
1337.18,2645.7
1352.41,2651.75
1367.61,2657.05
1382.78,2664.85
1397.93,2597.7
1413.05,2563.5
1428.14,2597.85
1443.2,2810.9
1458.23,2915.65
1473.23,2655.5
1488.21,2592.1
1503.16,2572.45
1518.08,2560.9
1532.97,2570.05
1547.84,2579.85
1562.68,2573.7
1577.49,2591.7
1592.27,2579.95
1607.03,2564.35
1621.76,2584.7
1636.46,2578.25
1651.14,2590.05
1665.78,2588.85
1680.41,2596.75
1695.0,2605.5
1709.57,2601.7
1724.11,2574.65
1738.62,2684.25
1753.11,2831.65
1767.57,2980.65
1782.01,2805.75
1796.41,2633.65
1810.8,2613.65
1825.15,2593.55
1839.48,2574.45
1853.79,2580.4
1868.06,2569.5
1882.31,2565.0
1896.54,2567.1
1910.74,2577.05
1924.91,2577.95
1939.06,2577.5
1953.19,2573.4
1967.28,2564.35
1981.35,2573.25
1995.4,2569.55
2009.42,2580.3
2023.42,2574.9
2037.39,2564.6
2051.33,2578.85
2065.25,2572.9
2079.15,2569.95
2093.01,2569.4
2106.86,2567.9
2120.68,2568.4
2134.47,2561.3
2148.24,2559.15
2161.99,2563.35
2175.71,2555.45
2189.41,2563.3
2203.08,2558.85
2216.73,2549.65
2230.35,2543.85
2243.95,2553.3
2257.52,2529.7
2271.07,2536.45
2284.6,2553.75
2298.1,2529.85
2311.58,2531.1
2325.03,2532.15
2338.46,2539.1
2351.87,2550.05
2365.25,2502.1
2378.61,2514.75
2391.94,2494.8
2405.26,2515.8
2418.54,2503.05
2431.81,2505.75
2445.05,2503.7
2458.27,2496.2
2471.46,2499.3
2484.63,2506.45
2497.78,2500.45
2510.9,2494.8
2524.0,2504.2
2537.08,2491.1
2550.14,2497.9
2563.17,2476.7
2576.18,2502.1
2589.17,2483.85
2602.13,2491.55
2615.07,2490.85
2627.99,2467.65
2640.89,2470.15
2653.76,2470.65
2666.61,2475.95
2679.44,2471.4
2692.25,2459.0
2705.03,2476.95
2717.79,2479.45
2730.53,2509.8
2743.25,2535.6
2755.94,2510.1
2768.61,2479.65
2781.27,2478.8
2793.89,2449.8
2806.5,2467.35
2819.09,2429.35
2831.65,2447.75
2844.19,2436.55
2856.71,2469.15
2869.21,2599.6
2881.69,2904.5
2894.14,2793.7
2906.58,2800.25
2918.99,2848.5
2931.38,3212.3
2943.75,5133.0
2956.1,4203.2
2968.42,3243.45
2980.73,3093.9
2993.01,3412.8
3005.28,3581.1
3017.52,3079.35
3029.74,2689.45
3041.94,2513.45
3054.12,2425.2
3066.28,2394.6
3078.42,2397.65
3090.54,2390.75
3102.63,2382.5
3114.71,2375.55
3126.77,2374.4
3138.8,2359.85
3150.82,2349.55
3162.81,2354.1
3174.78,2361.2
3186.74,2349.3
3198.67,2356.05
3210.58,2356.9
3222.47,2327.95
3234.35,2330.85
3246.2,2335.55
3258.03,2320.2
3269.84,2307.25
3281.64,2316.6
3293.41,2323.8
3305.16,2290.7
3316.89,2279.0
3328.61,2273.7
3340.3,2275.55
3351.97,2277.15
3363.63,2280.75
3375.26,2261.9
3386.88,2261.45
3398.47,2255.0
3410.05,2248.15
3421.6,2245.15
3433.14,2247.35
3444.66,2228.15
3456.15,2222.95
3467.63,2216.7
3479.09,2232.1
3490.53,2213.9
3501.96,2213.4
3513.36,2203.8
3524.74,2196.1
3536.11,2196.1
3547.45,2191.55
3558.78,2188.55
3570.09,2190.85
3581.37,2177.4
3592.64,2173.5
3603.9,2173.7
3615.13,2155.1
3626.34,2153.0
3637.54,2143.6
3648.72,2145.65
3659.87,2154.9
3665.45,2133.95

File: VLFR_08-PLA_nobio_Raman_ab5f37ae.csv
cm-1,Intensity
-123.878,1854.65
-105.821,1856.4
-87.8007,1857.0
-69.8161,1855.4
-51.8675,1855.7
-33.9547,1857.5
-16.0776,1873.55
1.76388,2823.65
19.5698,1858.25
37.3403,1856.8
55.0755,2018.1
72.7754,2441.05
90.4402,2366.7
108.07,2349.6
125.665,2315.3
143.225,2295.35
160.75,2299.8
178.241,2296.5
195.697,2326.45
213.119,2289.9
230.506,2296.05
247.859,2335.0
265.178,2304.25
282.463,2336.1
299.713,2360.45
316.93,2345.3
334.113,2329.2
351.263,2343.9
368.379,2370.15
385.461,2384.7
402.51,2443.95
419.526,2418.25
436.508,2383.8
453.458,2363.65
470.374,2379.6
487.257,2386.35
504.107,2404.5
520.925,2408.75
537.71,2407.95
554.462,2425.65
571.182,2423.35
587.87,2409.1
604.525,2436.9
621.148,2458.6
637.739,2450.65
654.297,2469.75
670.824,2493.4
687.319,2491.45
703.782,2509.55
720.213,2492.95
736.613,2503.55
752.981,2546.4
769.317,2529.4
785.623,2530.95
801.897,2544.3
818.139,2548.05
834.351,2556.15
850.532,2605.65
866.681,2796.55
882.8,2738.4
898.888,2627.8
914.945,2618.95
930.972,2603.0
946.968,2602.6
962.934,2618.6
978.869,2629.6
994.774,2623.45
1010.65,2650.1
1026.49,2676.3
1042.31,2728.95
1058.09,2700.65
1073.85,2705.65
1089.57,2741.05
1105.27,2744.85
1120.93,2810.6
1136.57,2780.0
1152.18,2733.4
1167.75,2725.0
1183.3,2738.7
1198.82,2760.5
1214.31,2762.95
1229.77,2750.45
1245.2,2788.7
1260.6,2787.15
1275.97,2787.0
1291.32,2817.5
1306.63,2871.6
1321.92,2846.55
1337.18,2826.25
1352.41,2857.55
1367.61,2853.25
1382.78,2878.65
1397.93,2846.85
1413.05,2846.9
1428.14,2875.15
1443.2,2971.85
1458.23,2997.3
1473.23,2920.35
1488.21,2877.3
1503.16,2865.55
1518.08,2838.65
1532.97,2881.45
1547.84,2902.0
1562.68,2905.15
1577.49,2922.35
1592.27,2969.35
1607.03,2906.05
1621.76,2936.95
1636.46,2928.6
1651.14,3011.05
1665.78,2933.0
1680.41,2949.15
1695.0,2979.65
1709.57,2968.7
1724.11,2950.45
1738.62,3028.6
1753.11,3085.85
1767.57,3172.15
1782.01,3089.0
1796.41,3029.05
1810.8,3004.05
1825.15,3056.1
1839.48,3010.7
1853.79,3000.55
1868.06,3038.6
1882.31,3048.75
1896.54,3068.2
1910.74,3089.45
1924.91,3053.25
1939.06,3070.4
1953.19,3078.2
1967.28,3085.75
1981.35,3074.8
1995.4,3113.9
2009.42,3092.35
2023.42,3102.85
2037.39,3131.4
2051.33,3172.05
2065.25,3115.6
2079.15,3107.55
2093.01,3149.1
2106.86,3129.6
2120.68,3150.15
2134.47,3162.65
2148.24,3183.2
2161.99,3187.35
2175.71,3194.45
2189.41,3238.9
2203.08,3196.75
2216.73,3194.15
2230.35,3178.85
2243.95,3229.9
2257.52,3204.65
2271.07,3221.25
2284.6,3193.25
2298.1,3186.75
2311.58,3191.4
2325.03,3250.95
2338.46,3265.25
2351.87,3255.8
2365.25,3258.6
2378.61,3217.75
2391.94,3236.9
2405.26,3304.35
2418.54,3260.15
2431.81,3313.15
2445.05,3265.65
2458.27,3266.25
2471.46,3248.2
2484.63,3309.15
2497.78,3303.4
2510.9,3272.9
2524.0,3316.2
2537.08,3290.15
2550.14,3264.65
2563.17,3273.5
2576.18,3331.6
2589.17,3264.25
2602.13,3359.0
2615.07,3313.2
2627.99,3352.65
2640.89,3351.2
2653.76,3410.9
2666.61,3329.15
2679.44,3330.3
2692.25,3405.1
2705.03,3338.2
2717.79,3351.9
2730.53,3408.15
2743.25,3408.95
2755.94,3377.75
2768.61,3362.6
2781.27,3411.6
2793.89,3379.15
2806.5,3338.6
2819.09,3383.1
2831.65,3352.05
2844.19,3348.8
2856.71,3456.75
2869.21,3414.95
2881.69,3483.65
2894.14,3629.9
2906.58,3539.8
2918.99,3562.45
2931.38,3693.5
2943.75,4327.2
2956.1,4021.3
2968.42,3639.2
2980.73,3687.25
2993.01,3800.4
3005.28,3838.85
3017.52,3681.5
3029.74,3579.95
3041.94,3414.05
3054.12,3423.6
3066.28,3351.5
3078.42,3468.6
3090.54,3468.95
3102.63,3454.65
3114.71,3395.85
3126.77,3421.25
3138.8,3361.1
3150.82,3475.05
3162.81,3410.0
3174.78,3447.4
3186.74,3418.9
3198.67,3404.85
3210.58,3393.3
3222.47,3371.65
3234.35,3424.5
3246.2,3314.3
3258.03,3434.1
3269.84,3362.6
3281.64,3452.0
3293.41,3403.8
3305.16,3349.65
3316.89,3335.75
3328.61,3401.0
3340.3,3351.85
3351.97,3349.25
3363.63,3378.5
3375.26,3338.9
3386.88,3375.6
3398.47,3272.25
3410.05,3277.65
3421.6,3300.7
3433.14,3298.95
3444.66,3266.15
3456.15,3334.45
3467.63,3244.5
3479.09,3259.45
3490.53,3263.4
3501.96,3198.5
3513.36,3240.2
3524.74,3282.05
3536.11,3159.2
3547.45,3136.3
3558.78,3191.85
3570.09,3276.45
3581.37,3174.55
3592.64,3219.75
3603.9,3141.65
3615.13,3149.6
3626.34,3080.35
3637.54,3136.65
3648.72,3098.45
3659.87,3094.95
3665.45,2980.75