Folder: MPX_specDB/spectra (part 27)

File: VLFR_01-LDPE_nobio_Raman_a21ec54e.csv
nm,Intensity
526.5,829.7
527.047,827.2
527.594,830.1
528.14,829.1
528.687,828.5
529.233,827.8
529.779,828.3
530.325,828.9
530.871,827.9
531.417,828.8
531.962,834.9
532.508,830.3
533.053,829.4
533.599,828.8
534.144,933.9
534.689,921.9
535.234,908.1
535.778,892.9
536.323,878.9
536.867,873.2
537.412,867.1
537.956,862.4
538.5,862.5
539.044,858.7
539.588,859.3
540.132,856.0
540.675,853.8
541.219,854.8
541.762,853.9
542.305,854.5
542.848,853.3
543.391,853.6
543.934,853.2
544.477,852.6
545.02,853.9
545.562,853.9
546.105,853.1
546.647,856.3
547.189,854.0
547.731,856.0
548.273,854.6
548.815,854.7
549.356,855.0
549.898,853.1
550.439,855.5
550.981,855.1
551.522,854.5
552.063,854.9
552.604,856.2
553.145,858.6
553.686,857.6
554.226,859.4
554.767,860.4
555.307,856.4
555.848,859.1
556.388,856.7
556.928,862.2
557.468,861.0
558.008,861.6
558.547,859.7
559.087,860.9
559.626,863.6
560.166,861.2
560.705,864.6
561.244,863.9
561.783,862.8
562.322,865.9
562.861,865.1
563.4,867.1
563.939,873.0
564.477,869.0
565.015,866.6
565.554,863.0
566.092,871.7
566.63,865.4
567.168,866.7
567.706,864.2
568.244,865.4
568.781,871.0
569.319,870.5
569.857,870.3
570.394,873.5
570.931,873.2
571.468,884.6
572.005,876.3
572.542,877.1
573.079,872.1
573.616,872.8
574.153,874.4
574.689,873.6
575.226,874.5
575.762,879.3
576.298,895.0
576.834,890.4
577.371,882.9
577.907,876.2
578.442,873.1
578.978,876.1
579.514,876.8
580.049,875.6
580.585,875.4
581.12,881.7
581.656,881.4
582.191,886.5
582.726,885.9
583.261,894.6
583.796,895.8
584.331,897.3
584.865,893.3
585.4,893.2
585.935,897.1
586.469,896.4
587.004,899.2
587.538,905.5
588.072,905.3
588.606,913.3
589.14,913.9
589.674,918.8
590.208,919.3
590.742,929.4
591.275,927.6
591.809,930.5
592.342,934.7
592.876,934.7
593.409,938.8
593.942,939.7
594.476,952.2
595.009,953.9
595.542,961.7
596.075,965.9
596.607,976.0
597.14,980.4
597.673,981.1
598.205,992.2
598.738,1000.2
599.27,1005.6
599.803,1007.2
600.335,1013.0
600.867,1012.1
601.399,1013.2
601.931,1010.1
602.463,1011.1
602.995,1008.7
603.527,1004.3
604.058,998.3
604.59,1000.7
605.122,988.5
605.653,979.3
606.184,976.8
606.716,971.3
607.247,964.8
607.778,959.2
608.309,958.2
608.84,956.4
609.371,955.1
609.902,951.5
610.433,948.9
610.964,942.5
611.494,944.9
612.025,943.7
612.556,938.9
613.086,938.2
613.616,940.5
614.147,938.3
614.677,937.4
615.207,934.7
615.737,932.1
616.267,931.1
616.797,928.0
617.327,929.6
617.857,921.4
618.387,925.1
618.917,922.6
619.446,922.7
619.976,922.2
620.505,921.6
621.035,919.7
621.564,923.7
622.093,926.5
622.623,929.3
623.152,920.2
623.681,919.2
624.21,917.3
624.739,920.0
625.268,917.9
625.797,919.8
626.326,924.3
626.855,953.3
627.383,1015.2
627.912,984.8
628.441,1017.7
628.969,993.9
629.498,984.8
630.026,982.3
630.554,981.9
631.083,967.0
631.611,944.0
632.139,939.4
632.667,931.0
633.195,925.9
633.724,920.0
634.252,917.5
634.779,919.2
635.307,918.0
635.835,922.0
636.363,919.9
636.891,916.5
637.418,919.7
637.946,919.1
638.474,919.4
639.001,922.3
639.529,920.6
640.056,928.5
640.583,923.5
641.111,923.5
641.638,927.2
642.165,927.2
642.692,930.8
643.22,928.1
643.747,934.2
644.274,933.3
644.801,936.7
645.328,933.7
645.854,939.1
646.381,940.9
646.908,939.3
647.435,939.7
647.962,937.5
648.488,940.9
649.015,940.9
649.542,937.3
650.068,939.9
650.595,945.5
651.121,942.5
651.648,948.0
652.174,944.9
652.7,945.4
653.227,948.0
653.753,949.7
654.279,950.9
654.805,949.9
655.331,950.5
655.858,946.5
656.384,947.2
656.91,948.2
657.436,944.3
657.962,945.4
658.488,946.8
659.013,943.9
659.539,938.4
660.065,939.5
660.591,935.2
661.117,936.8
661.642,930.5
662.168,931.3
662.694,923.3
663.088,926.4

File: VLFR_01-LDPE_nobio_Raman_a86eebbe.csv
nm,Intensity
526.486,829.9
527.033,828.0
527.579,828.9
528.126,829.1
528.672,827.8
529.219,828.9
529.765,828.7
530.311,829.5
530.857,829.4
531.403,828.4
531.948,833.3
532.494,830.0
533.039,828.2
533.585,828.9
534.13,913.6
534.675,908.9
535.22,896.2
535.764,884.8
536.309,879.6
536.854,876.5
537.398,876.4
537.942,872.5
538.486,875.0
539.03,868.2
539.574,868.5
540.118,866.7
540.662,865.0
541.205,862.2
541.749,861.2
542.292,863.8
542.835,862.2
543.378,861.3
543.921,860.8
544.464,863.6
545.006,860.5
545.549,860.8
546.091,862.4
546.634,860.2
547.176,860.3
547.718,863.0
548.26,858.9
548.802,857.7
549.343,858.3
549.885,857.7
550.426,858.1
550.968,859.6
551.509,857.0
552.05,860.6
552.591,858.2
553.132,859.9
553.673,862.9
554.214,862.8
554.754,860.4
555.295,863.5
555.835,863.5
556.375,864.2
556.915,869.6
557.455,871.6
557.995,872.8
558.535,875.7
559.075,871.3
559.614,870.1
560.154,871.3
560.693,870.3
561.232,869.9
561.772,873.2
562.311,874.5
562.85,878.0
563.388,888.6
563.927,925.4
564.466,900.7
565.004,899.5
565.543,892.3
566.081,959.1
566.619,903.8
567.157,894.1
567.695,900.5
568.233,894.4
568.771,898.9
569.309,899.3
569.846,906.9
570.384,912.5
570.921,923.3
571.458,995.3
571.995,956.4
572.532,935.4
573.069,934.4
573.606,944.6
574.143,958.8
574.68,957.5
575.216,966.3
575.753,1029.6
576.289,1115.1
576.825,1077.8
577.361,1070.8
577.897,1058.2
578.433,1066.7
578.969,1086.7
579.505,1107.3
580.041,1128.9
580.576,1155.3
581.112,1167.4
581.647,1195.3
582.183,1218.4
582.718,1239.4
583.253,1265.4
583.788,1294.0
584.323,1311.0
584.858,1330.9
585.392,1369.0
585.927,1403.4
586.462,1438.6
586.996,1498.2
587.53,1531.6
588.065,1585.1
588.599,1624.0
589.133,1674.5
589.667,1713.7
590.201,1766.9
590.735,1815.5
591.268,1850.1
591.802,1885.6
592.335,1906.4
592.869,1918.8
593.402,1949.4
593.936,1976.8
594.469,2001.9
595.002,2042.8
595.535,2070.1
596.068,2119.6
596.601,2159.5
597.133,2205.4
597.666,2257.0
598.199,2308.7
598.731,2373.7
599.264,2408.1
599.796,2429.4
600.328,2448.0
600.86,2446.0
601.393,2440.5
601.925,2417.5
602.457,2393.4
602.988,2361.9
603.52,2310.0
604.052,2257.4
604.583,2187.8
605.115,2111.9
605.646,2032.3
606.178,1972.0
606.709,1914.1
607.24,1865.0
607.771,1834.2
608.302,1789.2
608.833,1762.4
609.364,1727.7
609.895,1698.0
610.426,1668.4
610.957,1652.7
611.487,1614.5
612.018,1615.5
612.548,1598.6
613.078,1577.9
613.609,1570.5
614.139,1538.5
614.669,1527.2
615.199,1498.3
615.729,1488.7
616.259,1457.1
616.789,1442.8
617.319,1434.4
617.849,1432.9
618.378,1421.0
618.908,1402.6
619.437,1383.9
619.967,1373.3
620.496,1367.7
621.025,1364.3
621.555,1354.1
622.084,1372.7
622.613,1370.2
623.142,1350.6
623.671,1326.6
624.2,1313.1
624.729,1314.4
625.258,1319.4
625.786,1316.8
626.315,1332.8
626.844,1492.6
627.372,1932.0
627.901,1660.9
628.429,1822.7
628.957,1746.6
629.486,1624.5
630.014,1535.4
630.542,1504.7
631.07,1399.4
631.598,1325.2
632.126,1299.1
632.654,1294.3
633.182,1282.9
633.71,1279.9
634.237,1294.2
634.765,1291.4
635.293,1280.7
635.82,1306.0
636.348,1318.1
636.875,1311.6
637.403,1322.9
637.93,1331.7
638.458,1342.8
638.985,1351.2
639.512,1365.2
640.039,1374.3
640.566,1380.7
641.093,1396.0
641.62,1405.5
642.147,1408.4
642.674,1432.6
643.201,1430.3
643.728,1433.8
644.255,1438.5
644.781,1442.9
645.308,1446.7
645.835,1455.4
646.361,1461.4
646.888,1461.7
647.414,1465.6
647.941,1471.8
648.467,1477.4
648.993,1476.8
649.52,1475.4
650.046,1480.6
650.572,1483.3
651.098,1476.2
651.625,1491.0
652.151,1503.8
652.677,1494.8
653.203,1515.6
653.729,1514.6
654.255,1509.3
654.78,1512.8
655.306,1505.9
655.832,1499.6
656.358,1477.8
656.884,1476.3
657.409,1460.6
657.935,1446.2
658.461,1436.7
658.986,1410.9
659.512,1397.4
660.037,1374.5
660.563,1346.6
661.088,1327.1
661.614,1313.2
662.139,1283.2
662.664,1263.9
663.058,1251.1

File: VLFR_01-LDPE_nobio_Raman_a235e122.csv
nm,Intensity
526.5,829.6
527.047,829.5
527.594,828.8
528.14,828.2
528.687,830.1
529.233,829.0
529.779,828.0
530.325,829.3
530.871,827.9
531.417,828.7
531.962,834.9
532.508,828.7
533.053,828.4
533.599,829.3
534.144,885.6
534.689,879.6
535.234,871.4
535.778,863.1
536.323,858.6
536.867,853.6
537.412,854.2
537.956,852.3
538.5,851.9
539.044,853.8
539.588,852.2
540.132,847.4
540.675,849.0
541.219,848.6
541.762,847.8
542.305,849.4
542.848,849.6
543.391,849.9
543.934,848.8
544.477,845.8
545.02,851.0
545.562,849.0
546.105,847.3
546.647,850.7
547.189,851.0
547.731,849.8
548.273,849.2
548.815,851.2
549.356,850.4
549.898,848.1
550.439,853.1
550.981,851.2
551.522,850.2
552.063,851.1
552.604,853.0
553.145,852.4
553.686,852.2
554.226,850.5
554.767,850.3
555.307,849.9
555.848,851.7
556.388,851.3
556.928,853.8
557.468,854.6
558.008,853.7
558.547,853.4
559.087,852.4
559.626,852.5
560.166,854.5
560.705,855.2
561.244,855.2
561.783,855.9
562.322,854.7
562.861,858.5
563.4,859.0
563.939,866.0
564.477,859.8
565.015,858.6
565.554,862.2
566.092,869.0
566.63,861.5
567.168,861.3
567.706,861.2
568.244,859.4
568.781,864.5
569.319,863.1
569.857,867.7
570.394,867.0
570.931,872.3
571.468,884.0
572.005,876.4
572.542,875.2
573.079,875.9
573.616,877.8
574.153,877.7
574.689,875.4
575.226,877.2
575.762,886.5
576.298,898.0
576.834,893.2
577.371,892.7
577.907,887.5
578.442,892.0
578.978,894.9
579.514,902.2
580.049,905.7
580.585,907.4
581.12,917.0
581.656,918.9
582.191,923.6
582.726,924.6
583.261,929.5
583.796,933.6
584.331,937.3
584.865,950.6
585.4,947.2
585.935,956.4
586.469,962.2
587.004,965.1
587.538,974.1
588.072,975.6
588.606,984.1
589.14,995.0
589.674,996.9
590.208,1004.5
590.742,1006.0
591.275,1013.4
591.809,1022.6
592.342,1020.7
592.876,1027.7
593.409,1029.8
593.942,1040.7
594.476,1038.2
595.009,1049.8
595.542,1055.4
596.075,1065.9
596.607,1071.9
597.14,1079.2
597.673,1084.6
598.205,1094.8
598.738,1102.4
599.27,1099.2
599.803,1113.5
600.335,1114.9
600.867,1110.1
601.399,1110.9
601.931,1111.6
602.463,1102.1
602.995,1098.7
603.527,1086.2
604.058,1086.4
604.59,1075.0
605.122,1063.2
605.653,1049.7
606.184,1037.5
606.716,1031.6
607.247,1030.5
607.778,1019.5
608.309,1015.3
608.84,1006.2
609.371,1007.0
609.902,997.0
610.433,990.2
610.964,994.9
611.494,988.6
612.025,987.3
612.556,987.3
613.086,982.3
613.616,981.8
614.147,973.7
614.677,974.7
615.207,970.4
615.737,966.2
616.267,971.0
616.797,966.9
617.327,965.1
617.857,960.9
618.387,963.3
618.917,960.9
619.446,956.7
619.976,955.3
620.505,949.7
621.035,954.9
621.564,950.0
622.093,951.8
622.623,953.4
623.152,951.7
623.681,947.5
624.21,948.2
624.739,948.2
625.268,949.2
625.797,948.3
626.326,948.1
626.855,971.0
627.383,1032.0
627.912,1003.8
628.441,1025.8
628.969,1021.9
629.498,1007.0
630.026,1006.8
630.554,1003.2
631.083,990.1
631.611,971.7
632.139,962.0
632.667,961.5
633.195,950.5
633.724,952.6
634.252,952.7
634.779,950.7
635.307,953.2
635.835,955.8
636.363,952.5
636.891,958.0
637.418,957.4
637.946,958.3
638.474,957.9
639.001,962.0
639.529,965.0
640.056,965.1
640.583,964.7
641.111,968.8
641.638,968.4
642.165,975.9
642.692,969.7
643.22,976.4
643.747,970.9
644.274,976.3
644.801,975.1
645.328,976.1
645.854,974.5
646.381,976.1
646.908,980.1
647.435,979.6
647.962,980.9
648.488,982.0
649.015,979.8
649.542,977.3
650.068,984.0
650.595,978.9
651.121,980.2
651.648,984.5
652.174,984.0
652.7,985.0
653.227,985.5
653.753,978.8
654.279,980.0
654.805,983.9
655.331,982.7
655.858,980.2
656.384,972.5
656.91,977.9
657.436,972.8
657.962,969.4
658.488,969.8
659.013,967.2
659.539,961.1
660.065,959.9
660.591,958.5
661.117,947.8
661.642,949.5
662.168,943.5
662.694,941.4
663.088,935.8

File: VLFR_01-LDPE_nobio_Raman_aa6bdee1.csv
nm,Intensity
526.532,830.4
527.079,830.1
527.625,830.85
528.172,829.4
528.718,830.9
529.265,830.1
529.811,829.9
530.357,830.1
530.903,830.35
531.449,831.05
531.994,838.05
532.54,830.85
533.085,830.75
533.63,831.75
534.176,922.25
534.721,902.1
535.266,887.55
535.81,871.85
536.355,865.55
536.9,861.2
537.444,861.8
537.988,859.95
538.533,856.8
539.077,853.2
539.621,851.55
540.165,849.75
540.708,848.35
541.252,845.75
541.795,846.5
542.339,845.8
542.882,844.35
543.425,844.3
543.968,845.5
544.511,843.55
545.054,844.1
545.597,842.4
546.139,843.75
546.682,843.85
547.224,841.95
547.766,842.15
548.308,842.2
548.85,840.95
549.392,841.95
549.934,841.2
550.475,840.9
551.017,840.95
551.558,841.95
552.1,840.7
552.641,842.35
553.182,841.7
553.723,846.55
554.264,845.2
554.804,845.35
555.345,847.8
555.885,849.8
556.426,850.2
556.966,852.35
557.506,856.15
558.046,858.75
558.586,861.95
559.126,856.3
559.665,853.7
560.205,852.6
560.745,850.9
561.284,853.25
561.823,854.75
562.362,856.35
562.901,858.65
563.44,865.65
563.979,956.2
564.518,892.6
565.056,878.5
565.595,874.45
566.133,993.4
566.671,874.65
567.21,865.8
567.748,861.5
568.285,856.95
568.823,857.6
569.361,858.35
569.899,859.1
570.436,864.6
570.974,872.85
571.511,1043.9
572.048,908.45
572.585,877.05
573.122,868.1
573.659,870.15
574.196,877.85
574.733,867.25
575.269,875.9
575.806,938.3
576.342,1042.6
576.878,979.65
577.414,932.05
577.951,893.65
578.486,891.4
579.022,893.6
579.558,897.45
580.094,900.95
580.629,907.85
581.165,912.7
581.7,916.85
582.236,922.9
582.771,927.55
583.306,940.8
583.841,945.45
584.376,952.0
584.911,958.0
585.445,972.7
585.98,982.85
586.514,1000.7
587.049,1014.0
587.583,1026.65
588.117,1044.8
588.651,1059.4
589.186,1075.75
589.72,1092.55
590.253,1107.15
590.787,1123.6
591.321,1136.7
591.854,1150.75
592.388,1158.7
592.921,1168.4
593.455,1172.35
593.988,1180.05
594.521,1183.7
595.054,1188.0
595.587,1196.35
596.12,1205.5
596.653,1210.85
597.186,1219.65
597.718,1227.2
598.251,1245.65
598.783,1254.25
599.316,1258.55
599.848,1267.35
600.38,1264.65
600.912,1264.35
601.444,1260.9
601.976,1257.6
602.508,1251.55
603.04,1243.55
603.572,1232.1
604.103,1219.1
604.635,1198.3
605.167,1176.7
605.698,1160.5
606.229,1145.9
606.761,1131.35
607.292,1120.95
607.823,1115.2
608.354,1102.85
608.885,1095.35
609.416,1089.95
609.947,1079.95
610.477,1076.75
611.008,1066.55
611.539,1064.9
612.069,1054.1
612.6,1054.2
613.13,1046.3
613.66,1043.7
614.19,1041.85
614.721,1036.3
615.251,1030.2
615.781,1025.85
616.311,1020.35
616.841,1021.1
617.37,1023.25
617.9,1020.15
618.43,1014.0
618.96,1013.15
619.489,1013.05
620.019,1008.6
620.548,1008.5
621.077,1009.3
621.607,1019.95
622.136,1036.75
622.665,1032.75
623.194,1007.5
623.723,992.4
624.252,993.2
624.781,992.1
625.31,994.7
625.839,1003.9
626.368,1031.45
626.896,1315.6
627.425,1792.4
627.953,1479.05
628.482,1782.4
629.01,1603.7
629.539,1462.5
630.067,1341.35
630.596,1307.95
631.124,1138.25
631.652,1049.15
632.18,1016.85
632.708,1002.1
633.236,996.05
633.764,991.55
634.292,988.8
634.82,990.55
635.348,990.25
635.876,994.35
636.403,997.5
636.931,1003.5
637.459,1002.25
637.986,1008.15
638.514,1009.6
639.041,1010.9
639.568,1017.15
640.096,1018.35
640.623,1026.35
641.15,1030.15
641.678,1033.75
642.205,1038.75
642.732,1041.75
643.259,1045.8
643.786,1045.9
644.313,1048.25
644.84,1051.45
645.367,1055.1
645.894,1057.45
646.421,1052.65
646.948,1056.85
647.474,1055.85
648.001,1060.35
648.528,1056.3
649.054,1052.0
649.581,1054.7
650.108,1052.55
650.634,1051.5
651.161,1051.05
651.687,1052.1
652.214,1056.35
652.74,1056.1
653.266,1051.85
653.793,1053.9
654.319,1052.1
654.845,1049.1
655.371,1048.55
655.897,1043.2
656.424,1046.8
656.95,1039.75
657.476,1033.75
658.002,1027.85
658.528,1023.95
659.054,1015.15
659.58,1011.8
660.106,1006.5
660.631,1002.15
661.157,990.35
661.683,987.2
662.209,982.3
662.735,975.2
663.129,966.8

File: VLFR_01-LDPE_nobio_Raman_aa51660e.csv
nm,Intensity
526.486,826.4
527.033,827.2
527.579,827.2
528.126,826.5
528.672,827.4
529.219,827.6
529.765,829.6
530.311,827.6
530.857,826.8
531.403,826.8
531.948,831.0
532.494,827.4
533.039,827.8
533.585,827.5
534.13,899.1
534.675,887.8
535.22,877.3
535.764,866.9
536.309,857.1
536.854,854.2
537.398,855.1
537.942,852.4
538.486,851.1
539.03,847.9
539.574,846.5
540.118,846.1
540.662,843.7
541.205,841.5
541.749,842.1
542.292,843.1
542.835,843.9
543.378,841.5
543.921,842.0
544.464,839.8
545.006,840.5
545.549,839.5
546.091,840.0
546.634,840.8
547.176,839.0
547.718,841.4
548.26,840.9
548.802,840.7
549.343,839.4
549.885,837.3
550.426,840.4
550.968,837.8
551.509,837.0
552.05,839.7
552.591,840.6
553.132,840.0
553.673,843.5
554.214,844.2
554.754,843.9
555.295,843.5
555.835,844.9
556.375,846.3
556.915,850.6
557.455,849.6
557.995,853.6
558.535,854.5
559.075,852.3
559.614,851.1
560.154,849.9
560.693,848.8
561.232,849.5
561.772,850.4
562.311,852.2
562.85,855.8
563.388,859.9
563.927,908.4
564.466,881.7
565.004,873.9
565.543,867.4
566.081,931.4
566.619,874.6
567.157,864.9
567.695,870.7
568.233,864.7
568.771,867.4
569.309,869.3
569.846,871.9
570.384,876.3
570.921,883.6
571.458,962.2
571.995,919.7
572.532,898.0
573.069,893.8
573.606,897.4
574.143,909.2
574.68,908.0
575.216,919.3
575.753,969.3
576.289,1066.4
576.825,1022.9
577.361,1006.3
577.897,977.7
578.433,989.3
578.969,1000.6
579.505,1012.8
580.041,1031.8
580.576,1047.6
581.112,1063.9
581.647,1072.4
582.183,1088.0
582.718,1105.1
583.253,1119.2
583.788,1137.3
584.323,1140.8
584.858,1151.5
585.392,1164.1
585.927,1173.5
586.462,1187.6
586.996,1208.7
587.53,1212.4
588.065,1225.8
588.599,1248.3
589.133,1263.0
589.667,1271.7
590.201,1291.8
590.735,1299.8
591.268,1314.7
591.802,1316.0
592.335,1344.3
592.869,1347.8
593.402,1355.5
593.936,1361.2
594.469,1362.6
595.002,1379.5
595.535,1397.6
596.068,1408.4
596.601,1422.7
597.133,1442.9
597.666,1450.6
598.199,1478.3
598.731,1486.3
599.264,1505.5
599.796,1506.4
600.328,1512.4
600.86,1518.0
601.393,1504.9
601.925,1500.5
602.457,1484.0
602.988,1477.5
603.52,1457.1
604.052,1429.8
604.583,1407.5
605.115,1383.9
605.646,1347.7
606.178,1320.0
606.709,1301.9
607.24,1286.3
607.771,1258.6
608.302,1257.8
608.833,1237.5
609.364,1217.5
609.895,1204.1
610.426,1191.8
610.957,1187.0
611.487,1178.9
612.018,1164.5
612.548,1161.2
613.078,1158.4
613.609,1156.6
614.139,1141.4
614.669,1131.5
615.199,1129.1
615.729,1113.4
616.259,1103.8
616.789,1100.5
617.319,1101.6
617.849,1096.4
618.378,1093.0
618.908,1091.0
619.437,1085.0
619.967,1085.0
620.496,1081.1
621.025,1077.4
621.555,1089.3
622.084,1103.7
622.613,1103.6
623.142,1077.1
623.671,1077.5
624.2,1066.1
624.729,1065.3
625.258,1066.3
625.786,1077.2
626.315,1101.0
626.844,1297.9
627.372,1781.6
627.901,1490.9
628.429,1676.7
628.957,1573.8
629.486,1461.4
630.014,1350.7
630.542,1336.8
631.07,1199.2
631.598,1123.2
632.126,1104.7
632.654,1091.6
633.182,1082.5
633.71,1082.7
634.237,1085.2
634.765,1079.5
635.293,1077.4
635.82,1085.8
636.348,1081.8
636.875,1088.7
637.403,1083.8
637.93,1081.4
638.458,1089.6
638.985,1092.7
639.512,1093.3
640.039,1096.3
640.566,1092.6
641.093,1103.6
641.62,1106.7
642.147,1103.2
642.674,1105.5
643.201,1107.1
643.728,1110.2
644.255,1104.4
644.781,1114.0
645.308,1111.7
645.835,1116.8
646.361,1115.3
646.888,1116.0
647.414,1122.0
647.941,1114.5
648.467,1121.7
648.993,1119.3
649.52,1115.3
650.046,1120.9
650.572,1127.3
651.098,1110.5
651.625,1123.5
652.151,1123.2
652.677,1129.7
653.203,1127.5
653.729,1135.7
654.255,1129.8
654.78,1127.1
655.306,1122.9
655.832,1116.6
656.358,1113.1
656.884,1112.8
657.409,1103.4
657.935,1104.6
658.461,1099.9
658.986,1088.4
659.512,1079.2
660.037,1069.2
660.563,1063.6
661.088,1054.7
661.614,1044.7
662.139,1030.5
662.664,1026.1
663.058,1017.7

File: VLFR_01-LDPE_nobio_Raman_b62990db.csv
nm,Intensity
526.486,827.9
527.033,829.2
527.579,829.3
528.126,827.5
528.672,829.2
529.219,829.7
529.765,829.1
530.311,829.0
530.857,829.5
531.403,830.1
531.948,832.4
532.494,830.6
533.039,828.9
533.585,827.5
534.13,862.8
534.675,863.0
535.22,855.8
535.764,852.0
536.309,851.6
536.854,849.2
537.398,848.6
537.942,848.3
538.486,845.6
539.03,846.0
539.574,845.8
540.118,843.7
540.662,842.8
541.205,844.7
541.749,844.5
542.292,841.1
542.835,842.6
543.378,842.6
543.921,842.3
544.464,841.9
545.006,842.1
545.549,844.1
546.091,841.0
546.634,841.7
547.176,841.5
547.718,843.9
548.26,840.8
548.802,843.0
549.343,840.4
549.885,840.5
550.426,842.6
550.968,841.6
551.509,839.3
552.05,841.8
552.591,842.4
553.132,842.1
553.673,843.3
554.214,842.7
554.754,841.5
555.295,842.4
555.835,843.0
556.375,844.7
556.915,845.0
557.455,845.3
557.995,849.1
558.535,846.0
559.075,844.7
559.614,845.2
560.154,845.5
560.693,844.6
561.232,844.5
561.772,845.8
562.311,845.4
562.85,845.4
563.388,848.2
563.927,868.5
564.466,857.1
565.004,853.7
565.543,852.4
566.081,876.3
566.619,853.5
567.157,849.8
567.695,851.0
568.233,852.4
568.771,849.1
569.309,852.0
569.846,850.7
570.384,854.2
570.921,853.5
571.458,884.5
571.995,869.7
572.532,857.6
573.069,857.9
573.606,859.5
574.143,862.9
574.68,858.0
575.216,860.4
575.753,877.0
576.289,913.7
576.825,894.3
577.361,884.1
577.897,871.8
578.433,870.7
578.969,872.7
579.505,874.9
580.041,875.2
580.576,883.0
581.112,884.2
581.647,889.7
582.183,892.5
582.718,894.4
583.253,899.3
583.788,900.8
584.323,911.1
584.858,912.1
585.392,921.7
585.927,926.9
586.462,934.7
586.996,936.5
587.53,949.9
588.065,953.8
588.599,965.0
589.133,972.9
589.667,983.9
590.201,993.6
590.735,998.6
591.268,1010.6
591.802,1010.2
592.335,1012.8
592.869,1026.2
593.402,1032.6
593.936,1037.4
594.469,1053.3
595.002,1048.0
595.535,1061.6
596.068,1069.9
596.601,1073.5
597.133,1091.7
597.666,1105.8
598.199,1113.9
598.731,1124.0
599.264,1137.2
599.796,1133.9
600.328,1144.4
600.86,1138.8
601.393,1141.4
601.925,1142.1
602.457,1136.5
602.988,1119.9
603.52,1111.7
604.052,1110.4
604.583,1094.4
605.115,1080.5
605.646,1066.7
606.178,1056.5
606.709,1048.1
607.24,1035.0
607.771,1031.9
608.302,1020.5
608.833,1014.2
609.364,1007.2
609.895,1007.9
610.426,1000.3
610.957,996.2
611.487,986.8
612.018,985.6
612.548,983.9
613.078,981.9
613.609,980.1
614.139,977.6
614.669,971.3
615.199,971.0
615.729,961.0
616.259,958.8
616.789,959.7
617.319,951.4
617.849,951.4
618.378,950.8
618.908,946.8
619.437,945.4
619.967,945.1
620.496,941.1
621.025,942.7
621.555,945.4
622.084,945.5
622.613,951.0
623.142,935.0
623.671,934.6
624.2,934.7
624.729,930.2
625.258,929.8
625.786,934.8
626.315,936.6
626.844,1005.4
627.372,1173.1
627.901,1077.3
628.429,1132.5
628.957,1102.4
629.486,1068.4
630.014,1025.7
630.542,1017.8
631.07,970.0
631.598,936.5
632.126,924.5
632.654,922.4
633.182,917.9
633.71,917.3
634.237,920.6
634.765,916.3
635.293,917.4
635.82,919.5
636.348,923.8
636.875,924.5
637.403,921.0
637.93,923.6
638.458,923.4
638.985,927.8
639.512,927.8
640.039,932.0
640.566,933.7
641.093,934.7
641.62,934.8
642.147,936.8
642.674,935.3
643.201,938.7
643.728,940.6
644.255,941.3
644.781,943.1
645.308,943.8
645.835,943.2
646.361,949.6
646.888,949.1
647.414,947.0
647.941,948.8
648.467,946.3
648.993,950.4
649.52,949.8
650.046,949.0
650.572,949.9
651.098,950.0
651.625,953.9
652.151,954.0
652.677,958.8
653.203,955.5
653.729,954.8
654.255,955.9
654.78,954.5
655.306,957.8
655.832,951.5
656.358,949.4
656.884,949.8
657.409,949.7
657.935,945.9
658.461,944.0
658.986,937.4
659.512,934.4
660.037,930.6
660.563,931.3
661.088,928.1
661.614,919.9
662.139,914.4
662.664,911.9
663.058,910.7