Folder: MPX_specDB/spectra (part 30)

File: VLFR_01-LDPE_nobio_Raman_d0789ad3.csv
nm,Intensity
526.508,830.3
527.055,829.9
527.602,830.8
528.149,831.25
528.695,830.55
529.241,830.4
529.787,830.7
530.334,829.95
530.879,829.75
531.425,830.6
531.971,832.35
532.516,831.75
533.062,829.5
533.607,830.95
534.152,926.05
534.697,914.65
535.242,896.45
535.786,878.35
536.331,870.65
536.876,867.0
537.42,864.9
537.964,865.05
538.508,860.5
539.052,857.65
539.596,856.5
540.14,853.0
540.683,852.95
541.227,850.4
541.77,850.0
542.313,849.75
542.856,848.95
543.399,849.9
543.942,849.85
544.485,850.1
545.027,847.55
545.57,846.65
546.112,847.75
546.654,848.25
547.196,847.9
547.738,847.15
548.28,846.9
548.822,847.2
549.363,846.15
549.905,848.0
550.446,846.45
550.988,848.75
551.529,845.65
552.07,849.2
552.611,848.6
553.152,852.25
553.692,854.7
554.233,854.25
554.773,854.55
555.314,856.3
555.854,859.3
556.394,860.25
556.934,862.95
557.474,865.15
558.014,869.25
558.553,869.7
559.093,868.25
559.632,866.1
560.172,866.2
560.711,866.65
561.25,868.1
561.789,871.1
562.328,874.6
562.867,879.2
563.406,885.0
563.944,953.1
564.483,911.25
565.021,906.8
565.559,901.75
566.098,971.3
566.636,909.45
567.174,904.75
567.711,908.45
568.249,907.85
568.787,909.2
569.324,917.05
569.862,924.15
570.399,937.3
570.936,951.0
571.474,1069.85
572.011,1005.7
572.548,987.45
573.084,990.95
573.621,1006.5
574.158,1029.4
574.694,1038.75
575.231,1068.0
575.767,1137.0
576.303,1300.55
576.84,1263.4
577.376,1266.8
577.912,1251.7
578.447,1283.5
578.983,1335.85
579.519,1381.35
580.054,1434.2
580.59,1481.35
581.125,1530.2
581.661,1586.45
582.196,1641.35
582.731,1693.9
583.266,1742.5
583.801,1793.8
584.336,1844.7
584.87,1886.4
585.405,1941.2
585.94,1997.95
586.474,2078.55
587.008,2131.25
587.543,2205.1
588.077,2262.5
588.611,2324.7
589.145,2371.85
589.679,2442.5
590.213,2524.4
590.747,2579.4
591.28,2643.8
591.814,2688.75
592.347,2716.3
592.881,2725.65
593.414,2759.85
593.947,2795.25
594.48,2822.1
595.014,2855.95
595.547,2900.9
596.079,2944.6
596.612,2993.55
597.145,3047.05
597.678,3088.45
598.21,3149.05
598.743,3211.8
599.275,3244.0
599.807,3273.65
600.34,3277.3
600.872,3259.6
601.404,3259.65
601.936,3223.5
602.468,3194.75
603.0,3139.8
603.532,3075.35
604.063,2992.15
604.595,2893.05
605.126,2797.35
605.658,2682.8
606.189,2595.7
606.721,2521.8
607.252,2462.8
607.783,2399.5
608.314,2337.35
608.845,2287.2
609.376,2227.3
609.907,2191.7
610.438,2141.45
610.968,2102.1
611.499,2068.05
612.03,2032.6
612.56,2016.55
613.091,1994.95
613.621,1969.3
614.151,1935.95
614.681,1908.2
615.212,1873.95
615.742,1844.65
616.272,1814.6
616.802,1802.3
617.332,1792.45
617.861,1767.95
618.391,1751.05
618.921,1720.75
619.45,1712.65
619.98,1692.35
620.509,1680.3
621.039,1675.5
621.568,1672.75
622.097,1698.4
622.627,1694.75
623.156,1659.25
623.685,1647.15
624.214,1641.15
624.743,1636.75
625.272,1636.0
625.801,1629.4
626.33,1668.9
626.858,1958.2
627.387,2513.75
627.916,2162.7
628.444,2481.6
628.973,2232.3
629.501,2105.55
630.029,1971.75
630.558,1957.15
631.086,1805.55
631.614,1720.55
632.142,1695.7
632.67,1685.7
633.198,1693.1
633.726,1691.75
634.254,1698.75
634.782,1710.4
635.31,1714.05
635.838,1730.4
636.365,1746.75
636.893,1747.15
637.421,1759.2
637.948,1764.2
638.476,1773.25
639.003,1790.5
639.531,1804.6
640.058,1823.05
640.585,1829.0
641.113,1841.55
641.64,1858.5
642.167,1852.9
642.694,1869.75
643.221,1871.95
643.748,1876.3
644.275,1879.45
644.802,1873.5
645.329,1875.3
645.856,1879.85
646.382,1889.1
646.909,1889.15
647.436,1889.45
647.962,1887.55
648.489,1882.6
649.016,1880.5
649.542,1873.75
650.069,1874.0
650.595,1873.25
651.121,1879.85
651.648,1867.7
652.174,1877.6
652.7,1879.65
653.227,1883.15
653.753,1876.95
654.279,1879.95
654.805,1871.2
655.331,1856.4
655.857,1845.0
656.383,1816.4
656.909,1812.05
657.435,1796.9
657.961,1768.85
658.487,1753.85
659.013,1723.2
659.538,1695.35
660.064,1658.05
660.59,1631.0
661.116,1593.3
661.641,1569.3
662.167,1537.95
662.692,1511.3
663.087,1491.5

File: VLFR_01-LDPE_nobio_Raman_dc69b9fd.csv
nm,Intensity
526.486,828.3
527.033,829.9
527.579,829.6
528.126,829.2
528.672,827.7
529.219,828.2
529.765,828.4
530.311,829.8
530.857,828.0
531.403,829.0
531.948,830.7
532.494,830.2
533.039,828.8
533.585,830.4
534.13,918.9
534.675,901.9
535.22,885.7
535.764,871.0
536.309,866.5
536.854,860.4
537.398,859.2
537.942,860.8
538.486,856.9
539.03,854.0
539.574,850.1
540.118,851.1
540.662,849.1
541.205,847.6
541.749,843.9
542.292,844.8
542.835,845.4
543.378,845.4
543.921,846.7
544.464,846.3
545.006,844.7
545.549,841.7
546.091,841.6
546.634,845.1
547.176,842.7
547.718,842.5
548.26,841.9
548.802,844.1
549.343,841.9
549.885,841.7
550.426,842.8
550.968,841.4
551.509,842.8
552.05,844.4
552.591,841.9
553.132,843.9
553.673,848.6
554.214,848.2
554.754,846.6
555.295,846.5
555.835,849.0
556.375,853.3
556.915,854.7
557.455,856.1
557.995,860.0
558.535,862.3
559.075,857.0
559.614,855.8
560.154,855.5
560.693,854.8
561.232,855.7
561.772,857.3
562.311,859.8
562.85,865.7
563.388,869.3
563.927,925.0
564.466,893.2
565.004,887.7
565.543,879.1
566.081,959.4
566.619,887.9
567.157,877.9
567.695,883.6
568.233,875.9
568.771,879.4
569.309,880.2
569.846,882.9
570.384,888.5
570.921,900.4
571.458,1003.1
571.995,947.3
572.532,919.3
573.069,911.6
573.606,916.6
574.143,932.2
574.68,926.1
575.216,936.2
575.753,1002.2
576.289,1112.9
576.825,1063.6
577.361,1041.4
577.897,1001.5
578.433,1006.0
578.969,1024.1
579.505,1037.9
580.041,1056.0
580.576,1071.7
581.112,1090.8
581.647,1096.3
582.183,1119.6
582.718,1132.4
583.253,1147.4
583.788,1161.3
584.323,1171.6
584.858,1195.5
585.392,1210.4
585.927,1229.3
586.462,1246.1
586.996,1270.2
587.53,1289.7
588.065,1318.7
588.599,1344.7
589.133,1355.9
589.667,1381.8
590.201,1411.2
590.735,1428.1
591.268,1453.5
591.802,1464.9
592.335,1466.9
592.869,1483.2
593.402,1482.2
593.936,1483.4
594.469,1493.4
595.002,1502.2
595.535,1508.2
596.068,1514.2
596.601,1525.3
597.133,1535.7
597.666,1531.6
598.199,1542.9
598.731,1538.2
599.264,1571.8
599.796,1570.6
600.328,1574.6
600.86,1571.2
601.393,1554.9
601.925,1546.2
602.457,1541.6
602.988,1533.3
603.52,1502.3
604.052,1488.6
604.583,1462.6
605.115,1429.7
605.646,1392.8
606.178,1380.8
606.709,1348.5
607.24,1349.4
607.771,1318.9
608.302,1306.7
608.833,1287.0
609.364,1286.9
609.895,1263.2
610.426,1255.8
610.957,1248.1
611.487,1244.4
612.018,1220.4
612.548,1228.8
613.078,1219.8
613.609,1213.1
614.139,1198.5
614.669,1193.1
615.199,1183.1
615.729,1181.8
616.259,1170.7
616.789,1164.7
617.319,1166.2
617.849,1152.4
618.378,1150.2
618.908,1145.6
619.437,1137.1
619.967,1142.9
620.496,1138.0
621.025,1129.4
621.555,1138.8
622.084,1166.4
622.613,1169.9
623.142,1132.5
623.671,1110.7
624.2,1119.5
624.729,1113.1
625.258,1118.8
625.786,1119.7
626.315,1152.6
626.844,1394.7
627.372,1979.0
627.901,1634.4
628.429,1854.9
628.957,1760.0
629.486,1611.3
630.014,1466.4
630.542,1449.4
631.07,1282.0
631.598,1178.4
632.126,1151.4
632.654,1129.5
633.182,1127.5
633.71,1129.1
634.237,1122.7
634.765,1128.8
635.293,1121.7
635.82,1128.4
636.348,1130.0
636.875,1137.2
637.403,1137.7
637.93,1140.0
638.458,1144.0
638.985,1143.8
639.512,1160.6
640.039,1152.9
640.566,1162.3
641.093,1176.5
641.62,1171.8
642.147,1175.0
642.674,1179.2
643.201,1179.7
643.728,1181.3
644.255,1185.8
644.781,1179.3
645.308,1181.4
645.835,1180.1
646.361,1196.4
646.888,1182.8
647.414,1192.6
647.941,1185.8
648.467,1180.6
648.993,1176.6
649.52,1179.5
650.046,1184.0
650.572,1172.2
651.098,1177.1
651.625,1179.5
652.151,1173.5
652.677,1179.1
653.203,1174.5
653.729,1172.7
654.255,1172.8
654.78,1172.6
655.306,1166.5
655.832,1154.4
656.358,1151.7
656.884,1153.1
657.409,1137.7
657.935,1127.4
658.461,1133.6
658.986,1119.4
659.512,1110.7
660.037,1107.6
660.563,1093.3
661.088,1084.4
661.614,1070.9
662.139,1066.2
662.664,1055.7
663.058,1049.3

File: VLFR_01-LDPE_nobio_Raman_e6c4c421.csv
nm,Intensity
526.532,830.05
527.079,830.375
527.625,829.525
528.172,830.65
528.718,829.825
529.265,830.075
529.811,829.475
530.357,830.35
530.903,830.575
531.449,830.025
531.994,837.075
532.54,830.375
533.085,830.15
533.63,830.825
534.176,855.625
534.721,853.7
535.266,849.825
535.81,846.325
536.355,844.35
536.9,843.325
537.444,843.75
537.988,842.7
538.533,842.95
539.077,846.625
539.621,843.8
540.165,842.25
540.708,842.85
541.252,845.5
541.795,846.775
542.339,846.975
542.882,849.575
543.425,847.4
543.968,845.175
544.511,846.5
545.054,847.2
545.597,846.5
546.139,844.525
546.682,846.0
547.224,848.2
547.766,845.575
548.308,842.15
548.85,842.875
549.392,842.825
549.934,842.35
550.475,841.6
551.017,841.675
551.558,842.2
552.1,841.5
552.641,841.0
553.182,841.0
553.723,841.25
554.264,840.35
554.804,840.9
555.345,841.075
555.885,840.95
556.426,840.5
556.966,841.125
557.506,840.7
558.046,842.4
558.586,842.95
559.126,843.65
559.665,842.475
560.205,841.7
560.745,843.0
561.284,842.95
561.823,844.425
562.362,844.175
562.901,845.7
563.44,847.725
563.979,856.825
564.518,855.475
565.056,867.9
565.595,859.35
566.133,869.8
566.671,852.725
567.21,847.8
567.748,845.4
568.285,843.875
568.823,844.575
569.361,844.85
569.899,846.275
570.436,847.375
570.974,849.475
571.511,864.525
572.048,854.275
572.585,853.7
573.122,853.25
573.659,850.95
574.196,854.725
574.733,853.275
575.269,851.45
575.806,856.05
576.342,861.675
576.878,857.45
577.414,854.025
577.951,848.9
578.486,848.25
579.022,848.575
579.558,847.425
580.094,849.275
580.629,848.975
581.165,850.05
581.7,849.375
582.236,852.075
582.771,851.3
583.306,852.55
583.841,853.05
584.376,853.95
584.911,854.85
585.445,855.425
585.98,856.55
586.514,858.575
587.049,858.8
587.583,859.625
588.117,862.5
588.651,863.6
589.186,864.325
589.72,866.4
590.253,867.3
590.787,868.75
591.321,871.225
591.854,871.975
592.388,873.925
592.921,876.35
593.455,876.6
593.988,878.425
594.521,881.75
595.054,885.05
595.587,888.375
596.12,890.175
596.653,893.575
597.186,896.05
597.718,899.4
598.251,903.75
598.783,906.875
599.316,909.375
599.848,912.1
600.38,913.0
600.912,914.8
601.444,914.15
601.976,913.7
602.508,911.6
603.04,911.4
603.572,908.0
604.103,905.225
604.635,903.45
605.167,899.9
605.698,895.275
606.229,892.9
606.761,889.875
607.292,888.8
607.823,884.125
608.354,884.375
608.885,882.5
609.416,882.225
609.947,879.75
610.477,879.425
611.008,875.35
611.539,876.75
612.069,875.2
612.6,874.325
613.13,874.1
613.66,873.15
614.19,871.425
614.721,870.775
615.251,870.1
615.781,869.35
616.311,868.375
616.841,868.075
617.37,867.875
617.9,866.425
618.43,866.2
618.96,866.125
619.489,866.325
620.019,866.6
620.548,863.1
621.077,865.225
621.607,865.8
622.136,867.55
622.665,868.375
623.194,865.475
623.723,865.0
624.252,864.2
624.781,864.45
625.31,864.525
625.839,866.85
626.368,869.1
626.896,891.4
627.425,931.175
627.953,912.825
628.482,940.1
629.01,937.025
629.539,924.9
630.067,911.7
630.596,904.15
631.124,886.425
631.652,874.875
632.18,870.375
632.708,864.6
633.236,861.625
633.764,860.15
634.292,857.875
634.82,856.8
635.348,857.025
635.876,858.1
636.403,857.175
636.931,857.05
637.459,856.3
637.986,857.075
638.514,856.725
639.041,857.475
639.568,857.9
640.096,858.425
640.623,858.95
641.15,858.775
641.678,860.7
642.205,862.25
642.732,862.525
643.259,863.525
643.786,862.55
644.313,864.25
644.84,866.175
645.367,865.325
645.894,868.45
646.421,866.15
646.948,869.525
647.474,870.725
648.001,870.9
648.528,871.125
649.054,870.425
649.581,872.125
650.108,873.925
650.634,872.725
651.161,872.15
651.687,872.875
652.214,873.775
652.74,872.575
653.266,873.325
653.793,873.6
654.319,873.125
654.845,874.2
655.371,873.275
655.897,871.975
656.424,870.65
656.95,870.875
657.476,870.35
658.002,869.1
658.528,867.4
659.054,867.975
659.58,866.425
660.106,864.975
660.631,863.325
661.157,861.25
661.683,861.6
662.209,859.15
662.735,858.7
663.129,855.625

File: VLFR_01-LDPE_nobio_Raman_e7b0b448.csv
nm,Intensity
528.65,1836.25
529.155,1837.2
529.66,1837.55
530.165,1837.65
530.67,1837.2
531.175,1839.25
531.68,1852.85
532.185,2451.45
532.69,1839.3
533.194,1838.55
533.699,1901.5
534.204,2037.55
534.708,2027.85
535.213,2008.7
535.717,1988.9
536.222,1970.7
536.726,1952.4
537.231,1958.75
537.735,1965.1
538.239,1953.65
538.743,1951.5
539.247,1932.45
539.751,1942.6
540.255,1940.1
540.759,1939.55
541.263,1938.35
541.767,1937.85
542.271,1938.0
542.775,1935.75
543.279,1936.3
543.782,1937.3
544.286,1934.25
544.789,1934.95
545.293,1935.75
545.796,1930.95
546.3,1933.45
546.803,1937.45
547.306,1933.6
547.81,1936.35
548.313,1935.85
548.816,1929.75
549.319,1932.35
549.822,1930.05
550.325,1930.5
550.828,1933.4
551.331,1933.5
551.834,1939.4
552.337,1938.1
552.839,1934.45
553.342,1950.15
553.844,1947.4
554.347,1946.5
554.849,1953.85
555.352,1950.05
555.854,1958.3
556.357,1957.55
556.859,1967.55
557.361,1980.6
557.863,1981.6
558.365,1988.75
558.867,1989.9
559.369,1978.5
559.871,1969.35
560.373,1977.05
560.875,1975.55
561.377,1974.0
561.878,1976.95
562.38,1990.35
562.881,1994.2
563.383,2013.25
563.884,2193.15
564.386,2090.2
564.887,2056.05
565.388,2029.7
565.89,2135.8
566.391,2128.65
566.892,2032.45
567.393,2054.0
567.894,2020.85
568.395,2026.6
568.896,2020.95
569.396,2027.8
569.897,2042.25
570.398,2056.15
570.898,2077.95
571.399,2392.7
571.9,2203.9
572.4,2138.95
572.9,2103.95
573.401,2112.95
573.901,2148.85
574.401,2136.8
574.901,2151.4
575.401,2279.6
575.901,2399.7
576.401,2623.55
576.901,2521.75
577.401,2401.0
577.901,2360.85
578.4,2374.25
578.9,2424.35
579.399,2467.55
579.899,2526.5
580.398,2569.7
580.898,2621.35
581.397,2675.6
581.896,2667.1
582.395,2768.45
582.895,2774.8
583.394,2805.25
583.893,2877.55
584.391,2854.15
584.89,2934.8
585.389,2999.75
585.888,3008.65
586.386,3053.2
586.885,3085.8
587.384,3173.9
587.882,3248.9
588.38,3258.8
588.879,3293.75
589.377,3370.35
589.875,3423.65
590.373,3509.9
590.871,3481.7
591.369,3599.15
591.867,3647.95
592.365,3635.85
592.863,3680.2
593.361,3665.3
593.858,3723.15
594.356,3735.65
594.853,3798.85
595.351,3874.9
595.848,3901.6
596.345,3979.4
596.843,4019.4
597.34,4136.5
597.837,4181.15
598.334,4254.6
598.831,4273.2
599.328,4360.5
599.824,4391.9
600.321,4496.2
600.818,4468.25
601.314,4424.65
601.811,4477.45
602.307,4372.5
602.804,4322.6
603.3,4300.1
603.796,4181.25
604.293,4107.8
604.789,4037.3
605.285,3928.55
605.781,3844.2
606.277,3803.15
606.772,3692.85
607.268,3631.45
607.764,3557.65
608.259,3457.7
608.755,3419.4
609.25,3383.6
609.746,3332.8
610.241,3255.85
610.736,3233.0
611.231,3206.95
611.727,3211.45
612.222,3164.7
612.716,3138.25
613.211,3092.6
613.706,3054.45
614.201,3029.7
614.695,3010.1
615.19,2972.6
615.684,2949.0
616.179,2911.4
616.673,2909.65
617.168,2891.3
617.662,2886.2
618.156,2863.5
618.65,2828.7
619.144,2844.4
619.638,2798.8
620.131,2808.3
620.625,2796.8
621.119,2832.4
621.612,2843.65
622.106,2915.75
622.599,2859.25
623.093,2790.85
623.586,2768.9
624.079,2717.8
624.572,2732.7
625.065,2731.4
625.558,2737.6
626.051,2785.95
626.544,3126.05
627.037,4940.7
627.529,4753.2
628.022,4279.95
628.514,5419.1
629.007,4383.15
629.499,3993.15
629.991,3714.2
630.483,3599.9
630.976,3152.3
631.468,2872.7
631.959,2787.0
632.451,2762.5
632.943,2735.25
633.435,2706.8
633.926,2773.8
634.418,2723.7
634.909,2731.0
635.401,2749.6
635.892,2699.2
636.383,2719.95
636.874,2729.85
637.365,2729.5
637.856,2747.0
638.347,2760.9
638.838,2766.2
639.329,2794.6
639.819,2774.55
640.31,2835.45
640.8,2818.2
641.291,2825.1
641.781,2835.55
642.271,2835.85
642.761,2843.7
643.251,2846.7
643.741,2860.85
644.231,2881.9
644.721,2896.45
645.211,2915.15
645.7,2901.45
646.19,2880.6
646.679,2897.6
647.169,2886.1
647.658,2874.8
648.147,2884.15
648.636,2884.65
649.125,2874.3
649.614,2894.85
650.103,2875.85
650.592,2900.05
651.08,2912.7
651.569,2841.35
652.058,2884.0
652.546,2861.0
653.034,2856.0
653.523,2857.35
654.011,2880.6
654.499,2827.5
654.987,2820.75
655.475,2810.45
655.963,2831.15
656.45,2798.25
656.938,2780.5
657.425,2745.6
657.913,2752.85
658.4,2682.2
658.888,2672.9
659.375,2625.2
659.862,2605.5
660.349,2559.0
660.836,2517.8
661.079,2512.1

File: VLFR_01-LDPE_nobio_Raman_e12a6ef7.csv
nm,Intensity
526.486,830.6
527.033,830.2
527.579,829.1
528.126,829.5
528.672,830.8
529.219,830.1
529.765,831.1
530.311,830.8
530.857,831.6
531.403,830.4
531.948,834.4
532.494,832.4
533.039,830.9
533.585,830.3
534.13,896.4
534.675,890.3
535.22,875.7
535.764,865.7
536.309,858.7
536.854,854.6
537.398,853.2
537.942,853.4
538.486,851.3
539.03,848.0
539.574,845.0
540.118,846.2
540.662,845.2
541.205,842.6
541.749,843.4
542.292,845.5
542.835,844.7
543.378,843.7
543.921,844.3
544.464,842.7
545.006,844.4
545.549,842.3
546.091,843.7
546.634,842.7
547.176,844.0
547.718,843.7
548.26,843.8
548.802,843.5
549.343,843.3
549.885,842.5
550.426,843.2
550.968,844.9
551.509,844.6
552.05,842.6
552.591,843.1
553.132,845.8
553.673,846.9
554.214,848.6
554.754,848.1
555.295,849.4
555.835,850.8
556.375,851.2
556.915,850.9
557.455,854.3
557.995,854.9
558.535,857.1
559.075,853.3
559.614,856.1
560.154,851.6
560.693,852.4
561.232,852.9
561.772,854.5
562.311,855.5
562.85,860.3
563.388,862.1
563.927,938.4
564.466,882.6
565.004,879.5
565.543,872.1
566.081,1004.1
566.619,876.3
567.157,866.0
567.695,867.0
568.233,861.3
568.771,860.0
569.309,861.1
569.846,864.3
570.384,864.4
570.921,873.4
571.458,1000.2
571.995,897.9
572.532,875.6
573.069,868.3
573.606,868.9
574.143,880.2
574.68,871.3
575.216,880.8
575.753,968.5
576.289,1002.5
576.825,954.1
577.361,931.0
577.897,897.2
578.433,894.0
578.969,899.0
579.505,904.8
580.041,909.9
580.576,915.2
581.112,924.5
581.647,929.1
582.183,933.7
582.718,944.7
583.253,948.7
583.788,954.9
584.323,955.3
584.858,958.6
585.392,961.3
585.927,966.9
586.462,970.0
586.996,967.0
587.53,970.8
588.065,973.4
588.599,976.8
589.133,970.3
589.667,972.8
590.201,974.8
590.735,972.2
591.268,977.9
591.802,981.8
592.335,980.9
592.869,985.7
593.402,982.6
593.936,983.3
594.469,988.2
595.002,990.8
595.535,991.9
596.068,991.9
596.601,992.8
597.133,1005.6
597.666,1003.7
598.199,1003.0
598.731,1009.1
599.264,1013.2
599.796,1016.7
600.328,1018.2
600.86,1017.3
601.393,1020.4
601.925,1021.6
602.457,1017.3
602.988,1014.0
603.52,1016.6
604.052,1009.8
604.583,1006.2
605.115,1002.0
605.646,998.5
606.178,991.2
606.709,989.2
607.24,977.0
607.771,976.1
608.302,974.4
608.833,973.8
609.364,967.2
609.895,966.2
610.426,961.0
610.957,957.8
611.487,960.6
612.018,953.9
612.548,948.0
613.078,949.4
613.609,945.4
614.139,947.9
614.669,944.2
615.199,940.1
615.729,937.5
616.259,941.2
616.789,937.9
617.319,939.6
617.849,943.4
618.378,937.8
618.908,937.2
619.437,939.1
619.967,940.0
620.496,935.0
621.025,942.5
621.555,951.9
622.084,974.4
622.613,969.6
623.142,945.1
623.671,935.8
624.2,935.6
624.729,933.0
625.258,936.5
625.786,943.1
626.315,970.3
626.844,1197.9
627.372,1735.2
627.901,1381.1
628.429,1556.1
628.957,1494.3
629.486,1358.9
630.014,1215.2
630.542,1191.2
631.07,1054.9
631.598,968.7
632.126,952.3
632.654,942.0
633.182,937.7
633.71,933.5
634.237,930.3
634.765,928.6
635.293,928.0
635.82,930.2
636.348,927.3
636.875,928.8
637.403,925.0
637.93,920.6
638.458,923.5
638.985,921.2
639.512,920.2
640.039,922.4
640.566,921.6
641.093,919.5
641.62,922.4
642.147,921.9
642.674,918.8
643.201,917.6
643.728,918.6
644.255,917.6
644.781,916.6
645.308,918.2
645.835,918.7
646.361,920.1
646.888,923.0
647.414,917.9
647.941,919.3
648.467,920.7
648.993,919.6
649.52,917.2
650.046,922.8
650.572,915.4
651.098,917.4
651.625,914.9
652.151,918.7
652.677,916.7
653.203,917.3
653.729,918.2
654.255,913.8
654.78,914.0
655.306,916.9
655.832,921.1
656.358,916.5
656.884,914.8
657.409,916.5
657.935,915.5
658.461,911.6
658.986,914.1
659.512,906.1
660.037,907.4
660.563,905.7
661.088,904.5
661.614,900.5
662.139,900.2
662.664,900.2
663.058,899.4

File: VLFR_01-LDPE_nobio_Raman_e90c3bbf.csv
nm,Intensity
526.508,830.85
527.055,830.0
527.602,830.7
528.149,830.25
528.695,830.25
529.241,829.65
529.787,830.4
530.334,830.05
530.879,829.55
531.425,830.65
531.971,833.75
532.516,831.45
533.062,830.2
533.607,830.25
534.152,915.45
534.697,902.3
535.242,891.8
535.786,876.7
536.331,868.55
536.876,864.75
537.42,865.85
537.964,865.25
538.508,861.95
539.052,857.9
539.596,856.75
540.14,856.35
540.683,855.95
541.227,853.5
541.77,853.2
542.313,853.6
542.856,852.85
543.399,852.65
543.942,852.3
544.485,851.95
545.027,851.75
545.57,850.7
546.112,851.1
546.654,849.15
547.196,850.15
547.738,849.7
548.28,850.3
548.822,849.55
549.363,849.15
549.905,847.9
550.446,849.8
550.988,851.65
551.529,849.3
552.07,850.65
552.611,850.95
553.152,852.95
553.692,855.75
554.233,856.55
554.773,856.75
555.314,857.35
555.854,859.6
556.394,861.95
556.934,864.4
557.474,867.45
558.014,869.65
558.553,868.8
559.093,868.25
559.632,870.4
560.172,869.55
560.711,869.55
561.25,872.0
561.789,875.5
562.328,878.6
562.867,883.05
563.406,890.6
563.944,942.8
564.483,910.2
565.021,907.3
565.559,904.9
566.098,958.4
566.636,913.2
567.174,908.7
567.711,912.9
568.249,910.6
568.787,916.35
569.324,921.8
569.862,930.2
570.399,939.75
570.936,955.05
571.474,1051.65
572.011,1000.4
572.548,985.95
573.084,996.3
573.621,1014.5
574.158,1035.1
574.694,1045.2
575.231,1069.65
575.767,1140.2
576.303,1262.45
576.84,1248.85
577.376,1259.85
577.912,1265.05
578.447,1309.85
578.983,1357.05
579.519,1404.8
580.054,1469.5
580.59,1518.25
581.125,1570.9
581.661,1622.9
582.196,1684.95
582.731,1729.45
583.266,1772.95
583.801,1824.45
584.336,1858.75
584.87,1888.3
585.405,1937.05
585.94,1974.3
586.474,2036.15
587.008,2091.1
587.543,2159.75
588.077,2204.65
588.611,2259.4
589.145,2316.05
589.679,2390.45
590.213,2446.6
590.747,2522.7
591.28,2588.95
591.814,2645.0
592.347,2659.7
592.881,2684.4
593.414,2714.85
593.947,2752.65
594.48,2788.05
595.014,2824.3
595.547,2896.35
596.079,2945.9
596.612,2998.9
597.145,3061.25
597.678,3113.95
598.21,3201.4
598.743,3258.95
599.275,3312.7
599.807,3348.95
600.34,3368.4
600.872,3354.5
601.404,3347.6
601.936,3318.85
602.468,3276.75
603.0,3249.9
603.532,3180.7
604.063,3093.85
604.595,2986.35
605.126,2885.25
605.658,2771.2
606.189,2672.15
606.721,2586.65
607.252,2526.1
607.783,2456.3
608.314,2398.0
608.845,2331.6
609.376,2276.4
609.907,2224.35
610.438,2175.75
610.968,2141.15
611.499,2100.9
612.03,2073.15
612.56,2064.55
613.091,2043.15
613.621,2010.65
614.151,1981.95
614.681,1953.0
615.212,1922.4
615.742,1881.3
616.272,1860.85
616.802,1845.35
617.332,1822.4
617.861,1795.2
618.391,1782.6
618.921,1767.15
619.45,1749.8
619.98,1735.45
620.509,1709.6
621.039,1713.05
621.568,1717.15
622.097,1735.95
622.627,1731.55
623.156,1694.65
623.685,1683.2
624.214,1677.1
624.743,1673.7
625.272,1678.5
625.801,1672.5
626.33,1709.2
626.858,1956.2
627.387,2462.05
627.916,2140.95
628.444,2399.3
628.973,2213.2
629.501,2096.6
630.029,1985.3
630.558,1967.7
631.086,1835.9
631.614,1766.45
632.142,1744.5
632.67,1732.85
633.198,1739.4
633.726,1750.45
634.254,1754.6
634.782,1755.75
635.31,1761.65
635.838,1772.35
636.365,1774.2
636.893,1789.1
637.421,1796.35
637.948,1804.05
638.476,1809.9
639.003,1824.45
639.531,1829.25
640.058,1847.2
640.585,1855.0
641.113,1866.6
641.64,1885.0
642.167,1902.05
642.694,1913.2
643.221,1911.85
643.748,1911.3
644.275,1925.3
644.802,1928.05
645.329,1931.5
645.856,1942.5
646.382,1939.2
646.909,1951.9
647.436,1964.6
647.962,1959.05
648.489,1958.6
649.016,1952.15
649.542,1954.9
650.069,1954.95
650.595,1953.9
651.121,1964.0
651.648,1970.55
652.174,1975.05
652.7,1983.5
653.227,1993.2
653.753,1994.55
654.279,1985.35
654.805,1979.9
655.331,1969.05
655.857,1956.85
656.383,1936.8
656.909,1933.9
657.435,1908.35
657.961,1878.05
658.487,1861.2
659.013,1829.25
659.538,1799.05
660.064,1757.65
660.59,1729.4
661.116,1685.65
661.641,1644.25
662.167,1620.75
662.692,1593.3
663.087,1560.45