Folder: MPX_specDB/spectra (part 127)

File: VLFR_08-PLA_bio_Raman_5db7adae.csv
nm,Intensity
526.547,830.95
527.095,831.9
527.642,831.75
528.189,830.25
528.736,830.25
529.283,830.75
529.829,830.85
530.376,831.75
530.922,831.55
531.468,831.2
532.014,844.05
532.56,832.0
533.106,831.35
533.651,833.4
534.196,944.85
534.742,926.8
535.287,908.6
535.832,903.9
536.376,900.4
536.921,901.6
537.465,897.3
538.01,894.75
538.554,891.75
539.098,892.4
539.642,890.2
540.186,890.3
540.729,894.2
541.273,896.05
541.816,893.25
542.36,892.35
542.903,896.85
543.446,903.8
543.988,908.35
544.531,905.3
545.074,899.3
545.616,898.4
546.158,897.0
546.701,895.75
547.243,898.3
547.785,897.4
548.326,900.25
548.868,901.7
549.41,901.1
549.951,903.9
550.492,904.2
551.034,909.8
551.575,909.85
552.116,907.0
552.656,908.7
553.197,908.4
553.738,909.45
554.278,911.45
554.819,908.95
555.359,908.5
555.899,904.35
556.439,907.6
556.979,911.6
557.519,920.55
558.058,969.35
558.598,921.55
559.137,918.95
559.677,919.5
560.216,916.3
560.755,915.5
561.294,916.95
561.833,927.5
562.371,975.25
562.91,931.1
563.449,939.5
563.987,929.55
564.525,925.2
565.064,937.55
565.602,936.65
566.14,950.3
566.678,938.1
567.216,928.6
567.753,931.65
568.291,935.35
568.828,933.45
569.366,934.15
569.903,933.5
570.44,933.65
570.977,934.85
571.514,940.55
572.051,940.15
572.588,938.25
573.125,942.3
573.661,942.55
574.198,942.55
574.734,947.3
575.271,939.9
575.807,937.95
576.343,949.1
576.879,973.4
577.415,950.0
577.951,940.85
578.486,941.3
579.022,943.0
579.557,946.1
580.093,941.2
580.628,940.75
581.164,943.1
581.699,946.95
582.234,946.4
582.769,947.4
583.304,948.25
583.838,948.75
584.373,945.9
584.908,949.45
585.442,946.7
585.977,949.0
586.511,958.2
587.045,974.65
587.58,976.3
588.114,958.0
588.648,952.2
589.182,947.75
589.715,948.8
590.249,951.75
590.783,950.45
591.316,952.8
591.85,953.85
592.383,949.2
592.917,952.55
593.45,950.75
593.983,950.5
594.516,951.2
595.049,952.5
595.582,952.95
596.115,952.45
596.648,952.35
597.18,953.6
597.713,953.45
598.245,955.15
598.778,956.65
599.31,955.0
599.842,953.75
600.375,955.2
600.907,952.7
601.439,953.15
601.971,953.4
602.503,951.9
603.034,952.4
603.566,957.3
604.098,954.55
604.629,956.25
605.161,949.5
605.692,947.3
606.224,951.55
606.755,949.8
607.286,951.45
607.817,952.6
608.348,950.65
608.879,952.95
609.41,951.6
609.941,953.3
610.472,949.2
611.002,951.1
611.533,951.5
612.063,950.85
612.594,951.9
613.124,952.9
613.655,954.65
614.185,954.25
614.715,953.75
615.245,953.15
615.775,954.4
616.305,952.45
616.835,952.0
617.365,953.8
617.895,950.25
618.425,952.5
618.954,950.75
619.484,948.2
620.013,949.7
620.543,947.85
621.072,947.45
621.602,950.45
622.131,952.95
622.66,951.9
623.189,957.55
623.718,953.55
624.247,950.8
624.776,951.5
625.305,950.0
625.834,949.7
626.363,949.0
626.891,949.65
627.42,947.1
627.949,954.25
628.477,971.5
629.006,964.6
629.534,961.75
630.062,964.0
630.591,983.65
631.119,1090.95
631.647,1012.55
632.175,982.45
632.703,973.5
633.231,1003.7
633.759,988.75
634.287,965.65
634.815,946.2
635.343,942.5
635.871,937.65
636.398,942.45
636.926,939.8
637.454,937.4
637.981,936.1
638.509,937.25
639.036,938.15
639.564,934.4
640.091,935.9
640.618,936.4
641.146,934.7
641.673,930.65
642.2,936.05
642.727,930.25
643.254,931.8
643.781,926.55
644.308,927.8
644.835,925.8
645.362,925.65
645.889,926.9
646.416,924.25
646.942,924.3
647.469,924.6
647.996,925.4
648.522,922.05
649.049,922.6
649.576,922.55
650.102,921.35
650.629,919.9
651.155,919.3
651.682,917.8
652.208,917.4
652.734,917.65
653.261,916.65
653.787,919.4
654.313,919.1
654.839,917.7
655.365,914.8
655.892,917.7
656.418,915.45
656.944,914.8
657.47,914.0
657.996,911.3
658.522,912.65
659.048,914.55
659.574,913.2
660.099,912.05
660.625,909.7
661.151,910.8
661.677,907.6
662.203,906.25
662.728,908.65
663.123,906.85

File: VLFR_08-PLA_bio_Raman_5e9e504d.csv
nm,Intensity
526.547,832.55
527.095,833.05
527.642,832.7
528.189,831.9
528.736,832.5
529.283,832.25
529.829,832.8
530.376,833.85
530.922,832.9
531.468,832.35
532.014,833.7
532.56,832.75
533.106,831.8
533.651,836.3
534.196,1111.2
534.742,1057.0
535.287,1010.75
535.832,987.15
536.376,979.5
536.921,979.7
537.465,965.95
538.01,969.0
538.554,954.45
539.098,954.4
539.642,948.3
540.186,941.6
540.729,965.25
541.273,970.8
541.816,955.8
542.36,948.7
542.903,954.7
543.446,983.3
543.988,998.35
544.531,968.1
545.074,956.7
545.616,949.3
546.158,950.3
546.701,952.55
547.243,953.4
547.785,955.9
548.326,957.4
548.868,959.95
549.41,958.5
549.951,962.3
550.492,963.6
551.034,966.1
551.575,968.85
552.116,973.85
552.656,975.05
553.197,975.35
553.738,973.3
554.278,981.55
554.819,975.55
555.359,966.65
555.899,965.6
556.439,966.45
556.979,972.3
557.519,993.6
558.058,1151.8
558.598,1011.0
559.137,991.05
559.677,985.1
560.216,979.8
560.755,980.35
561.294,970.5
561.833,975.35
562.371,979.85
562.91,993.9
563.449,1031.55
563.987,1002.65
564.525,991.35
565.064,1021.25
565.602,1011.4
566.14,1061.9
566.678,1010.0
567.216,985.7
567.753,996.6
568.291,999.9
568.828,999.75
569.366,1003.1
569.903,994.65
570.44,994.8
570.977,1000.55
571.514,1024.5
572.051,1020.7
572.588,1013.15
573.125,1016.55
573.661,1021.5
574.198,1014.55
574.734,1026.45
575.271,1006.3
575.807,1008.5
576.343,1032.0
576.879,1100.6
577.415,1032.4
577.951,1011.7
578.486,1004.55
579.022,1005.95
579.557,1007.3
580.093,1007.4
580.628,1006.0
581.164,1002.25
581.699,1004.0
582.234,1006.5
582.769,1004.8
583.304,1008.35
583.838,1010.4
584.373,1010.15
584.908,1008.9
585.442,1008.55
585.977,1014.1
586.511,1032.55
587.045,1074.7
587.58,1103.7
588.114,1038.7
588.648,1016.85
589.182,1015.1
589.715,1010.85
590.249,1010.7
590.783,1008.05
591.316,1007.95
591.85,1010.45
592.383,1010.3
592.917,1010.05
593.45,1005.4
593.983,1005.85
594.516,1004.55
595.049,1010.15
595.582,1012.35
596.115,1009.1
596.648,1009.4
597.18,1010.5
597.713,1010.6
598.245,1008.6
598.778,1013.3
599.31,1015.15
599.842,1012.25
600.375,1010.35
600.907,1010.2
601.439,1009.9
601.971,1004.6
602.503,1004.35
603.034,1010.4
603.566,1010.3
604.098,1008.0
604.629,1005.7
605.161,1002.15
605.692,999.55
606.224,1001.2
606.755,995.35
607.286,1001.5
607.817,1000.8
608.348,999.25
608.879,1002.3
609.41,997.7
609.941,999.65
610.472,1000.35
611.002,996.45
611.533,1000.15
612.063,1001.1
612.594,1002.55
613.124,1003.7
613.655,1004.7
614.185,1006.55
614.715,1002.0
615.245,1002.05
615.775,1001.55
616.305,1000.2
616.835,1004.8
617.365,1003.85
617.895,1002.45
618.425,999.5
618.954,1002.75
619.484,1001.6
620.013,996.3
620.543,997.6
621.072,994.75
621.602,997.6
622.131,999.85
622.66,1011.3
623.189,1017.6
623.718,1013.85
624.247,1001.95
624.776,998.4
625.305,998.8
625.834,998.65
626.363,997.8
626.891,1000.05
627.42,1000.55
627.949,1017.25
628.477,1098.3
629.006,1073.85
629.534,1073.05
630.062,1080.55
630.591,1164.75
631.119,1615.7
631.647,1287.5
632.175,1149.15
632.703,1135.4
633.231,1237.75
633.759,1187.6
634.287,1073.1
634.815,1017.55
635.343,994.25
635.871,990.95
636.398,985.5
636.926,986.3
637.454,981.95
637.981,982.05
638.509,978.45
639.036,980.35
639.564,981.45
640.091,978.75
640.618,977.8
641.146,981.35
641.673,979.45
642.2,977.85
642.727,976.2
643.254,973.15
643.781,972.75
644.308,970.4
644.835,969.05
645.362,964.2
645.889,965.5
646.416,964.45
646.942,965.6
647.469,962.45
647.996,961.35
648.522,965.65
649.049,959.3
649.576,961.1
650.102,957.4
650.629,957.7
651.155,958.0
651.682,957.3
652.208,956.55
652.734,954.65
653.261,955.45
653.787,953.6
654.313,953.4
654.839,956.4
655.365,953.7
655.892,956.1
656.418,952.6
656.944,955.35
657.47,954.75
657.996,954.05
658.522,952.75
659.048,952.3
659.574,951.7
660.099,951.45
660.625,953.15
661.151,950.1
661.677,946.75
662.203,944.8
662.728,942.0
663.123,944.3

File: VLFR_08-PLA_bio_Raman_5f60d207.csv
nm,Intensity
526.495,829.16
527.042,829.09
527.589,829.33
528.136,828.93
528.682,828.7
529.229,829.51
529.775,829.8
530.321,829.25
530.867,829.46
531.413,829.31
531.959,836.66
532.505,830.45
533.051,829.18
533.596,832.67
534.141,1175.65
534.687,1092.4
535.232,1024.15
535.777,986.83
536.321,972.31
536.866,974.78
537.41,957.97
537.955,954.96
538.499,933.92
539.043,926.92
539.587,920.14
540.131,910.69
540.675,940.88
541.219,942.47
541.762,926.17
542.305,916.58
542.849,920.21
543.392,957.62
543.935,974.52
544.478,933.72
545.02,913.58
545.563,905.39
546.106,903.86
546.648,905.06
547.19,908.88
547.732,907.99
548.274,907.71
548.816,909.63
549.358,911.5
549.9,911.96
550.441,913.19
550.983,917.82
551.524,920.79
552.065,923.43
552.606,928.73
553.147,926.59
553.688,920.79
554.229,935.44
554.769,922.03
555.31,912.62
555.85,907.2
556.391,909.08
556.931,914.49
557.471,942.09
558.011,1158.42
558.551,978.13
559.09,938.3
559.63,931.33
560.169,921.78
560.709,919.46
561.248,913.76
561.787,912.96
562.326,915.28
562.865,933.47
563.404,993.75
563.943,954.27
564.481,935.27
565.02,972.14
565.558,964.37
566.096,1019.38
566.634,960.29
567.172,924.97
567.71,932.74
568.248,937.92
568.786,935.98
569.324,936.63
569.861,928.81
570.399,928.93
570.936,934.58
571.473,965.09
572.01,969.96
572.547,954.5
573.084,958.71
573.621,962.46
574.158,953.09
574.694,977.06
575.231,935.52
575.767,937.18
576.303,968.02
576.84,1080.83
577.376,977.09
577.912,940.84
578.448,935.7
578.984,934.4
579.519,934.13
580.055,934.47
580.59,933.13
581.126,933.89
581.661,933.86
582.196,935.95
582.731,935.95
583.267,936.83
583.801,938.02
584.336,939.08
584.871,937.35
585.406,937.95
585.94,943.22
586.475,962.57
587.009,1028.67
587.543,1073.06
588.078,985.73
588.612,945.05
589.146,938.74
589.68,938.71
590.214,937.93
590.747,937.46
591.281,937.33
591.815,937.3
592.348,937.6
592.881,937.81
593.415,935.08
593.948,935.99
594.481,936.66
595.014,937.05
595.547,937.84
596.08,937.07
596.613,937.61
597.146,937.73
597.678,938.03
598.211,940.34
598.743,939.58
599.276,939.9
599.808,939.55
600.34,939.42
600.872,939.7
601.404,938.37
601.936,939.8
602.468,939.06
603.0,939.63
603.532,940.3
604.064,938.81
604.595,937.93
605.127,937.66
605.658,936.38
606.189,935.39
606.721,937.48
607.252,936.95
607.783,937.79
608.314,938.73
608.845,939.03
609.376,939.05
609.907,940.01
610.438,939.32
610.968,939.9
611.499,937.71
612.029,938.77
612.56,941.51
613.09,942.14
613.621,944.09
614.151,943.89
614.681,943.57
615.211,945.39
615.741,945.1
616.271,945.49
616.801,946.66
617.331,947.62
617.861,946.41
618.39,945.59
618.92,944.98
619.45,944.5
619.979,943.95
620.509,944.33
621.038,943.5
621.567,945.47
622.096,948.66
622.626,965.06
623.155,974.7
623.684,964.88
624.213,956.32
624.742,950.08
625.271,948.52
625.799,949.15
626.328,949.33
626.857,950.26
627.386,951.94
627.914,974.09
628.443,1101.91
628.971,1074.77
629.5,1073.41
630.028,1084.83
630.556,1196.77
631.084,1927.67
631.613,1451.84
632.141,1203.97
632.669,1162.47
633.197,1345.08
633.725,1272.76
634.253,1085.46
634.781,990.5
635.308,960.48
635.836,949.57
636.364,945.62
636.891,942.53
637.419,938.1
637.947,937.83
638.474,935.61
639.002,935.46
639.529,935.29
640.056,934.61
640.584,934.05
641.111,935.26
641.638,936.4
642.165,936.32
642.692,933.76
643.219,931.44
643.746,930.35
644.273,926.08
644.8,925.24
645.327,922.94
645.854,923.1
646.381,924.01
646.908,922.26
647.434,920.25
647.961,920.59
648.488,919.7
649.014,918.85
649.541,920.23
650.067,917.72
650.594,916.96
651.12,917.08
651.646,916.0
652.173,915.5
652.699,915.36
653.225,915.27
653.752,915.96
654.278,915.4
654.804,913.84
655.33,914.43
655.856,914.25
656.382,914.67
656.908,914.64
657.434,914.38
657.96,913.2
658.486,912.99
659.012,912.49
659.538,911.2
660.064,911.54
660.589,910.87
661.115,908.78
661.641,909.3
662.166,907.81
662.692,908.17
663.086,906.21

File: VLFR_08-PLA_bio_Raman_06f5d493.csv
nm,Intensity
528.65,1831.85
529.155,1832.05
529.66,1832.05
530.165,1832.35
530.67,1831.9
531.175,1835.0
531.68,1870.0
532.185,3377.55
532.69,1833.95
533.194,1835.8
533.699,2103.45
534.204,2823.0
534.708,2733.5
535.213,2636.55
535.717,2561.05
536.222,2557.0
536.726,2576.0
537.231,2533.5
537.735,2549.65
538.239,2541.15
538.743,2536.55
539.247,2550.85
539.751,2545.8
540.255,2551.35
540.759,2600.05
541.263,2606.85
541.767,2599.65
542.271,2603.6
542.775,2594.45
543.279,2692.2
543.782,2706.55
544.286,2702.1
544.789,2627.05
545.293,2608.55
545.796,2612.55
546.3,2621.95
546.803,2617.55
547.306,2643.2
547.81,2629.75
548.313,2648.1
548.816,2684.75
549.319,2688.05
549.822,2681.2
550.325,2698.15
550.828,2705.0
551.331,2740.8
551.834,2762.3
552.337,2798.8
552.839,2794.7
553.342,2761.65
553.844,2825.65
554.347,2834.75
554.849,2818.15
555.352,2782.35
555.854,2772.55
556.357,2815.1
556.859,2810.75
557.361,2906.95
557.863,3337.1
558.365,3172.3
558.867,2921.5
559.369,2910.5
559.871,2894.15
560.373,2873.75
560.875,2861.1
561.377,2887.35
561.878,2903.15
562.38,2914.75
562.881,2981.85
563.383,3096.1
563.884,2995.15
564.386,2950.6
564.887,3060.1
565.388,3046.5
565.89,3151.3
566.391,3103.95
566.892,2939.85
567.393,2972.4
567.894,3006.85
568.395,2972.85
568.896,3001.4
569.396,2999.8
569.897,3023.7
570.398,3006.55
570.898,3015.05
571.399,3099.9
571.9,3152.45
572.4,3112.75
572.9,3079.95
573.401,3113.75
573.901,3082.5
574.401,3112.65
574.901,3053.8
575.401,3031.4
575.901,3088.55
576.401,3217.3
576.901,3352.3
577.401,3117.05
577.901,3035.0
578.4,3018.55
578.9,3028.75
579.399,3052.35
579.899,3074.2
580.398,3053.7
580.898,3048.6
581.397,3066.1
581.896,3033.7
582.395,3041.55
582.895,3041.95
583.394,3034.8
583.893,3039.1
584.391,3053.6
584.89,3056.25
585.389,3034.55
585.888,3056.95
586.386,3122.65
586.885,3256.55
587.384,3344.0
587.882,3205.2
588.38,3049.15
588.879,3030.65
589.377,3038.7
589.875,3049.0
590.373,3056.9
590.871,3057.85
591.369,3052.05
591.867,3050.55
592.365,3070.3
592.863,3062.7
593.361,3025.45
593.858,3026.25
594.356,3036.8
594.853,3011.25
595.351,3046.95
595.848,3036.4
596.345,3042.3
596.843,3059.8
597.34,3060.1
597.837,3037.75
598.334,3036.95
598.831,3017.6
599.328,3025.05
599.824,3068.75
600.321,3073.25
600.818,3005.65
601.314,3060.9
601.811,3021.55
602.307,3012.65
602.804,3018.55
603.3,3046.1
603.796,3043.85
604.293,3033.05
604.789,3006.45
605.285,3022.45
605.781,3013.2
606.277,3025.0
606.772,3014.0
607.268,3001.55
607.764,2999.35
608.259,2995.95
608.755,3016.25
609.25,3003.0
609.746,2980.05
610.241,3008.75
610.736,2983.6
611.231,2974.9
611.727,2986.1
612.222,2957.3
612.716,2969.1
613.211,2957.5
613.706,2972.5
614.201,2944.5
614.695,2957.1
615.19,2969.4
615.684,2966.5
616.179,2948.7
616.673,2990.55
617.168,2917.85
617.662,2949.15
618.156,2921.5
618.65,2927.2
619.144,2939.45
619.638,2930.35
620.131,2922.85
620.625,2910.3
621.119,2933.5
621.612,2904.05
622.106,2928.4
622.599,2930.45
623.093,2983.25
623.586,2961.65
624.079,2908.45
624.572,2901.4
625.065,2887.05
625.558,2885.0
626.051,2888.2
626.544,2903.05
627.037,2878.5
627.529,2901.5
628.022,3011.1
628.514,3276.75
629.007,3134.05
629.499,3171.95
629.991,3169.3
630.483,3490.4
630.976,4919.6
631.468,4191.0
631.959,3468.7
632.451,3298.75
632.943,3535.2
633.435,3673.8
633.926,3347.05
634.418,2982.25
634.909,2913.6
635.401,2823.35
635.892,2802.0
636.383,2773.95
636.874,2786.55
637.365,2789.7
637.856,2811.4
638.347,2792.9
638.838,2768.75
639.329,2780.6
639.819,2783.65
640.31,2799.85
640.8,2747.25
641.291,2770.9
641.781,2778.1
642.271,2794.1
642.761,2753.35
643.251,2742.15
643.741,2754.45
644.231,2735.8
644.721,2739.5
645.211,2725.1
645.7,2718.15
646.19,2744.05
646.679,2724.3
647.169,2718.35
647.658,2728.65
648.147,2666.05
648.636,2700.45
649.125,2708.95
649.614,2723.55
650.103,2669.35
650.592,2681.45
651.08,2683.35
651.569,2659.0
652.058,2676.35
652.546,2642.4
653.034,2618.35
653.523,2595.45
654.011,2590.2
654.499,2598.1
654.987,2563.6
655.475,2559.15
655.963,2548.6
656.45,2549.4
656.938,2536.85
657.425,2515.95
657.913,2488.15
658.4,2484.5
658.888,2483.9
659.375,2456.75
659.862,2459.95
660.349,2416.85
660.836,2439.55
661.079,2415.45

File: VLFR_08-PLA_bio_Raman_6f60b877.csv
nm,Intensity
526.495,830.6
527.042,828.9
527.589,827.1
528.136,828.0
528.682,829.2
529.229,828.3
529.775,831.0
530.321,828.9
530.867,829.3
531.413,827.8
531.959,832.1
532.505,829.8
533.051,829.3
533.596,830.2
534.141,1012.5
534.687,979.1
535.232,943.9
535.777,926.7
536.321,919.9
536.866,924.1
537.41,917.1
537.955,913.2
538.499,908.0
539.043,897.7
539.587,899.6
540.131,892.9
540.675,911.3
541.219,907.1
541.762,903.2
542.305,900.1
542.849,900.8
543.392,922.4
543.935,932.2
544.478,908.4
545.02,898.6
545.563,900.0
546.106,897.6
546.648,899.1
547.19,900.1
547.732,903.4
548.274,901.9
548.816,904.0
549.358,902.7
549.9,901.4
550.441,902.4
550.983,906.6
551.524,908.0
552.065,910.7
552.606,915.7
553.147,913.2
553.688,908.4
554.229,918.9
554.769,912.0
555.31,905.8
555.85,903.8
556.391,907.6
556.931,906.8
557.471,922.1
558.011,1028.4
558.551,939.5
559.09,920.6
559.63,920.0
560.169,914.6
560.709,916.3
561.248,911.2
561.787,909.1
562.326,907.8
562.865,919.9
563.404,951.0
563.943,930.7
564.481,923.3
565.02,945.5
565.558,937.2
566.096,960.3
566.634,938.1
567.172,919.9
567.71,923.5
568.248,925.3
568.786,928.2
569.324,925.3
569.861,925.3
570.399,923.3
570.936,926.9
571.473,939.3
572.01,942.6
572.547,934.5
573.084,939.5
573.621,941.8
574.158,939.8
574.694,950.6
575.231,929.5
575.767,932.2
576.303,942.7
576.84,1000.3
577.376,949.5
577.912,932.4
578.448,926.5
578.984,928.0
579.519,930.6
580.055,931.2
580.59,928.9
581.126,928.7
581.661,927.4
582.196,927.4
582.731,930.2
583.267,932.9
583.801,937.2
584.336,933.3
584.871,934.1
585.406,935.5
585.94,937.3
586.475,942.5
587.009,981.7
587.543,1004.7
588.078,956.1
588.612,937.6
589.146,932.9
589.68,934.9
590.214,939.0
590.747,931.5
591.281,933.5
591.815,934.7
592.348,936.1
592.881,933.7
593.415,932.4
593.948,931.2
594.481,933.5
595.014,931.5
595.547,935.9
596.08,935.1
596.613,932.4
597.146,936.4
597.678,937.0
598.211,932.8
598.743,939.5
599.276,933.1
599.808,937.1
600.34,936.4
600.872,934.1
601.404,935.0
601.936,938.7
602.468,938.6
603.0,938.8
603.532,938.4
604.064,943.3
604.595,933.0
605.127,932.3
605.658,938.1
606.189,936.9
606.721,935.2
607.252,932.0
607.783,938.3
608.314,938.3
608.845,934.9
609.376,936.2
609.907,939.9
610.438,938.2
610.968,936.9
611.499,939.1
612.029,939.0
612.56,937.5
613.09,942.6
613.621,939.1
614.151,944.3
614.681,940.2
615.211,946.0
615.741,940.4
616.271,944.7
616.801,944.1
617.331,943.4
617.861,947.6
618.39,944.9
618.92,940.9
619.45,942.4
619.979,947.4
620.509,941.2
621.038,942.3
621.567,938.8
622.096,947.9
622.626,954.8
623.155,954.7
623.684,948.9
624.213,953.3
624.742,947.4
625.271,942.5
625.799,941.7
626.328,942.2
626.857,945.8
627.386,946.7
627.914,951.3
628.443,1018.0
628.971,1003.3
629.5,1004.9
630.028,1008.6
630.556,1066.4
631.084,1415.6
631.613,1193.6
632.141,1069.3
632.669,1044.6
633.197,1130.2
633.725,1096.3
634.253,1001.3
634.781,958.6
635.308,944.0
635.836,938.1
636.364,939.3
636.891,936.1
637.419,934.0
637.947,933.5
638.474,931.4
639.002,934.5
639.529,930.3
640.056,928.4
640.584,934.2
641.111,930.6
641.638,928.4
642.165,931.9
642.692,928.4
643.219,923.4
643.746,923.4
644.273,923.0
644.8,922.8
645.327,917.9
645.854,916.3
646.381,919.7
646.908,922.7
647.434,916.7
647.961,920.9
648.488,918.6
649.014,917.3
649.541,913.7
650.067,914.3
650.594,912.7
651.12,912.9
651.646,910.1
652.173,913.3
652.699,914.9
653.225,915.1
653.752,911.6
654.278,914.1
654.804,911.0
655.33,911.3
655.856,914.3
656.382,910.4
656.908,908.9
657.434,912.9
657.96,908.4
658.486,911.6
659.012,910.8
659.538,906.3
660.064,911.7
660.589,908.4
661.115,905.0
661.641,907.4
662.166,902.5
662.692,905.3
663.086,906.2

File: VLFR_08-PLA_bio_Raman_6fe56b17.csv
nm,Intensity
526.508,830.1
527.055,830.2
527.602,831.2
528.149,831.3
528.695,831.8
529.241,829.8
529.787,830.9
530.334,831.9
530.879,829.2
531.425,829.4
531.971,837.2
532.516,831.2
533.062,829.6
533.607,829.5
534.152,990.2
534.697,952.5
535.242,929.8
535.786,918.3
536.331,909.4
536.876,913.4
537.42,909.0
537.964,909.3
538.508,904.6
539.052,903.5
539.596,902.6
540.14,896.3
540.683,908.2
541.227,902.7
541.77,900.2
542.313,900.7
542.856,900.6
543.399,918.0
543.942,917.7
544.485,909.6
545.027,903.3
545.57,898.3
546.112,896.2
546.654,899.6
547.196,901.8
547.738,904.4
548.28,903.8
548.822,901.0
549.363,903.9
549.905,904.1
550.446,902.9
550.988,909.9
551.529,912.9
552.07,910.8
552.611,916.5
553.152,910.8
553.692,910.6
554.233,919.1
554.773,905.7
555.314,907.1
555.854,908.6
556.394,907.5
556.934,912.0
557.474,921.8
558.014,997.4
558.553,933.7
559.093,918.8
559.632,916.0
560.172,913.4
560.711,914.7
561.25,911.2
561.789,912.0
562.328,915.8
562.867,921.1
563.406,940.5
563.944,929.3
564.483,921.2
565.021,936.2
565.559,936.9
566.098,953.8
566.636,932.7
567.174,920.3
567.711,924.3
568.249,924.5
568.787,928.7
569.324,927.8
569.862,924.6
570.399,924.5
570.936,926.3
571.474,941.0
572.011,944.0
572.548,938.2
573.084,937.0
573.621,941.4
574.158,937.7
574.694,941.8
575.231,931.7
575.767,932.8
576.303,939.6
576.84,983.7
577.376,944.5
577.912,936.6
578.447,931.3
578.983,933.4
579.519,932.0
580.054,933.2
580.59,929.4
581.125,929.6
581.661,932.9
582.196,935.8
582.731,934.6
583.266,934.9
583.801,932.9
584.336,934.9
584.87,937.1
585.405,935.1
585.94,936.5
586.474,946.3
587.008,968.5
587.543,988.7
588.077,954.9
588.611,939.3
589.145,938.3
589.679,937.4
590.213,933.4
590.747,938.7
591.28,935.5
591.814,933.5
592.347,933.0
592.881,931.8
593.414,937.0
593.947,927.4
594.48,935.0
595.014,935.8
595.547,936.0
596.079,936.0
596.612,938.5
597.145,932.0
597.678,933.7
598.21,940.7
598.743,935.3
599.275,937.9
599.807,935.6
600.34,932.7
600.872,937.0
601.404,936.6
601.936,937.3
602.468,933.9
603.0,931.3
603.532,936.1
604.063,933.6
604.595,936.7
605.126,933.8
605.658,935.0
606.189,930.1
606.721,931.3
607.252,932.5
607.783,932.0
608.314,934.0
608.845,929.8
609.376,933.7
609.907,932.2
610.438,929.2
610.968,932.9
611.499,935.2
612.03,934.6
612.56,931.6
613.091,930.8
613.621,934.0
614.151,937.5
614.681,928.6
615.212,933.1
615.742,931.0
616.272,932.8
616.802,933.2
617.332,936.3
617.861,931.7
618.391,933.4
618.921,933.5
619.45,929.9
619.98,930.9
620.509,927.9
621.039,932.7
621.568,931.5
622.097,933.4
622.627,935.0
623.156,943.0
623.685,939.7
624.214,935.8
624.743,929.4
625.272,927.4
625.801,933.1
626.33,931.6
626.858,933.2
627.387,932.1
627.916,939.8
628.444,988.7
628.973,976.2
629.501,978.2
630.029,984.3
630.558,1027.7
631.086,1320.4
631.614,1124.7
632.142,1026.9
632.67,1008.6
633.198,1078.8
633.726,1054.2
634.254,987.3
634.782,947.5
635.31,931.0
635.838,931.9
636.365,926.6
636.893,928.1
637.421,922.5
637.948,922.2
638.476,923.3
639.003,925.3
639.531,920.5
640.058,921.0
640.585,921.3
641.113,919.7
641.64,922.3
642.167,919.6
642.694,921.6
643.221,916.9
643.748,917.5
644.275,915.9
644.802,916.7
645.329,911.4
645.856,913.5
646.382,913.6
646.909,910.1
647.436,914.1
647.962,913.8
648.489,911.3
649.016,907.5
649.542,908.2
650.069,906.1
650.595,909.5
651.121,908.2
651.648,908.8
652.174,904.3
652.7,906.7
653.227,904.2
653.753,905.6
654.279,908.1
654.805,905.8
655.331,906.9
655.857,904.6
656.383,903.9
656.909,905.7
657.435,904.6
657.961,906.6
658.487,902.3
659.013,905.6
659.538,903.6
660.064,900.2
660.59,902.5
661.116,904.3
661.641,898.7
662.167,900.2
662.692,898.7
663.087,898.4