Folder: MPX_specDB/spectra (part 78)

File: VLFR_06-PET_bio_Raman_c63d015b.csv
nm,Intensity
528.626,1865.0
529.132,1865.4
529.637,1865.3
530.143,1865.8
530.648,1867.0
531.153,1870.5
531.658,1921.4
532.164,6209.4
532.669,1871.3
533.174,1878.9
533.679,3137.3
534.184,7108.8
534.689,5564.7
535.194,4401.1
535.699,3462.0
536.203,2862.5
536.708,2650.0
537.213,2526.2
537.717,2503.1
538.222,2500.3
538.726,2509.0
539.231,2547.7
539.735,2632.7
540.239,2519.5
540.744,2386.3
541.248,2304.9
541.752,2314.5
542.256,2319.2
542.76,2308.0
543.264,2302.9
543.768,2321.4
544.272,2322.2
544.776,2318.5
545.28,2343.0
545.784,2338.2
546.287,2350.1
546.791,2361.0
547.294,2370.0
547.798,2395.9
548.301,2388.9
548.805,2425.7
549.308,2404.1
549.811,2404.3
550.315,2516.5
550.818,2997.4
551.321,2475.1
551.824,2480.2
552.327,2487.5
552.83,2840.7
553.333,2525.4
553.835,2553.3
554.338,2534.6
554.841,2548.0
555.343,2715.1
555.846,2936.7
556.349,3000.1
556.851,3088.5
557.353,3782.3
557.856,3472.5
558.358,3178.7
558.86,2994.2
559.362,2720.0
559.864,2680.9
560.366,2684.3
560.868,2698.2
561.37,2773.2
561.872,2808.3
562.374,2900.7
562.876,2968.5
563.377,2927.5
563.879,2823.0
564.38,2882.7
564.882,3103.8
565.383,3519.9
565.885,3727.4
566.386,3189.2
566.887,2943.8
567.388,3095.5
567.889,3310.8
568.391,3008.8
568.892,2954.4
569.392,3027.6
569.893,3200.0
570.394,3577.2
570.895,4386.0
571.395,5080.3
571.896,4112.8
572.397,3465.8
572.897,3183.3
573.397,3207.1
573.898,3275.7
574.398,3266.6
574.898,3291.6
575.398,3554.0
575.898,3285.8
576.398,3448.6
576.898,3528.9
577.398,3339.5
577.898,3231.7
578.398,3239.7
578.897,3239.4
579.397,3260.9
579.896,3311.6
580.396,3361.1
580.895,3455.1
581.395,3662.5
581.894,6938.4
582.393,6997.8
582.892,3542.4
583.391,3417.4
583.89,3443.4
584.389,3497.8
584.888,3649.6
585.387,4533.9
585.886,7545.8
586.384,6104.0
586.883,3895.9
587.381,3489.3
587.88,3490.6
588.378,3477.9
588.876,3483.8
589.375,3463.0
589.873,3437.7
590.371,3434.2
590.869,3433.8
591.367,3476.4
591.865,3442.1
592.363,3496.7
592.86,3445.3
593.358,3413.2
593.856,3452.7
594.353,3459.2
594.851,3467.6
595.348,3540.6
595.845,3470.0
596.342,3534.9
596.84,3524.3
597.337,3438.2
597.834,3516.4
598.331,3525.0
598.828,3502.1
599.324,3533.6
599.821,3544.1
600.318,3598.0
600.814,3541.4
601.311,3556.8
601.807,3588.9
602.304,3561.3
602.8,3537.9
603.296,3543.5
603.792,3616.5
604.288,3586.1
604.784,3584.5
605.28,3547.3
605.776,3597.8
606.272,3597.5
606.767,3648.2
607.263,3566.8
607.759,3618.9
608.254,3615.3
608.749,3667.0
609.245,3625.8
609.74,3698.2
610.235,3646.9
610.73,3637.6
611.225,3649.1
611.72,3653.1
612.215,3710.1
612.71,3667.8
613.204,3690.2
613.699,3700.3
614.194,3722.2
614.688,3754.2
615.182,3708.2
615.677,3714.6
616.171,3728.1
616.665,3720.9
617.159,3780.0
617.653,3809.7
618.147,3827.7
618.641,3790.8
619.135,3820.1
619.628,3821.5
620.122,3772.0
620.615,3836.0
621.109,3804.8
621.602,3826.3
622.095,3839.4
622.589,3863.3
623.082,3823.8
623.575,3837.0
624.068,3928.0
624.561,3994.0
625.053,3977.3
625.546,3884.2
626.039,3841.8
626.531,3915.4
627.024,3982.5
627.516,3981.0
628.008,4037.0
628.501,4135.3
628.993,4279.8
629.485,4261.5
629.977,4223.9
630.469,4256.9
630.96,4584.3
631.452,5254.6
631.944,5517.4
632.435,4935.7
632.927,4718.2
633.418,4704.7
633.91,4471.8
634.401,4394.1
634.892,4298.4
635.383,4435.1
635.874,4882.4
636.365,5644.5
636.856,5425.1
637.346,4648.1
637.837,4413.4
638.327,4366.9
638.818,4376.7
639.308,4338.2
639.799,4337.8
640.289,4225.5
640.779,4247.9
641.269,4290.0
641.759,4283.8
642.249,4415.3
642.738,4358.8
643.228,4228.0
643.718,4295.8
644.207,4341.4
644.697,4217.0
645.186,4369.1
645.675,4335.4
646.164,4322.7
646.653,4216.2
647.142,4348.0
647.631,4310.3
648.12,4161.3
648.609,4283.9
649.098,4122.1
649.586,4214.6
650.075,4176.8
650.563,4227.7
651.051,4193.5
651.539,4172.7
652.027,4119.0
652.515,4035.5
653.003,4104.2
653.491,4028.7
653.979,4125.8
654.467,4104.6
654.954,4042.2
655.442,4003.7
655.929,4005.3
656.416,4034.1
656.904,3997.0
657.391,3960.3
657.878,3978.6
658.365,3872.3
658.851,3861.6
659.338,3819.0
659.825,3785.8
660.311,3823.0
660.798,3744.2
661.041,3769.9

File: VLFR_06-PET_bio_Raman_cd2211c6.csv
nm,Intensity
528.637,1839.1
529.143,1838.6
529.648,1839.6
530.153,1839.6
530.659,1841.4
531.164,1844.4
531.669,1903.6
532.174,4840.5
532.679,1850.2
533.184,1868.1
533.689,5676.1
534.194,12543.9
534.699,9968.8
535.203,7048.6
535.708,5015.9
536.213,3783.2
536.717,3328.7
537.222,3087.4
537.726,2975.1
538.231,3021.2
538.735,2974.3
539.24,3038.9
539.744,3319.5
540.248,3036.1
540.752,2721.7
541.256,2624.7
541.761,2592.9
542.265,2588.5
542.769,2607.5
543.272,2587.3
543.776,2692.4
544.28,2611.8
544.784,2610.6
545.288,2632.8
545.791,2662.5
546.295,2649.6
546.798,2702.3
547.302,2713.2
547.805,2693.6
548.308,2735.4
548.812,2725.2
549.315,2695.6
549.818,2746.7
550.321,3069.5
550.824,3613.7
551.327,2855.3
551.83,2873.4
552.333,2932.2
552.836,3633.0
553.339,2933.6
553.842,2973.9
554.344,2975.6
554.847,3020.8
555.349,3425.0
555.852,3790.3
556.354,3970.9
556.857,4068.0
557.359,5770.0
557.861,4666.3
558.363,4314.4
558.866,3888.0
559.368,3362.1
559.87,3330.9
560.372,3309.9
560.873,3356.4
561.375,3475.6
561.877,3567.1
562.379,3625.6
562.88,3895.1
563.382,3763.1
563.883,3642.5
564.385,3730.0
564.886,4310.5
565.388,5043.0
565.889,5496.8
566.39,4276.7
566.891,3803.7
567.392,4294.3
567.893,4462.6
568.394,3834.3
568.895,3835.3
569.396,3975.6
569.897,4315.7
570.398,5204.1
570.898,6864.9
571.399,7926.0
571.899,5978.4
572.4,4746.0
572.9,4206.0
573.4,4113.6
573.901,4419.9
574.401,4268.6
574.901,4361.5
575.401,4825.1
575.901,4513.1
576.401,4907.2
576.901,4779.4
577.401,4433.7
577.9,4263.0
578.4,4275.5
578.9,4304.6
579.399,4389.2
579.899,4457.2
580.398,4500.0
580.897,4784.6
581.397,5237.5
581.896,12784.2
582.395,10465.5
582.894,4971.2
583.393,4591.7
583.892,4621.5
584.391,4862.4
584.889,5002.6
585.388,7129.7
585.887,13045.2
586.385,9677.8
586.884,5490.7
587.382,4909.2
587.881,4940.2
588.379,4802.2
588.877,4843.9
589.375,4756.2
589.874,4749.3
590.372,4771.4
590.87,4639.9
591.367,4677.4
591.865,4716.3
592.363,4728.7
592.861,4729.4
593.358,4819.2
593.856,4829.5
594.353,4885.2
594.851,4770.1
595.348,4842.1
595.845,4892.1
596.342,4886.1
596.84,4893.2
597.337,4933.2
597.833,4946.7
598.33,4916.2
598.827,4877.1
599.324,4869.3
599.821,4936.7
600.317,5002.3
600.814,4967.6
601.31,4964.5
601.807,5008.5
602.303,5013.8
602.799,5041.4
603.295,5050.2
603.791,5059.8
604.287,5055.5
604.783,5043.6
605.279,5121.0
605.775,5012.0
606.271,5077.6
606.766,5116.4
607.262,5003.7
607.757,5164.8
608.253,5113.6
608.748,5079.2
609.243,5117.3
609.738,5125.7
610.233,5075.0
610.729,5127.4
611.223,5077.3
611.718,5120.5
612.213,5198.2
612.708,5090.2
613.202,5120.3
613.697,5201.6
614.192,5277.4
614.686,5327.9
615.18,5246.2
615.675,5333.2
616.169,5298.2
616.663,5326.7
617.157,5334.3
617.651,5498.9
618.145,5390.6
618.638,5434.0
619.132,5457.0
619.626,5339.7
620.119,5319.7
620.613,5358.0
621.106,5287.3
621.599,5417.4
622.093,5480.0
622.586,5373.8
623.079,5532.2
623.572,5371.2
624.065,5692.6
624.558,5604.2
625.05,5752.1
625.543,5635.4
626.036,5547.5
626.528,5628.3
627.02,5570.6
627.513,5775.7
628.005,5890.4
628.497,6106.5
628.989,6303.7
629.481,6318.6
629.973,6235.2
630.465,6145.1
630.957,6867.8
631.449,8178.6
631.94,8448.5
632.432,7472.9
632.923,7166.7
633.414,7160.9
633.906,6855.5
634.397,6467.0
634.888,6457.1
635.379,6706.5
635.87,7500.7
636.361,9182.6
636.852,8330.3
637.342,6815.6
637.833,6641.6
638.323,6599.3
638.814,6436.5
639.304,6622.4
639.794,6439.2
640.285,6414.4
640.775,6507.1
641.265,6431.3
641.755,6502.5
642.244,6801.9
642.734,6484.1
643.224,6440.3
643.713,6570.8
644.203,6593.8
644.692,6533.0
645.181,6483.4
645.671,6574.6
646.16,6366.8
646.649,6475.4
647.138,6571.0
647.627,6654.7
648.115,6500.7
648.604,6352.5
649.093,6360.6
649.581,6415.8
650.07,6320.8
650.558,6362.0
651.046,6431.7
651.534,6285.8
652.023,6418.4
652.511,6192.3
652.998,6244.3
653.486,6058.2
653.974,6178.2
654.462,6135.7
654.949,6145.6
655.437,6144.3
655.924,6012.6
656.411,5983.3
656.898,5962.3
657.385,6006.4
657.872,5861.5
658.359,5890.8
658.846,5819.3
659.333,5670.6
659.82,5600.7
660.306,5737.9
660.793,5687.0
661.036,5618.5

File: VLFR_06-PET_bio_Raman_cdc18f22.csv
nm,Intensity
526.493,828.95
527.039,829.8
527.586,829.25
528.133,829.15
528.679,829.2
529.225,829.55
529.771,829.35
530.317,829.55
530.863,829.5
531.409,829.95
531.955,833.05
532.5,830.05
533.046,829.7
533.591,843.35
534.136,2497.55
534.681,2260.95
535.226,1958.2
535.771,1830.7
536.315,1739.9
536.86,1695.75
537.404,1685.9
537.948,1687.85
538.493,1705.1
539.037,1710.9
539.58,1742.7
540.124,1744.0
540.668,1719.2
541.211,1730.15
541.755,1744.7
542.298,1742.95
542.841,1754.45
543.384,1770.15
543.927,1791.25
544.47,1789.2
545.013,1809.5
545.555,1811.45
546.098,1826.5
546.64,1839.55
547.182,1846.6
547.724,1851.6
548.266,1863.85
548.808,1872.85
549.35,1888.15
549.892,1902.0
550.433,1906.75
550.974,1929.0
551.516,1933.2
552.057,1944.25
552.598,1954.3
553.139,1960.2
553.68,1970.1
554.22,1971.2
554.761,1989.75
555.301,1987.1
555.842,2023.0
556.382,2032.4
556.922,2059.05
557.462,2160.7
558.002,2078.4
558.542,2064.85
559.082,2047.5
559.621,2049.85
560.161,2074.0
560.7,2064.7
561.239,2068.75
561.778,2078.35
562.317,2089.1
562.856,2130.5
563.395,2137.4
563.934,2160.5
564.472,2171.25
565.011,2216.05
565.549,2258.5
566.088,2257.55
566.626,2204.65
567.164,2202.85
567.702,2270.75
568.24,2225.3
568.777,2249.9
569.315,2269.4
569.853,2302.9
570.39,2335.95
570.927,2429.5
571.465,2491.85
572.002,2396.0
572.539,2346.7
573.076,2352.4
573.612,2371.0
574.149,2380.25
574.686,2376.15
575.222,2402.2
575.759,2383.7
576.295,2409.0
576.831,2418.5
577.367,2416.2
577.903,2392.45
578.439,2413.0
578.975,2425.75
579.511,2443.55
580.046,2436.8
580.582,2441.8
581.117,2477.85
581.653,2552.75
582.188,3280.85
582.723,2488.45
583.258,2440.8
583.793,2439.9
584.328,2443.5
584.863,2446.65
585.398,2497.25
585.932,2855.9
586.467,2734.45
587.001,2497.0
587.535,2466.35
588.07,2456.25
588.604,2443.1
589.138,2424.1
589.672,2433.1
590.206,2431.45
590.739,2436.05
591.273,2443.1
591.807,2440.6
592.34,2441.8
592.873,2426.5
593.407,2427.3
593.94,2424.45
594.473,2433.0
595.006,2434.55
595.539,2456.65
596.072,2448.65
596.605,2441.85
597.138,2462.0
597.67,2451.55
598.203,2466.15
598.735,2471.15
599.268,2464.85
599.8,2460.0
600.332,2451.6
600.865,2434.45
601.397,2437.55
601.929,2425.1
602.46,2436.75
602.992,2435.8
603.524,2423.35
604.056,2420.05
604.587,2410.5
605.119,2391.8
605.65,2368.15
606.182,2364.75
606.713,2347.05
607.244,2355.25
607.775,2357.6
608.306,2354.55
608.837,2353.3
609.368,2355.0
609.899,2341.75
610.43,2330.6
610.961,2327.95
611.491,2325.45
612.022,2328.05
612.552,2341.1
613.083,2337.85
613.613,2345.7
614.143,2346.25
614.673,2332.2
615.203,2323.95
615.734,2314.95
616.263,2310.1
616.793,2312.95
617.323,2293.8
617.853,2292.2
618.383,2297.55
618.912,2292.0
619.442,2270.85
619.971,2257.15
620.501,2248.45
621.03,2235.45
621.56,2240.25
622.089,2232.05
622.618,2228.15
623.147,2229.85
623.676,2225.7
624.205,2216.05
624.734,2209.0
625.263,2201.85
625.792,2207.75
626.321,2181.8
626.849,2182.15
627.378,2159.5
627.906,2152.75
628.435,2161.7
628.963,2165.0
629.492,2163.3
630.02,2154.9
630.548,2148.65
631.077,2169.9
631.605,2245.4
632.133,2227.45
632.661,2153.5
633.189,2131.5
633.717,2106.6
634.245,2083.4
634.773,2061.95
635.3,2061.45
635.828,2096.25
636.356,2159.35
636.883,2143.4
637.411,2048.8
637.938,2022.95
638.466,2005.05
638.993,1987.6
639.521,1982.25
640.048,1979.6
640.575,1964.4
641.103,1951.25
641.63,1947.15
642.157,1937.65
642.684,1927.5
643.211,1897.55
643.738,1878.85
644.265,1871.15
644.792,1855.65
645.319,1837.05
645.845,1845.7
646.372,1832.4
646.899,1817.2
647.425,1815.1
647.952,1807.05
648.479,1785.15
649.005,1772.6
649.532,1761.7
650.058,1758.4
650.585,1743.2
651.111,1733.05
651.637,1730.8
652.164,1719.4
652.69,1707.75
653.216,1711.6
653.742,1701.6
654.268,1688.35
654.794,1679.7
655.32,1668.05
655.846,1665.3
656.372,1645.95
656.898,1646.55
657.424,1638.0
657.95,1632.75
658.476,1619.3
659.002,1617.0
659.528,1618.15
660.053,1600.8
660.579,1591.45
661.105,1584.7
661.63,1569.1
662.156,1563.9
662.681,1558.9
663.076,1548.0

File: VLFR_06-PET_bio_Raman_d04bf745.csv
nm,Intensity
526.493,829.05
527.039,828.55
527.586,829.0
528.133,828.6
528.679,828.8
529.225,830.05
529.771,829.4
530.317,829.1
530.863,829.4
531.409,828.05
531.955,830.55
532.5,828.95
533.046,828.75
533.591,835.3
534.136,1716.6
534.681,1467.05
535.226,1224.75
535.771,1081.05
536.315,992.9
536.86,949.15
537.404,937.6
537.948,926.75
538.493,934.45
539.037,932.25
539.58,939.1
540.124,943.2
540.668,913.95
541.211,906.95
541.755,900.95
542.298,901.7
542.841,902.2
543.384,898.7
543.927,907.65
544.47,902.25
545.013,904.15
545.555,904.3
546.098,906.45
546.64,908.65
547.182,910.75
547.724,911.0
548.266,908.2
548.808,910.6
549.35,913.25
549.892,914.0
550.433,924.15
550.974,929.0
551.516,921.15
552.057,922.4
552.598,924.4
553.139,932.4
553.68,922.0
554.22,924.2
554.761,923.65
555.301,934.1
555.842,966.05
556.382,969.9
556.922,974.6
557.462,1061.95
558.002,991.05
558.542,983.75
559.082,959.6
559.621,941.1
560.161,938.0
560.7,937.0
561.239,943.55
561.778,946.45
562.317,958.55
562.856,968.0
563.395,967.45
563.934,958.8
564.472,964.85
565.011,992.8
565.549,1031.05
566.088,1038.55
566.626,975.5
567.164,962.95
567.702,1014.95
568.24,974.6
568.777,969.25
569.315,973.45
569.853,991.2
570.39,1021.4
570.927,1104.7
571.465,1176.6
572.002,1074.35
572.539,1007.35
573.076,990.35
573.612,990.95
574.149,1009.7
574.686,999.3
575.222,1010.15
575.759,1000.45
576.295,1015.55
576.831,1023.35
577.367,1005.35
577.903,996.2
578.439,997.85
578.975,996.0
579.511,1002.7
580.046,999.65
580.582,1006.15
581.117,1019.65
581.653,1068.45
582.188,1829.95
582.723,1051.65
583.258,1020.6
583.793,1016.9
584.328,1021.2
584.863,1028.8
585.398,1086.55
585.932,1426.05
586.467,1274.05
587.001,1059.4
587.535,1031.35
588.07,1025.75
588.604,1022.0
589.138,1023.2
589.672,1023.35
590.206,1022.25
590.739,1023.45
591.273,1023.95
591.807,1023.9
592.34,1021.4
592.873,1025.4
593.407,1022.6
593.94,1024.6
594.473,1028.35
595.006,1027.85
595.539,1028.85
596.072,1030.8
596.605,1031.8
597.138,1030.9
597.67,1029.55
598.203,1033.75
598.735,1031.65
599.268,1037.45
599.8,1035.95
600.332,1032.05
600.865,1039.3
601.397,1035.85
601.929,1033.1
602.46,1034.95
602.992,1036.05
603.524,1038.05
604.056,1044.6
604.587,1039.45
605.119,1037.7
605.65,1031.8
606.182,1033.85
606.713,1030.15
607.244,1033.6
607.775,1033.65
608.306,1032.8
608.837,1035.6
609.368,1034.85
609.899,1033.4
610.43,1039.3
610.961,1036.75
611.491,1040.1
612.022,1039.35
612.552,1039.65
613.083,1049.9
613.613,1046.8
614.143,1045.2
614.673,1046.2
615.203,1044.4
615.734,1046.5
616.263,1043.5
616.793,1050.6
617.323,1051.25
617.853,1055.0
618.383,1058.1
618.912,1050.3
619.442,1052.45
619.971,1051.45
620.501,1053.4
621.03,1049.5
621.56,1054.4
622.089,1052.6
622.618,1053.85
623.147,1057.05
623.676,1058.05
624.205,1058.25
624.734,1065.95
625.263,1066.7
625.792,1062.1
626.321,1067.35
626.849,1065.5
627.378,1064.25
627.906,1068.95
628.435,1078.1
628.963,1096.1
629.492,1096.3
630.02,1093.55
630.548,1096.45
631.077,1132.3
631.605,1208.4
632.133,1202.6
632.661,1151.2
633.189,1141.35
633.717,1132.7
634.245,1114.5
634.773,1105.1
635.3,1109.35
635.828,1146.2
636.356,1213.7
636.883,1223.8
637.411,1134.9
637.938,1121.1
638.466,1113.35
638.993,1114.75
639.521,1113.25
640.048,1115.8
640.575,1111.65
641.103,1116.5
641.63,1122.0
642.157,1125.3
642.684,1125.75
643.211,1118.1
643.738,1118.3
644.265,1114.0
644.792,1113.6
645.319,1112.1
645.845,1119.25
646.372,1120.55
646.899,1125.7
647.425,1126.7
647.952,1131.9
648.479,1126.65
649.005,1117.1
649.532,1127.85
650.058,1123.35
650.585,1126.45
651.111,1125.8
651.637,1126.15
652.164,1132.7
652.69,1125.0
653.216,1127.2
653.742,1126.4
654.268,1129.6
654.794,1123.9
655.32,1124.2
655.846,1125.8
656.372,1124.35
656.898,1122.05
657.424,1127.45
657.95,1123.55
658.476,1130.0
659.002,1122.85
659.528,1123.3
660.053,1126.45
660.579,1122.85
661.105,1122.3
661.63,1121.55
662.156,1115.25
662.681,1118.7
663.076,1117.45

File: VLFR_06-PET_bio_Raman_d31b7f04.csv
nm,Intensity
528.635,1840.9
529.14,1842.1
529.645,1841.5
530.151,1842.9
530.656,1843.6
531.161,1845.8
531.666,1890.5
532.171,4005.9
532.676,1850.1
533.181,1861.5
533.686,4416.8
534.191,10514.5
534.696,8100.0
535.201,6032.6
535.705,4438.2
536.21,3448.8
536.715,3084.8
537.219,2899.0
537.724,2790.1
538.228,2835.1
538.733,2831.4
539.237,2854.2
539.741,3047.4
540.246,2828.1
540.75,2630.4
541.254,2492.9
541.758,2470.8
542.262,2494.6
542.766,2514.1
543.27,2477.8
543.774,2535.6
544.278,2469.2
544.781,2530.1
545.285,2527.0
545.789,2518.7
546.292,2562.6
546.796,2544.6
547.299,2570.5
547.803,2568.6
548.306,2580.0
548.809,2588.0
549.313,2583.8
549.816,2603.2
550.319,2785.8
550.822,3402.1
551.325,2692.6
551.828,2686.9
552.331,2717.3
552.834,3267.1
553.337,2756.2
553.839,2790.1
554.342,2763.0
554.845,2810.0
555.347,3080.5
555.85,3431.9
556.352,3534.2
556.854,3614.1
557.357,4876.3
557.859,4227.4
558.361,3844.1
558.863,3466.7
559.365,3070.0
559.867,3002.0
560.369,2964.6
560.871,3044.0
561.373,3138.1
561.875,3209.2
562.377,3280.8
562.878,3446.1
563.38,3362.4
563.881,3274.5
564.383,3319.3
564.884,3741.6
565.386,4397.7
565.887,4737.8
566.388,3762.8
566.889,3369.2
567.391,3747.3
567.892,3984.7
568.393,3422.9
568.893,3416.7
569.394,3514.4
569.895,3744.9
570.396,4344.1
570.897,5846.7
571.397,6707.9
571.898,5113.9
572.398,4053.5
572.899,3696.1
573.399,3666.9
573.899,3873.1
574.399,3775.0
574.9,3823.0
575.4,4214.8
575.9,3794.1
576.4,4191.1
576.899,4195.9
577.399,3818.1
577.899,3739.1
578.399,3795.2
578.898,3685.3
579.398,3811.7
579.897,3784.5
580.397,3972.2
580.896,4114.2
581.396,4439.1
581.895,10050.2
582.394,8961.2
582.893,4207.0
583.392,4043.3
583.891,4101.2
584.39,4129.7
584.889,4311.3
585.387,5908.0
585.886,10603.4
586.385,8019.7
586.883,4662.6
587.382,4269.8
587.88,4145.1
588.379,4086.8
588.877,4080.7
589.375,4055.8
589.873,4117.9
590.371,4033.1
590.869,4057.2
591.367,4093.4
591.865,4115.6
592.363,4096.8
592.86,4078.9
593.358,4138.1
593.856,4066.9
594.353,4184.2
594.851,4135.5
595.348,4103.1
595.845,4192.0
596.342,4268.1
596.84,4220.8
597.337,4184.9
597.834,4202.5
598.331,4216.5
598.827,4235.1
599.324,4245.5
599.821,4252.4
600.318,4225.6
600.814,4237.3
601.311,4291.8
601.807,4224.1
602.303,4311.3
602.8,4328.2
603.296,4351.3
603.792,4353.4
604.288,4191.8
604.784,4309.2
605.28,4220.0
605.776,4317.6
606.272,4317.4
606.767,4377.2
607.263,4311.1
607.758,4326.9
608.254,4307.4
608.749,4391.9
609.244,4336.3
609.74,4354.0
610.235,4340.4
610.73,4350.5
611.225,4327.2
611.72,4353.5
612.215,4295.4
612.709,4368.6
613.204,4317.1
613.699,4369.5
614.193,4451.1
614.688,4389.3
615.182,4388.8
615.676,4376.7
616.171,4571.5
616.665,4459.0
617.159,4478.1
617.653,4539.1
618.147,4548.2
618.641,4546.3
619.134,4530.9
619.628,4571.8
620.122,4502.4
620.615,4457.3
621.109,4607.9
621.602,4593.7
622.095,4499.6
622.588,4642.2
623.082,4623.9
623.575,4605.9
624.068,4688.6
624.56,4761.3
625.053,4756.8
625.546,4683.4
626.039,4629.9
626.531,4697.6
627.024,4763.7
627.516,4734.9
628.008,4843.7
628.501,4982.9
628.993,5161.6
629.485,5293.1
629.977,5139.4
630.469,5140.8
630.961,5663.7
631.452,6724.2
631.944,6980.5
632.436,6348.3
632.927,5942.0
633.418,5865.1
633.91,5528.3
634.401,5330.7
634.892,5369.7
635.383,5455.1
635.874,6089.6
636.365,7437.5
636.856,6623.5
637.347,5741.6
637.837,5422.4
638.328,5424.3
638.818,5290.5
639.309,5272.6
639.799,5260.4
640.289,5379.0
640.78,5250.0
641.27,5309.1
641.76,5292.3
642.249,5397.6
642.739,5404.1
643.229,5234.8
643.719,5360.6
644.208,5366.2
644.698,5331.1
645.187,5300.8
645.676,5332.8
646.165,5230.9
646.655,5256.3
647.144,5296.0
647.633,5384.8
648.121,5433.2
648.61,5362.6
649.099,5411.2
649.587,5196.9
650.076,5195.2
650.564,5405.1
651.053,5331.7
651.541,5189.6
652.029,5197.6
652.517,5136.7
653.005,5145.0
653.493,5040.0
653.981,5120.1
654.468,5038.4
654.956,5032.6
655.444,4956.6
655.931,5105.8
656.418,4906.8
656.906,4977.1
657.393,4845.0
657.88,4875.0
658.367,4887.6
658.854,4844.3
659.341,4729.0
659.827,4660.9
660.314,4650.3
660.8,4622.7
661.044,4637.7

File: VLFR_06-PET_bio_Raman_d766ef19.csv
nm,Intensity
526.493,829.2
527.039,828.7
527.586,828.6
528.133,828.7
528.679,829.6
529.225,829.5
529.771,830.0
530.317,828.3
530.863,830.5
531.409,829.0
531.955,830.7
532.5,830.3
533.046,828.7
533.591,842.1
534.136,2501.3
534.681,2051.0
535.226,1585.1
535.771,1317.0
536.315,1141.3
536.86,1073.4
537.404,1043.1
537.948,1033.5
538.493,1042.3
539.037,1036.9
539.58,1064.3
540.124,1069.6
540.668,1014.1
541.211,1003.4
541.755,995.9
542.298,993.2
542.841,997.3
543.384,996.9
543.927,1008.9
544.47,1007.9
545.013,1017.0
545.555,1016.2
546.098,1012.2
546.64,1016.2
547.182,1022.9
547.724,1022.8
548.266,1028.4
548.808,1024.1
549.35,1031.9
549.892,1036.2
550.433,1052.8
550.974,1068.4
551.516,1048.2
552.057,1054.4
552.598,1064.2
553.139,1087.2
553.68,1068.2
554.22,1069.9
554.761,1070.3
555.301,1090.9
555.842,1159.9
556.382,1170.6
556.922,1186.7
557.462,1360.7
558.002,1227.3
558.542,1215.0
559.082,1152.7
559.621,1119.2
560.161,1121.0
560.7,1120.5
561.239,1127.3
561.778,1130.9
562.317,1163.4
562.856,1174.4
563.395,1183.2
563.934,1175.8
564.472,1182.4
565.011,1240.8
565.549,1335.6
566.088,1347.2
566.626,1215.0
567.164,1199.2
567.702,1306.4
568.24,1216.8
568.777,1209.1
569.315,1214.4
569.853,1257.7
570.39,1317.0
570.927,1488.1
571.465,1660.0
572.002,1449.3
572.539,1304.9
573.076,1269.7
573.612,1274.0
574.149,1319.4
574.686,1292.1
575.222,1333.0
575.759,1308.7
576.295,1339.2
576.831,1361.7
577.367,1314.9
577.903,1298.4
578.439,1323.2
578.975,1318.3
579.511,1327.1
580.046,1330.6
580.582,1347.8
581.117,1371.3
581.653,1477.1
582.188,3026.9
582.723,1445.6
583.258,1380.8
583.793,1384.1
584.328,1398.9
584.863,1417.0
585.398,1550.0
585.932,2274.7
586.467,1937.8
587.001,1487.7
587.535,1424.1
588.07,1428.8
588.604,1420.8
589.138,1416.1
589.672,1422.8
590.206,1427.4
590.739,1422.9
591.273,1424.7
591.807,1431.0
592.34,1428.4
592.873,1431.9
593.407,1432.4
593.94,1431.0
594.473,1446.3
595.006,1451.1
595.539,1464.5
596.072,1459.0
596.605,1453.1
597.138,1458.6
597.67,1472.1
598.203,1475.7
598.735,1480.9
599.268,1483.6
599.8,1492.2
600.332,1486.3
600.865,1486.2
601.397,1483.2
601.929,1483.3
602.46,1491.3
602.992,1488.8
603.524,1491.9
604.056,1501.1
604.587,1502.8
605.119,1496.5
605.65,1487.3
606.182,1479.0
606.713,1485.6
607.244,1481.9
607.775,1490.2
608.306,1492.8
608.837,1501.0
609.368,1500.9
609.899,1505.1
610.43,1509.1
610.961,1511.2
611.491,1513.0
612.022,1519.0
612.552,1525.4
613.083,1538.0
613.613,1540.8
614.143,1543.8
614.673,1539.2
615.203,1553.4
615.734,1551.6
616.263,1557.0
616.793,1554.3
617.323,1572.7
617.853,1580.7
618.383,1585.2
618.912,1584.2
619.442,1578.1
619.971,1569.2
620.501,1589.6
621.03,1575.8
621.56,1581.7
622.089,1597.5
622.618,1616.8
623.147,1610.2
623.676,1625.8
624.205,1639.7
624.734,1653.4
625.263,1651.7
625.792,1658.4
626.321,1646.3
626.849,1660.4
627.378,1659.2
627.906,1678.0
628.435,1708.1
628.963,1736.0
629.492,1742.3
630.02,1745.0
630.548,1755.1
631.077,1834.7
631.605,2015.5
632.133,2011.1
632.661,1900.2
633.189,1869.9
633.717,1861.8
634.245,1835.3
634.773,1817.2
635.3,1829.7
635.828,1919.6
636.356,2091.7
636.883,2107.0
637.411,1914.2
637.938,1884.5
638.466,1863.5
638.993,1877.5
639.521,1886.5
640.048,1880.5
640.575,1893.5
641.103,1906.5
641.63,1906.4
642.157,1940.8
642.684,1945.1
643.211,1937.0
643.738,1911.0
644.265,1919.6
644.792,1922.4
645.319,1927.5
645.845,1941.8
646.372,1948.2
646.899,1969.8
647.425,1980.6
647.952,1974.5
648.479,1979.2
649.005,1969.3
649.532,1982.7
650.058,1966.8
650.585,1974.0
651.111,1986.7
651.637,1982.4
652.164,1997.7
652.69,1992.7
653.216,2010.3
653.742,2006.7
654.268,1999.6
654.794,2009.2
655.32,2003.8
655.846,2015.4
656.372,2018.5
656.898,2016.0
657.424,2030.0
657.95,2023.4
658.476,2024.0
659.002,2024.5
659.528,2028.2
660.053,2033.2
660.579,2017.7
661.105,2005.3
661.63,1992.3
662.156,2000.0
662.681,2005.9
663.076,1995.8