Folder: MPX_specDB/spectra (part 34)

File: VLFR_02-HDPE_bio_Raman_3e764038.csv
nm,Intensity
528.65,1848.95
529.155,1851.5
529.66,1850.05
530.165,1851.55
530.67,1851.45
531.175,1852.85
531.68,1889.55
532.185,4543.65
532.69,1856.4
533.194,1859.65
533.699,2813.45
534.204,6205.15
534.708,6502.85
535.213,6793.25
535.717,6815.85
536.222,6556.9
536.726,6799.35
537.231,6662.7
537.735,6922.6
538.239,6805.55
538.743,6815.7
539.247,7047.95
539.751,7071.0
540.255,7110.45
540.759,7109.45
541.263,7115.95
541.767,7232.1
542.271,7360.45
542.775,7346.1
543.279,7435.3
543.782,7530.6
544.286,7476.7
544.789,7487.9
545.293,7583.45
545.796,7554.4
546.3,7655.65
546.803,7681.1
547.306,7706.65
547.81,7834.85
548.313,7901.95
548.816,7934.25
549.319,7940.15
549.822,7838.5
550.325,7893.15
550.828,8063.95
551.331,8158.85
551.834,8220.75
552.337,8274.9
552.839,8332.85
553.342,8364.75
553.844,8428.1
554.347,8437.0
554.849,8427.85
555.352,8426.0
555.854,8481.45
556.357,8508.25
556.859,8575.75
557.361,8595.15
557.863,8697.65
558.365,8804.6
558.867,8764.65
559.369,8911.95
559.871,8858.35
560.373,8982.35
560.875,9200.0
561.377,9128.15
561.878,9230.7
562.38,9524.1
562.881,9274.85
563.383,9324.5
563.884,10187.4
564.386,9700.05
564.887,9606.25
565.388,9758.15
565.89,10106.3
566.391,10595.0
566.892,10171.7
567.393,10008.9
567.894,9809.7
568.395,9801.0
568.896,9959.75
569.396,9921.4
569.897,9933.65
570.398,10183.5
570.898,10188.0
571.399,11861.8
571.9,10636.9
572.4,10317.7
572.9,10250.0
573.401,10586.7
573.901,10488.7
574.401,10291.8
574.901,10627.3
575.401,10616.2
575.901,11130.5
576.401,12069.5
576.901,11490.5
577.401,11115.8
577.901,10725.5
578.4,10757.4
578.9,11263.5
579.399,10954.1
579.899,10740.2
580.398,10922.5
580.898,11016.3
581.397,10984.2
581.896,11009.3
582.395,10950.5
582.895,10903.6
583.394,10651.7
583.893,10799.2
584.391,10802.0
584.89,10837.9
585.389,10585.0
585.888,10626.8
586.386,10750.3
586.885,10667.9
587.384,10685.5
587.882,10653.7
588.38,10834.0
588.879,10930.7
589.377,10771.4
589.875,10940.8
590.373,10535.8
590.871,10695.3
591.369,10878.9
591.867,11001.3
592.365,10818.8
592.863,10958.2
593.361,10953.0
593.858,10876.0
594.356,10954.9
594.853,11013.3
595.351,10960.8
595.848,11045.6
596.345,11189.8
596.843,11213.3
597.34,11227.2
597.837,11088.3
598.334,11103.1
598.831,11136.1
599.328,11307.1
599.824,11339.0
600.321,11181.5
600.818,11463.3
601.314,11386.3
601.811,11473.7
602.307,11365.8
602.804,11252.0
603.3,11426.3
603.796,11011.0
604.293,11268.3
604.789,11293.4
605.285,11076.5
605.781,11202.2
606.277,11327.4
606.772,11248.8
607.268,11205.3
607.764,11193.6
608.259,11117.0
608.755,11136.3
609.25,10982.8
609.746,10656.5
610.241,11118.4
610.736,11187.5
611.231,11209.8
611.727,10940.8
612.222,10923.7
612.716,11131.4
613.211,10877.7
613.706,10978.5
614.201,11090.0
614.695,11232.3
615.19,11031.3
615.684,11036.3
616.179,10885.6
616.673,10988.3
617.168,10896.8
617.662,10982.0
618.156,10923.1
618.65,10987.3
619.144,11026.1
619.638,11438.2
620.131,11282.5
620.625,10929.1
621.119,11399.8
621.612,11465.3
622.106,11992.0
622.599,11666.1
623.093,11165.5
623.586,11177.9
624.079,11094.7
624.572,11031.8
625.065,11157.0
625.558,11044.0
626.051,11491.2
626.544,12636.0
627.037,19275.6
627.529,18788.8
628.022,16314.3
628.514,21812.3
629.007,16867.2
629.499,15424.5
629.991,14043.8
630.483,13725.7
630.976,12370.0
631.468,11397.6
631.959,11097.1
632.451,11057.8
632.943,10902.3
633.435,11076.1
633.926,11018.8
634.418,10571.3
634.909,10761.9
635.401,10693.9
635.892,10496.6
636.383,10254.8
636.874,10515.6
637.365,10570.0
637.856,10455.0
638.347,10574.9
638.838,10549.0
639.329,10429.5
639.819,10277.1
640.31,10267.4
640.8,10236.8
641.291,10142.7
641.781,10312.7
642.271,10116.0
642.761,10169.7
643.251,9986.4
643.741,9986.85
644.231,10047.0
644.721,9786.65
645.211,9905.35
645.7,9590.25
646.19,9627.95
646.679,9836.0
647.169,9916.65
647.658,9664.7
648.147,9618.5
648.636,9385.05
649.125,9533.05
649.614,9324.3
650.103,9145.6
650.592,9265.1
651.08,9277.3
651.569,9165.45
652.058,9264.8
652.546,9112.95
653.034,8858.65
653.523,8716.05
654.011,8718.35
654.499,8605.7
654.987,8550.5
655.475,8702.6
655.963,8604.45
656.45,8575.0
656.938,8579.35
657.425,8423.85
657.913,8207.05
658.4,7951.55
658.888,8172.55
659.375,7989.35
659.862,7845.7
660.349,7988.3
660.836,7886.6
661.079,7882.55

File: VLFR_02-HDPE_bio_Raman_4b7f04d8.csv
nm,Intensity
526.495,828.9
527.042,828.7
527.589,829.6
528.136,830.0
528.682,829.5
529.229,829.3
529.775,830.2
530.321,828.5
530.867,829.2
531.413,829.7
531.959,831.2
532.505,830.1
533.051,828.9
533.596,829.9
534.141,913.7
534.687,906.4
535.232,886.8
535.777,878.5
536.321,873.6
536.866,868.7
537.41,869.5
537.955,868.8
538.499,866.2
539.043,864.2
539.587,861.5
540.131,859.6
540.675,862.8
541.219,860.9
541.762,856.0
542.305,859.3
542.849,856.7
543.392,859.2
543.935,856.3
544.478,856.0
545.02,855.6
545.563,854.2
546.106,854.6
546.648,852.4
547.19,855.5
547.732,854.8
548.274,854.8
548.816,852.4
549.358,853.5
549.9,853.2
550.441,852.6
550.983,853.3
551.524,851.8
552.065,853.8
552.606,854.2
553.147,857.3
553.688,856.8
554.229,859.6
554.769,860.3
555.31,862.5
555.85,863.4
556.391,861.7
556.931,868.5
557.471,872.1
558.011,871.4
558.551,876.4
559.09,875.2
559.63,873.8
560.169,875.8
560.709,877.0
561.248,879.3
561.787,879.7
562.326,884.8
562.865,889.9
563.404,895.4
563.943,957.7
564.481,923.2
565.02,919.7
565.558,921.1
566.096,1006.8
566.634,924.2
567.172,924.2
567.71,926.5
568.248,937.4
568.786,937.9
569.324,947.3
569.861,959.1
570.399,971.0
570.936,984.0
571.473,1093.3
572.01,1036.4
572.547,1028.0
573.084,1033.0
573.621,1060.7
574.158,1083.0
574.694,1106.1
575.231,1133.3
575.767,1221.8
576.303,1315.3
576.84,1319.8
577.376,1335.2
577.912,1369.1
578.448,1421.0
578.984,1488.0
579.519,1546.8
580.055,1619.5
580.59,1694.9
581.126,1740.5
581.661,1815.9
582.196,1856.2
582.731,1918.2
583.267,1959.1
583.801,2006.6
584.336,2025.3
584.871,2066.6
585.406,2085.8
585.94,2121.9
586.475,2153.8
587.009,2180.2
587.543,2221.3
588.078,2243.3
588.612,2291.9
589.146,2320.6
589.68,2365.8
590.214,2411.5
590.747,2457.1
591.281,2486.4
591.815,2509.0
592.348,2526.1
592.881,2499.3
593.415,2521.9
593.948,2512.8
594.481,2539.6
595.014,2532.6
595.547,2533.8
596.08,2535.4
596.613,2555.8
597.146,2551.3
597.678,2563.0
598.211,2596.9
598.743,2595.0
599.276,2626.4
599.808,2627.7
600.34,2589.6
600.872,2589.8
601.404,2577.7
601.936,2550.3
602.468,2534.7
603.0,2466.9
603.532,2432.8
604.064,2381.4
604.595,2306.9
605.127,2238.3
605.658,2156.8
606.189,2096.4
606.721,2052.6
607.252,1996.6
607.783,1976.2
608.314,1937.2
608.845,1900.1
609.376,1861.0
609.907,1825.7
610.438,1784.0
610.968,1762.7
611.499,1739.3
612.029,1716.2
612.56,1700.5
613.09,1687.6
613.621,1660.7
614.151,1649.3
614.681,1636.0
615.211,1599.9
615.741,1586.6
616.271,1563.7
616.801,1544.3
617.331,1539.8
617.861,1526.2
618.39,1510.8
618.92,1497.8
619.45,1493.4
619.979,1480.7
620.509,1464.7
621.038,1463.5
621.567,1473.4
622.096,1480.7
622.626,1486.2
623.155,1467.8
623.684,1459.6
624.213,1454.6
624.742,1457.2
625.271,1466.1
625.799,1470.1
626.328,1482.6
626.857,1643.7
627.386,1972.4
627.914,1778.3
628.443,1914.8
628.971,1875.6
629.5,1804.3
630.028,1735.8
630.556,1719.5
631.084,1630.4
631.613,1586.8
632.141,1566.4
632.669,1558.9
633.197,1560.8
633.725,1558.6
634.253,1561.0
634.781,1566.3
635.308,1572.3
635.836,1574.9
636.364,1575.7
636.891,1579.2
637.419,1574.5
637.947,1575.3
638.474,1580.9
639.002,1592.1
639.529,1585.2
640.056,1598.5
640.584,1606.0
641.111,1612.9
641.638,1626.7
642.165,1624.4
642.692,1617.5
643.219,1611.6
643.746,1616.1
644.273,1616.0
644.8,1617.9
645.327,1612.6
645.854,1614.3
646.381,1607.1
646.908,1600.9
647.434,1610.8
647.961,1604.6
648.488,1591.0
649.014,1582.9
649.541,1575.6
650.067,1563.6
650.594,1555.6
651.12,1553.2
651.646,1549.1
652.173,1542.0
652.699,1543.5
653.225,1538.7
653.752,1536.0
654.278,1519.0
654.804,1524.5
655.33,1511.3
655.856,1499.6
656.382,1490.0
656.908,1484.1
657.434,1467.8
657.96,1451.6
658.486,1437.4
659.012,1419.8
659.538,1410.6
660.064,1378.4
660.589,1357.6
661.115,1334.3
661.641,1316.7
662.166,1288.7
662.692,1273.9
663.086,1266.2

File: VLFR_02-HDPE_bio_Raman_5c41bfe2.csv
nm,Intensity
528.629,1853.25
529.134,1853.35
529.639,1852.8
530.145,1853.75
530.65,1853.25
531.155,1854.35
531.66,1879.8
532.165,2862.6
532.67,1853.85
533.175,1852.55
533.68,1860.25
534.185,1874.05
534.69,1874.25
535.195,1878.9
535.699,1875.85
536.204,1873.5
536.709,1876.65
537.213,1876.9
537.718,1879.05
538.222,1881.35
538.727,1880.7
539.231,1877.75
539.735,1880.2
540.239,1884.2
540.744,1881.4
541.248,1881.3
541.752,1883.35
542.256,1885.35
542.76,1884.3
543.264,1882.25
543.768,1887.35
544.271,1884.95
544.775,1885.55
545.279,1886.35
545.783,1885.65
546.286,1887.95
546.79,1890.5
547.293,1887.6
547.797,1889.4
548.3,1892.85
548.803,1890.0
549.306,1891.55
549.81,1891.35
550.313,1895.45
550.816,1892.6
551.319,1890.7
551.822,1896.15
552.325,1898.45
552.828,1895.6
553.33,1895.55
553.833,1898.3
554.336,1897.25
554.838,1899.6
555.341,1902.75
555.843,1902.95
556.346,1899.8
556.848,1903.6
557.35,1903.75
557.853,1904.1
558.355,1904.25
558.857,1902.65
559.359,1904.55
559.861,1910.3
560.363,1902.85
560.865,1908.95
561.367,1909.35
561.869,1910.7
562.37,1909.45
562.872,1914.0
563.374,1907.55
563.875,1914.5
564.376,1905.65
564.878,1912.45
565.379,1909.3
565.881,1915.3
566.382,1921.1
566.883,1914.1
567.384,1913.1
567.885,1914.3
568.386,1917.55
568.887,1918.85
569.388,1917.7
569.888,1918.0
570.389,1917.4
570.89,1916.65
571.39,1929.6
571.891,1928.15
572.391,1916.85
572.892,1922.3
573.392,1919.95
573.892,1919.5
574.393,1922.3
574.893,1923.3
575.393,1931.0
575.893,1932.1
576.393,1929.6
576.893,1927.65
577.392,1924.4
577.892,1930.35
578.392,1921.55
578.891,1921.7
579.391,1926.8
579.89,1926.05
580.39,1930.75
580.889,1933.0
581.388,1931.65
581.888,1927.25
582.387,1931.85
582.886,1932.4
583.385,1929.35
583.884,1929.75
584.383,1928.65
584.881,1931.4
585.38,1926.55
585.879,1928.1
586.377,1933.95
586.876,1931.3
587.374,1936.7
587.873,1931.05
588.371,1929.45
588.869,1934.3
589.368,1930.95
589.866,1938.35
590.364,1938.3
590.862,1930.5
591.36,1936.9
591.857,1932.5
592.355,1943.45
592.853,1933.05
593.35,1937.05
593.848,1935.65
594.345,1937.7
594.843,1935.35
595.34,1941.3
595.837,1941.0
596.335,1941.85
596.832,1937.0
597.329,1939.65
597.826,1944.45
598.323,1939.4
598.819,1942.15
599.316,1940.75
599.813,1941.9
600.309,1942.7
600.806,1950.0
601.302,1938.95
601.799,1945.3
602.295,1946.0
602.791,1942.75
603.288,1940.8
603.784,1939.85
604.28,1942.65
604.776,1944.55
605.272,1941.3
605.767,1941.95
606.263,1938.7
606.759,1943.8
607.254,1942.5
607.75,1943.0
608.245,1941.9
608.74,1944.45
609.236,1944.7
609.731,1934.2
610.226,1944.9
610.721,1944.05
611.216,1944.25
611.711,1950.0
612.206,1941.8
612.7,1939.05
613.195,1940.65
613.69,1943.2
614.184,1936.2
614.679,1944.8
615.173,1939.3
615.667,1942.0
616.161,1943.05
616.656,1941.2
617.15,1944.05
617.644,1943.45
618.137,1938.65
618.631,1944.05
619.125,1943.45
619.619,1948.6
620.112,1942.4
620.606,1941.8
621.099,1939.35
621.592,1945.45
622.086,1943.9
622.579,1939.5
623.072,1943.35
623.565,1940.85
624.058,1943.4
624.551,1938.4
625.043,1930.55
625.536,1933.55
626.029,1939.0
626.521,1945.85
627.014,1983.1
627.506,1967.65
627.998,1959.05
628.49,1978.2
628.983,1956.9
629.475,1962.7
629.966,1946.6
630.458,1950.5
630.95,1938.3
631.442,1938.95
631.933,1935.35
632.425,1938.9
632.916,1938.6
633.408,1935.15
633.899,1931.05
634.39,1930.05
634.881,1939.8
635.372,1938.05
635.863,1926.15
636.354,1930.25
636.845,1932.05
637.336,1930.65
637.826,1924.85
638.317,1924.45
638.807,1929.2
639.298,1929.75
639.788,1929.6
640.278,1927.45
640.768,1923.9
641.258,1924.3
641.748,1922.8
642.238,1924.85
642.728,1924.65
643.217,1922.7
643.707,1925.1
644.197,1923.55
644.686,1929.9
645.175,1918.7
645.664,1919.5
646.154,1916.1
646.643,1916.35
647.132,1920.05
647.621,1924.4
648.109,1917.9
648.598,1918.4
649.087,1916.4
649.575,1924.5
650.064,1912.7
650.552,1918.0
651.04,1919.7
651.528,1915.0
652.017,1916.8
652.505,1916.15
652.992,1915.1
653.48,1917.2
653.968,1910.85
654.456,1911.8
654.943,1910.95
655.431,1911.7
655.918,1914.1
656.405,1914.9
656.893,1905.3
657.38,1910.75
657.867,1908.85
658.354,1906.95
658.84,1905.3
659.327,1903.9
659.814,1902.35
660.3,1903.25
660.787,1900.4
661.03,1903.85

File: VLFR_02-HDPE_bio_Raman_6bf2f0cc.csv
nm,Intensity
526.547,831.8
527.095,831.7
527.642,831.9
528.189,832.35
528.736,832.45
529.283,831.75
529.829,831.7
530.376,831.7
530.922,832.35
531.468,831.8
532.014,840.6
532.56,832.75
533.106,830.9
533.651,833.05
534.196,923.25
534.742,920.4
535.287,913.55
535.832,895.9
536.376,888.3
536.921,885.85
537.465,885.65
538.01,886.3
538.554,883.1
539.098,880.65
539.642,877.7
540.186,880.6
540.729,876.75
541.273,877.15
541.816,874.55
542.36,877.25
542.903,878.65
543.446,875.85
543.988,878.7
544.531,880.45
545.074,879.5
545.616,880.9
546.158,880.4
546.701,881.8
547.243,881.55
547.785,880.4
548.326,880.45
548.868,882.7
549.41,881.05
549.951,881.65
550.492,882.75
551.034,880.25
551.575,880.45
552.116,881.3
552.656,880.15
553.197,881.3
553.738,882.25
554.278,882.1
554.819,884.2
555.359,884.6
555.899,880.95
556.439,882.3
556.979,884.4
557.519,883.2
558.058,887.0
558.598,885.95
559.137,885.5
559.677,885.9
560.216,886.65
560.755,882.65
561.294,885.95
561.833,888.2
562.371,888.3
562.91,892.0
563.449,896.3
563.987,972.55
564.525,909.35
565.064,905.75
565.602,899.35
566.14,970.85
566.678,901.65
567.216,901.9
567.753,902.75
568.291,900.9
568.828,900.85
569.366,902.05
569.903,905.35
570.44,907.45
570.977,914.2
571.514,1040.7
572.051,928.0
572.588,915.35
573.125,914.7
573.661,917.85
574.198,924.1
574.734,919.85
575.271,928.45
575.807,961.25
576.343,1074.95
576.879,1008.7
577.415,986.95
577.951,959.8
578.486,963.2
579.022,966.2
579.557,975.35
580.093,983.7
580.628,994.85
581.164,1001.6
581.699,1015.2
582.234,1023.65
582.769,1034.5
583.304,1042.35
583.838,1050.85
584.373,1059.85
584.908,1069.85
585.442,1080.15
585.977,1088.0
586.511,1100.9
587.045,1115.55
587.58,1124.9
588.114,1142.95
588.648,1145.5
589.182,1161.0
589.715,1166.1
590.249,1181.65
590.783,1195.05
591.316,1201.45
591.85,1213.95
592.383,1220.6
592.917,1224.4
593.45,1234.3
593.983,1236.75
594.516,1247.75
595.049,1251.8
595.582,1263.2
596.115,1271.4
596.648,1283.4
597.18,1295.65
597.713,1307.75
598.245,1313.7
598.778,1322.95
599.31,1333.1
599.842,1334.05
600.375,1334.3
600.907,1335.85
601.439,1327.6
601.971,1323.55
602.503,1319.9
603.034,1307.3
603.566,1299.5
604.098,1284.55
604.629,1266.35
605.161,1248.55
605.692,1225.95
606.224,1209.5
606.755,1201.9
607.286,1185.2
607.817,1179.05
608.348,1167.65
608.879,1155.5
609.41,1146.05
609.941,1138.65
610.472,1132.0
611.002,1119.6
611.533,1118.25
612.063,1109.25
612.594,1106.35
613.124,1105.85
613.655,1101.65
614.185,1095.25
614.715,1084.55
615.245,1081.65
615.775,1075.55
616.305,1068.8
616.835,1073.0
617.365,1068.75
617.895,1065.35
618.425,1063.45
618.954,1057.45
619.484,1060.0
620.013,1056.25
620.543,1051.85
621.072,1056.95
621.602,1071.1
622.131,1098.9
622.66,1084.45
623.189,1053.0
623.718,1042.1
624.247,1042.55
624.776,1036.8
625.305,1036.85
625.834,1048.1
626.363,1084.85
626.891,1464.2
627.42,1923.55
627.949,1550.7
628.477,1950.3
629.006,1535.65
629.534,1418.85
630.062,1296.05
630.591,1270.55
631.119,1130.6
631.647,1059.75
632.175,1047.25
632.703,1040.85
633.231,1039.65
633.759,1042.5
634.287,1037.75
634.815,1035.95
635.343,1034.55
635.871,1037.65
636.398,1043.2
636.926,1043.05
637.454,1038.6
637.981,1040.85
638.509,1045.0
639.036,1045.85
639.564,1048.0
640.091,1048.35
640.618,1053.6
641.146,1053.1
641.673,1054.6
642.2,1060.4
642.727,1059.9
643.254,1061.55
643.781,1066.7
644.308,1061.75
644.835,1062.5
645.362,1061.25
645.889,1060.8
646.416,1064.55
646.942,1062.55
647.469,1065.65
647.996,1071.55
648.522,1066.25
649.049,1066.7
649.576,1064.75
650.102,1063.7
650.629,1059.15
651.155,1059.25
651.682,1065.35
652.208,1066.2
652.734,1065.2
653.261,1062.8
653.787,1063.75
654.313,1061.75
654.839,1060.75
655.365,1054.8
655.892,1053.2
656.418,1055.35
656.944,1050.45
657.47,1042.9
657.996,1040.2
658.522,1038.9
659.048,1030.7
659.574,1024.85
660.099,1027.8
660.625,1018.25
661.151,1008.0
661.677,999.25
662.203,997.75
662.728,993.5
663.123,986.4

File: VLFR_02-HDPE_bio_Raman_6e65899c.csv
nm,Intensity
526.508,829.0
527.055,829.0
527.602,829.4
528.149,829.9
528.695,830.6
529.241,828.6
529.787,830.2
530.334,829.9
530.879,830.4
531.425,830.7
531.971,838.1
532.516,832.6
533.062,829.8
533.607,830.3
534.152,866.4
534.697,859.4
535.242,852.1
535.786,847.2
536.331,844.9
536.876,844.8
537.42,842.4
537.964,843.9
538.508,840.3
539.052,842.3
539.596,840.3
540.14,838.8
540.683,839.1
541.227,838.3
541.77,837.2
542.313,838.5
542.856,839.3
543.399,838.8
543.942,838.3
544.485,838.0
545.027,838.8
545.57,838.5
546.112,838.2
546.654,838.4
547.196,837.7
547.738,839.7
548.28,838.4
548.822,839.3
549.363,839.6
549.905,839.2
550.446,838.0
550.988,839.9
551.529,837.8
552.07,836.9
552.611,840.5
553.152,839.8
553.692,839.2
554.233,842.3
554.773,841.4
555.314,840.0
555.854,841.8
556.394,840.6
556.934,842.4
557.474,846.3
558.014,842.7
558.553,845.8
559.093,843.4
559.632,842.1
560.172,841.4
560.711,843.4
561.25,842.9
561.789,843.7
562.328,844.4
562.867,847.1
563.406,848.4
563.944,896.9
564.483,858.3
565.021,855.7
565.559,854.0
566.098,956.6
566.636,859.6
567.174,847.2
567.711,847.2
568.249,846.0
568.787,845.3
569.324,843.5
569.862,844.7
570.399,848.6
570.936,852.2
571.474,933.7
572.011,861.7
572.548,849.8
573.084,846.6
573.621,848.1
574.158,852.2
574.694,842.7
575.231,853.8
575.767,905.6
576.303,900.7
576.84,881.5
577.376,866.5
577.912,850.1
578.447,846.4
578.983,842.7
579.519,845.8
580.054,845.2
580.59,844.7
581.125,845.5
581.661,844.4
582.196,845.0
582.731,847.2
583.266,846.9
583.801,844.9
584.336,845.2
584.87,845.2
585.405,845.3
585.94,847.2
586.474,844.4
587.008,845.9
587.543,848.3
588.077,847.4
588.611,846.6
589.145,846.4
589.679,850.1
590.213,847.0
590.747,849.6
591.28,847.6
591.814,849.8
592.347,852.3
592.881,849.3
593.414,852.1
593.947,852.2
594.48,851.4
595.014,852.2
595.547,851.9
596.079,853.7
596.612,853.3
597.145,855.6
597.678,853.9
598.21,853.7
598.743,857.4
599.275,857.9
599.807,861.5
600.34,858.6
600.872,857.1
601.404,856.0
601.936,857.9
602.468,859.3
603.0,855.9
603.532,855.8
604.063,856.3
604.595,856.6
605.126,856.2
605.658,854.6
606.189,857.4
606.721,856.1
607.252,854.2
607.783,854.5
608.314,855.5
608.845,854.0
609.376,852.3
609.907,854.3
610.438,855.4
610.968,858.6
611.499,853.9
612.03,854.7
612.56,853.1
613.091,852.4
613.621,852.9
614.151,853.9
614.681,852.6
615.212,853.8
615.742,852.9
616.272,853.8
616.802,854.5
617.332,854.8
617.861,855.5
618.391,857.2
618.921,855.1
619.45,857.5
619.98,856.1
620.509,856.3
621.039,860.0
621.568,862.2
622.097,872.1
622.627,866.8
623.156,862.8
623.685,858.2
624.214,858.4
624.743,857.7
625.272,858.0
625.801,860.2
626.33,875.9
626.858,972.8
627.387,1200.7
627.916,1053.2
628.444,1107.0
628.973,1099.5
629.501,1050.1
630.029,987.5
630.558,977.7
631.086,913.7
631.614,877.5
632.142,863.1
632.67,858.5
633.198,860.0
633.726,854.5
634.254,852.7
634.782,851.1
635.31,851.8
635.838,853.5
636.365,852.6
636.893,852.6
637.421,849.0
637.948,848.1
638.476,849.7
639.003,850.7
639.531,850.2
640.058,850.5
640.585,849.5
641.113,849.6
641.64,850.5
642.167,849.4
642.694,851.4
643.221,850.7
643.748,850.5
644.275,851.4
644.802,850.9
645.329,849.4
645.856,851.1
646.382,851.4
646.909,850.1
647.436,849.7
647.962,852.3
648.489,849.9
649.016,850.6
649.542,851.6
650.069,850.8
650.595,852.7
651.121,850.9
651.648,852.8
652.174,853.2
652.7,853.4
653.227,853.1
653.753,852.8
654.279,851.5
654.805,851.9
655.331,851.9
655.857,851.9
656.383,852.0
656.909,853.2
657.435,850.3
657.961,852.6
658.487,854.3
659.013,854.1
659.538,852.0
660.064,854.1
660.59,851.0
661.116,851.7
661.641,848.9
662.167,849.7
662.692,852.4
663.087,848.1

File: VLFR_02-HDPE_bio_Raman_7a34e697.csv
nm,Intensity
526.494,834.1
527.041,834.8
527.588,834.6
528.135,834.8
528.682,833.5
529.229,833.1
529.775,834.8
530.321,834.6
530.868,833.8
531.414,834.5
531.96,845.7
532.506,837.2
533.051,834.8
533.597,836.0
534.142,909.6
534.687,914.3
535.232,910.7
535.777,877.0
536.322,863.1
536.867,860.6
537.411,861.7
537.956,859.4
538.5,859.2
539.044,853.2
539.588,852.5
540.132,852.4
540.676,850.2
541.22,850.5
541.763,848.8
542.306,851.1
542.85,849.6
543.393,849.0
543.936,850.6
544.479,849.3
545.021,850.0
545.564,849.1
546.106,848.3
546.649,848.2
547.191,851.2
547.733,848.8
548.275,849.1
548.817,848.8
549.359,849.8
549.9,848.6
550.442,850.9
550.983,849.8
551.524,850.9
552.066,850.1
552.607,849.1
553.148,850.6
553.688,852.5
554.229,851.0
554.77,852.4
555.31,852.9
555.85,853.6
556.39,858.3
556.931,857.2
557.471,856.9
558.01,860.7
558.55,861.3
559.09,856.8
559.629,856.7
560.169,858.3
560.708,857.6
561.247,857.2
561.786,858.9
562.325,858.4
562.864,863.1
563.403,866.2
563.941,964.8
564.48,881.8
565.018,876.8
565.557,869.1
566.095,933.9
566.633,869.7
567.171,869.9
567.709,876.8
568.247,863.5
568.784,862.4
569.322,864.6
569.859,864.8
570.397,871.6
570.934,874.3
571.471,1025.1
572.008,896.1
572.545,873.9
573.082,869.0
573.619,869.1
574.155,880.5
574.692,868.2
575.228,872.9
575.765,914.6
576.301,1059.4
576.837,973.6
577.373,941.8
577.909,886.2
578.445,877.4
578.981,881.0
579.516,878.4
580.052,882.1
580.587,880.6
581.123,881.5
581.658,885.5
582.193,887.0
582.728,890.5
583.263,887.0
583.798,892.3
584.333,894.5
584.868,899.9
585.402,903.7
585.937,903.5
586.471,909.8
587.005,914.3
587.54,919.9
588.074,918.8
588.608,925.9
589.142,927.5
589.676,928.2
590.21,933.6
590.743,937.8
591.277,940.9
591.81,946.5
592.344,949.3
592.877,948.5
593.411,948.9
593.944,950.7
594.477,958.5
595.01,957.2
595.543,960.8
596.076,961.8
596.608,963.2
597.141,968.5
597.674,968.2
598.206,977.1
598.739,977.7
599.271,978.3
599.803,981.8
600.335,979.1
600.868,981.5
601.4,978.7
601.931,978.6
602.463,985.0
602.995,973.6
603.527,971.2
604.058,970.1
604.59,965.4
605.121,963.2
605.653,956.3
606.184,953.3
606.715,945.8
607.246,942.8
607.778,942.1
608.309,940.9
608.839,936.2
609.37,937.4
609.901,933.4
610.432,936.2
610.962,936.0
611.493,934.1
612.023,927.0
612.554,929.7
613.084,929.0
613.614,928.3
614.145,924.0
614.675,922.4
615.205,924.1
615.735,925.1
616.265,923.3
616.795,928.5
617.324,932.0
617.854,929.0
618.384,931.1
618.913,930.1
619.443,933.1
619.972,934.5
620.502,934.4
621.031,939.8
621.56,960.8
622.089,1009.3
622.618,1003.3
623.147,944.8
623.676,931.5
624.205,928.7
624.734,927.5
625.263,934.9
625.792,946.3
626.32,1003.5
626.849,1484.3
627.377,2196.2
627.906,1639.8
628.434,2130.1
628.963,1577.3
629.491,1429.9
630.019,1256.4
630.547,1227.5
631.076,1048.8
631.604,950.5
632.132,929.7
632.66,924.9
633.188,916.2
633.715,917.0
634.243,908.2
634.771,904.3
635.299,907.6
635.826,910.5
636.354,902.2
636.881,904.5
637.409,897.1
637.936,897.4
638.464,898.4
638.991,900.8
639.518,899.4
640.045,897.5
640.573,898.9
641.1,898.4
641.627,900.9
642.154,898.6
642.681,897.8
643.208,899.7
643.735,901.3
644.261,896.7
644.788,904.2
645.315,900.3
645.842,898.8
646.368,899.7
646.895,897.2
647.421,901.4
647.948,898.4
648.474,902.2
649.001,898.4
649.527,899.7
650.054,896.9
650.58,897.8
651.106,899.8
651.633,897.6
652.159,898.4
652.685,895.1
653.211,896.7
653.737,898.2
654.263,897.3
654.789,898.3
655.315,894.0
655.841,893.8
656.367,894.9
656.893,893.5
657.419,896.2
657.945,892.2
658.47,893.0
658.996,892.9
659.522,890.3
660.047,895.8
660.573,889.3
661.099,888.1
661.624,887.7
662.15,886.2
662.675,884.3
663.07,882.0