Folder: MPX_specDB/spectra (part 131)

File: VLFR_08-PLA_bio_Raman_49cc82cc.csv
nm,Intensity
528.626,1859.0
529.132,1859.9
529.637,1858.4
530.143,1858.2
530.648,1861.5
531.153,1865.5
531.658,1937.4
532.164,6680.5
532.669,1862.4
533.174,1864.7
533.679,2386.2
534.184,3657.1
534.689,3283.1
535.194,3043.8
535.699,2765.8
536.203,2700.6
536.708,2737.3
537.213,2614.5
537.717,2652.7
538.222,2498.6
538.726,2429.1
539.231,2424.1
539.735,2308.8
540.239,2396.8
540.744,2554.5
541.248,2537.6
541.752,2398.6
542.256,2384.9
542.76,2382.8
543.264,2636.1
543.768,2797.5
544.272,2566.8
544.776,2372.4
545.28,2320.5
545.784,2289.7
546.287,2276.4
546.791,2302.2
547.294,2316.5
547.798,2320.4
548.301,2323.5
548.805,2321.0
549.308,2338.5
549.811,2317.0
550.315,2348.5
550.818,2389.8
551.321,2420.7
551.824,2425.4
552.327,2445.7
552.83,2456.3
553.333,2370.1
553.835,2526.3
554.338,2465.8
554.841,2403.4
555.343,2343.0
555.846,2307.8
556.349,2320.0
556.851,2365.2
557.353,2589.6
557.856,3733.3
558.358,3406.0
558.86,2626.9
559.362,2526.6
559.864,2477.0
560.366,2429.7
560.868,2393.0
561.37,2379.5
561.872,2374.9
562.374,2404.0
562.876,2558.7
563.377,2999.7
563.879,2687.2
564.38,2530.1
564.882,2778.2
565.383,2804.5
565.885,3087.3
566.386,2999.1
566.887,2493.2
567.388,2445.2
567.889,2589.0
568.391,2521.6
568.892,2512.8
569.392,2498.3
569.893,2463.8
570.394,2490.9
570.895,2499.8
571.395,2752.8
571.896,2791.8
572.397,2660.6
572.897,2674.1
573.397,2686.8
573.898,2676.1
574.398,2794.0
574.898,2561.8
575.398,2498.2
575.898,2535.2
576.398,3112.6
576.898,3580.4
577.398,2710.9
577.898,2496.8
578.398,2474.2
578.897,2493.8
579.397,2479.6
579.896,2472.4
580.396,2462.3
580.895,2459.7
581.395,2466.5
581.894,2491.1
582.393,2497.9
582.892,2483.2
583.391,2481.7
583.89,2490.6
584.389,2523.9
584.888,2501.9
585.387,2507.1
585.886,2526.3
586.384,2658.3
586.883,3135.5
587.381,3459.6
587.88,3086.3
588.378,2571.4
588.876,2495.9
589.375,2522.6
589.873,2501.3
590.371,2497.9
590.869,2509.7
591.367,2508.4
591.865,2521.8
592.363,2519.4
592.86,2517.5
593.358,2480.0
593.856,2502.6
594.353,2514.6
594.851,2516.2
595.348,2530.3
595.845,2521.9
596.342,2557.2
596.84,2525.6
597.337,2548.4
597.834,2549.3
598.331,2511.3
598.828,2561.1
599.324,2539.5
599.821,2559.0
600.318,2556.6
600.814,2550.9
601.311,2548.5
601.807,2571.4
602.304,2565.7
602.8,2553.0
603.296,2573.1
603.792,2578.5
604.288,2566.6
604.784,2556.5
605.28,2563.8
605.776,2565.4
606.272,2569.1
606.767,2554.0
607.263,2578.7
607.759,2574.5
608.254,2588.1
608.749,2581.4
609.245,2588.9
609.74,2577.7
610.235,2563.6
610.73,2580.3
611.225,2572.4
611.72,2552.6
612.215,2545.3
612.71,2586.8
613.204,2563.2
613.699,2559.3
614.194,2565.2
614.688,2571.8
615.182,2551.1
615.677,2586.6
616.171,2587.6
616.665,2578.5
617.159,2595.5
617.653,2571.1
618.147,2570.8
618.641,2558.5
619.135,2581.5
619.628,2560.1
620.122,2574.0
620.615,2573.5
621.109,2561.7
621.602,2550.4
622.095,2619.5
622.589,2669.2
623.082,2763.8
623.575,2692.8
624.068,2636.6
624.561,2574.5
625.053,2570.0
625.546,2550.4
626.039,2565.7
626.531,2573.6
627.024,2568.3
627.516,2630.6
628.008,2903.9
628.501,3686.3
628.993,3347.4
629.485,3443.8
629.977,3475.0
630.469,4336.2
630.96,8654.4
631.452,6685.8
631.944,4495.8
632.435,4088.0
632.927,4929.3
633.418,5397.1
633.91,4274.5
634.401,3189.4
634.892,2746.3
635.383,2577.3
635.874,2520.5
636.365,2497.7
636.856,2492.7
637.346,2467.0
637.837,2444.7
638.327,2458.7
638.818,2428.4
639.308,2435.3
639.799,2417.9
640.289,2426.9
640.779,2430.0
641.269,2427.2
641.759,2420.4
642.249,2424.9
642.738,2447.9
643.228,2367.0
643.718,2391.7
644.207,2367.4
644.697,2355.8
645.186,2352.2
645.675,2355.9
646.164,2319.4
646.653,2321.6
647.142,2331.2
647.631,2309.3
648.12,2329.8
648.609,2276.8
649.098,2275.8
649.586,2297.9
650.075,2265.5
650.563,2301.9
651.051,2271.8
651.539,2298.6
652.027,2271.8
652.515,2282.4
653.003,2237.2
653.491,2248.2
653.979,2234.3
654.467,2247.6
654.954,2241.5
655.442,2213.6
655.929,2242.0
656.416,2217.0
656.904,2238.0
657.391,2211.1
657.878,2224.5
658.365,2193.7
658.851,2184.3
659.338,2175.3
659.825,2183.5
660.311,2184.3
660.798,2175.1
661.041,2167.3

File: VLFR_08-PLA_bio_Raman_49f5108c.csv
nm,Intensity
526.508,827.8
527.055,826.8
527.602,828.2
528.149,828.6
528.695,827.4
529.241,828.2
529.787,827.2
530.334,827.9
530.879,828.2
531.425,828.0
531.971,829.9
532.516,829.3
533.062,829.0
533.607,829.4
534.152,1039.4
534.697,993.7
535.242,956.7
535.786,938.4
536.331,924.9
536.876,930.1
537.42,918.3
537.964,918.7
538.508,906.5
539.052,903.6
539.596,900.5
540.14,896.9
540.683,908.5
541.227,915.9
541.77,904.8
542.313,898.7
542.856,900.9
543.399,924.5
543.942,942.2
544.485,910.8
545.027,895.7
545.57,895.8
546.112,896.4
546.654,896.8
547.196,898.4
547.738,900.1
548.28,897.9
548.822,897.3
549.363,901.6
549.905,902.3
550.446,901.6
550.988,901.2
551.529,908.0
552.07,907.5
552.611,913.1
553.152,915.3
553.692,910.2
554.233,917.3
554.773,908.6
555.314,903.7
555.854,900.8
556.394,899.5
556.934,908.0
557.474,919.3
558.014,1037.9
558.553,946.3
559.093,917.2
559.632,916.3
560.172,911.7
560.711,908.8
561.25,909.4
561.789,908.4
562.328,908.7
562.867,921.3
563.406,946.8
563.944,932.0
564.483,916.2
565.021,948.2
565.559,936.8
566.098,966.3
566.636,934.8
567.174,915.7
567.711,922.2
568.249,926.1
568.787,922.1
569.324,923.6
569.862,921.3
570.399,917.2
570.936,921.5
571.474,942.8
572.011,942.7
572.548,935.7
573.084,933.5
573.621,939.4
574.158,933.7
574.694,948.4
575.231,925.4
575.767,927.3
576.303,943.2
576.84,1000.9
577.376,948.1
577.912,929.6
578.447,927.7
578.983,924.7
579.519,923.0
580.054,924.6
580.59,922.9
581.125,922.9
581.661,927.8
582.196,926.7
582.731,927.1
583.266,930.3
583.801,931.4
584.336,928.5
584.87,927.1
585.405,930.3
585.94,931.1
586.474,944.7
587.008,979.9
587.543,1008.2
588.077,954.8
588.611,932.6
589.145,931.8
589.679,931.6
590.213,928.1
590.747,929.1
591.28,928.5
591.814,924.6
592.347,927.8
592.881,922.5
593.414,922.2
593.947,928.5
594.48,925.6
595.014,930.9
595.547,925.9
596.079,928.1
596.612,926.3
597.145,928.8
597.678,925.4
598.21,928.0
598.743,929.3
599.275,926.9
599.807,926.0
600.34,930.5
600.872,927.8
601.404,923.8
601.936,923.9
602.468,926.3
603.0,926.6
603.532,923.2
604.063,922.9
604.595,925.2
605.126,925.2
605.658,921.8
606.189,923.1
606.721,922.5
607.252,924.2
607.783,922.9
608.314,926.0
608.845,922.6
609.376,925.9
609.907,923.3
610.438,919.8
610.968,920.2
611.499,923.8
612.03,925.0
612.56,921.4
613.091,922.9
613.621,921.9
614.151,925.5
614.681,924.8
615.212,926.5
615.742,923.8
616.272,925.4
616.802,927.2
617.332,924.0
617.861,923.6
618.391,923.3
618.921,922.3
619.45,919.5
619.98,922.5
620.509,923.1
621.039,923.7
621.568,920.2
622.097,923.8
622.627,930.5
623.156,940.3
623.685,933.2
624.214,927.4
624.743,924.5
625.272,927.3
625.801,923.3
626.33,923.0
626.858,924.1
627.387,926.1
627.916,935.3
628.444,1004.4
628.973,996.2
629.501,989.2
630.029,995.6
630.558,1053.2
631.086,1444.2
631.614,1202.6
632.142,1061.7
632.67,1036.7
633.198,1130.9
633.726,1099.7
634.254,996.6
634.782,945.3
635.31,925.4
635.838,919.8
636.365,916.5
636.893,917.3
637.421,911.8
637.948,915.4
638.476,915.8
639.003,914.7
639.531,911.8
640.058,914.1
640.585,908.3
641.113,910.9
641.64,914.1
642.167,914.7
642.694,913.8
643.221,906.2
643.748,905.6
644.275,904.5
644.802,902.5
645.329,905.0
645.856,902.0
646.382,905.4
646.909,904.6
647.436,902.1
647.962,903.0
648.489,903.1
649.016,901.1
649.542,901.1
650.069,902.1
650.595,895.7
651.121,901.2
651.648,900.3
652.174,896.2
652.7,901.3
653.227,894.5
653.753,897.6
654.279,896.9
654.805,895.9
655.331,900.0
655.857,894.5
656.383,899.6
656.909,898.7
657.435,892.0
657.961,894.6
658.487,895.4
659.013,893.0
659.538,895.7
660.064,897.3
660.59,892.7
661.116,893.6
661.641,891.7
662.167,892.3
662.692,895.8
663.087,890.9

File: VLFR_08-PLA_bio_Raman_57c41079.csv
nm,Intensity
528.626,1858.1
529.132,1861.0
529.637,1860.4
530.143,1859.9
530.648,1861.2
531.153,1866.0
531.658,1948.2
532.164,6405.5
532.669,1864.3
533.174,1865.8
533.679,2441.8
534.184,3782.1
534.689,3377.6
535.194,3105.7
535.699,2882.0
536.203,2764.7
536.708,2816.1
537.213,2660.5
537.717,2676.7
538.222,2530.9
538.726,2495.7
539.231,2468.3
539.735,2347.8
540.239,2444.7
540.744,2571.4
541.248,2585.1
541.752,2463.1
542.256,2422.4
542.76,2433.8
543.264,2674.6
543.768,2880.3
544.272,2652.0
544.776,2415.3
545.28,2351.3
545.784,2340.1
546.287,2311.5
546.791,2347.9
547.294,2353.7
547.798,2360.7
548.301,2362.2
548.805,2373.6
549.308,2386.5
549.811,2359.2
550.315,2379.7
550.818,2431.1
551.321,2454.1
551.824,2503.3
552.327,2503.6
552.83,2516.1
553.333,2455.2
553.835,2585.7
554.338,2544.3
554.841,2457.8
555.343,2384.2
555.846,2349.1
556.349,2366.5
556.851,2388.1
557.353,2636.4
557.856,3950.3
558.358,3473.7
558.86,2674.3
559.362,2583.5
559.864,2522.9
560.366,2438.7
560.868,2444.8
561.37,2424.5
561.872,2421.8
562.374,2461.4
562.876,2610.3
563.377,3081.3
563.879,2765.8
564.38,2582.2
564.882,2856.6
565.383,2881.5
565.885,3153.8
566.386,3043.5
566.887,2560.0
567.388,2513.7
567.889,2657.8
568.391,2593.4
568.892,2588.2
569.392,2557.4
569.893,2527.0
570.394,2545.4
570.895,2590.6
571.395,2821.4
571.896,2903.4
572.397,2731.5
572.897,2748.2
573.397,2780.5
573.898,2743.9
574.398,2860.0
574.898,2659.9
575.398,2553.5
575.898,2598.6
576.398,3224.7
576.898,3673.2
577.398,2803.7
577.898,2565.1
578.398,2537.5
578.897,2517.7
579.397,2541.6
579.896,2538.1
580.396,2514.9
580.895,2502.7
581.395,2525.6
581.894,2529.0
582.393,2509.8
582.892,2515.9
583.391,2553.1
583.89,2560.3
584.389,2555.7
584.888,2547.7
585.387,2546.9
585.886,2579.1
586.384,2713.6
586.883,3210.2
587.381,3516.1
587.88,3162.3
588.378,2624.7
588.876,2549.8
589.375,2562.9
589.873,2518.6
590.371,2526.2
590.869,2536.5
591.367,2549.4
591.865,2556.9
592.363,2531.4
592.86,2535.5
593.358,2525.3
593.856,2529.3
594.353,2520.1
594.851,2498.0
595.348,2541.5
595.845,2537.1
596.342,2551.5
596.84,2553.5
597.337,2553.2
597.834,2531.7
598.331,2536.1
598.828,2565.0
599.324,2563.7
599.821,2563.9
600.318,2561.6
600.814,2587.0
601.311,2549.3
601.807,2561.6
602.304,2570.6
602.8,2546.1
603.296,2575.1
603.792,2584.5
604.288,2581.7
604.784,2542.6
605.28,2589.5
605.776,2541.3
606.272,2607.7
606.767,2558.6
607.263,2602.6
607.759,2547.0
608.254,2600.8
608.749,2599.7
609.245,2562.4
609.74,2626.3
610.235,2602.5
610.73,2595.0
611.225,2585.1
611.72,2571.6
612.215,2562.5
612.71,2583.7
613.204,2585.0
613.699,2593.6
614.194,2591.2
614.688,2589.4
615.182,2588.8
615.677,2586.1
616.171,2591.7
616.665,2594.6
617.159,2620.0
617.653,2589.4
618.147,2583.9
618.641,2583.1
619.135,2611.5
619.628,2579.9
620.122,2605.2
620.615,2582.8
621.109,2596.8
621.602,2579.4
622.095,2600.6
622.589,2732.6
623.082,2772.5
623.575,2738.5
624.068,2674.8
624.561,2621.5
625.053,2582.8
625.546,2550.3
626.039,2598.6
626.531,2608.9
627.024,2600.6
627.516,2646.6
628.008,2985.1
628.501,3697.3
628.993,3410.1
629.485,3501.2
629.977,3527.3
630.469,4382.3
630.96,8768.4
631.452,6702.9
631.944,4541.3
632.435,4173.5
632.927,4999.0
633.418,5414.0
633.91,4313.2
634.401,3215.4
634.892,2786.8
635.383,2617.3
635.874,2543.2
636.365,2511.3
636.856,2505.4
637.346,2479.6
637.837,2469.2
638.327,2475.8
638.818,2444.1
639.308,2438.5
639.799,2452.2
640.289,2459.9
640.779,2456.4
641.269,2467.4
641.759,2443.3
642.249,2438.2
642.738,2433.2
643.228,2432.6
643.718,2415.3
644.207,2396.3
644.697,2362.1
645.186,2362.9
645.675,2385.5
646.164,2361.5
646.653,2349.5
647.142,2350.5
647.631,2315.0
648.12,2350.7
648.609,2305.4
649.098,2317.9
649.586,2303.2
650.075,2285.6
650.563,2308.3
651.051,2314.4
651.539,2289.0
652.027,2295.3
652.515,2255.2
653.003,2267.6
653.491,2247.1
653.979,2261.8
654.467,2267.3
654.954,2257.7
655.442,2244.9
655.929,2248.2
656.416,2250.1
656.904,2259.8
657.391,2237.0
657.878,2225.8
658.365,2217.8
658.851,2203.7
659.338,2202.9
659.825,2196.1
660.311,2189.9
660.798,2201.4
661.041,2200.0

File: VLFR_08-PLA_bio_Raman_60ae3a3a.csv
nm,Intensity
526.532,833.95
527.079,834.15
527.625,834.35
528.172,833.4
528.718,833.3
529.265,834.25
529.811,833.65
530.357,834.15
530.903,833.85
531.449,832.85
531.994,842.45
532.54,833.4
533.085,832.35
533.63,835.3
534.176,974.8
534.721,960.35
535.266,950.75
535.81,947.8
536.355,945.8
536.9,947.4
537.444,948.15
537.988,945.7
538.533,947.3
539.077,946.25
539.621,946.2
540.165,944.45
540.708,956.8
541.252,957.25
541.795,953.05
542.339,952.1
542.882,956.15
543.425,966.75
543.968,969.45
544.511,965.75
545.054,963.0
545.597,962.6
546.139,964.15
546.682,967.9
547.224,968.45
547.766,972.95
548.308,969.25
548.85,973.5
549.392,976.8
549.934,977.15
550.475,978.25
551.017,977.95
551.558,983.1
552.1,981.05
552.641,984.85
553.182,989.25
553.723,985.3
554.264,993.3
554.804,989.65
555.345,987.9
555.885,987.85
556.426,988.5
556.966,992.45
557.506,999.1
558.046,1042.7
558.586,1002.25
559.126,997.1
559.665,997.8
560.205,994.75
560.745,995.65
561.284,996.2
561.823,999.85
562.362,997.4
562.901,1006.0
563.44,1014.55
563.979,1011.05
564.518,1010.2
565.056,1018.6
565.595,1021.6
566.133,1031.2
566.671,1014.05
567.21,1009.2
567.748,1015.4
568.285,1013.35
568.823,1017.1
569.361,1021.75
569.899,1018.05
570.436,1023.2
570.974,1018.1
571.511,1028.9
572.048,1024.75
572.585,1026.45
573.122,1028.15
573.659,1034.35
574.196,1029.65
574.733,1035.35
575.269,1027.7
575.806,1025.85
576.342,1034.5
576.878,1056.5
577.414,1038.95
577.951,1027.15
578.486,1030.25
579.022,1030.5
579.558,1030.9
580.094,1027.95
580.629,1029.4
581.165,1033.35
581.7,1027.4
582.236,1032.75
582.771,1038.1
583.306,1037.45
583.841,1037.35
584.376,1035.5
584.911,1036.25
585.445,1037.1
585.98,1035.4
586.514,1043.1
587.049,1054.2
587.583,1060.8
588.117,1045.8
588.651,1036.3
589.186,1034.65
589.72,1030.75
590.253,1035.4
590.787,1036.7
591.321,1035.05
591.854,1034.95
592.388,1033.55
592.921,1031.25
593.455,1029.05
593.988,1028.95
594.521,1029.35
595.054,1037.4
595.587,1036.85
596.12,1033.55
596.653,1035.9
597.186,1033.95
597.718,1032.5
598.251,1031.15
598.783,1032.55
599.316,1033.3
599.848,1033.7
600.38,1031.35
600.912,1027.35
601.444,1028.15
601.976,1024.6
602.508,1027.3
603.04,1029.35
603.572,1028.4
604.103,1023.0
604.635,1022.0
605.167,1020.35
605.698,1017.65
606.229,1020.2
606.761,1017.35
607.292,1015.3
607.823,1015.25
608.354,1018.7
608.885,1015.0
609.416,1019.7
609.947,1016.35
610.477,1016.15
611.008,1013.5
611.539,1013.5
612.069,1012.45
612.6,1019.05
613.13,1015.25
613.66,1019.25
614.19,1018.4
614.721,1018.4
615.251,1014.05
615.781,1018.7
616.311,1013.75
616.841,1016.55
617.37,1014.5
617.9,1013.2
618.43,1014.05
618.96,1007.95
619.489,1009.95
620.019,1010.3
620.548,1007.9
621.077,1007.4
621.607,1006.3
622.136,1007.8
622.665,1011.2
623.194,1014.3
623.723,1012.95
624.252,1007.25
624.781,1012.85
625.31,1005.2
625.839,1005.65
626.368,1002.1
626.896,1003.6
627.425,1004.45
627.953,1011.55
628.482,1034.3
629.01,1026.05
629.539,1029.35
630.067,1028.35
630.596,1056.15
631.124,1205.65
631.652,1098.0
632.18,1050.9
632.708,1038.95
633.236,1081.1
633.764,1059.15
634.292,1020.65
634.82,997.1
635.348,996.75
635.876,994.1
636.403,992.35
636.931,988.85
637.459,989.25
637.986,987.25
638.514,984.65
639.041,986.7
639.568,986.2
640.096,987.1
640.623,982.5
641.15,985.6
641.678,983.65
642.205,981.2
642.732,980.2
643.259,980.6
643.786,975.6
644.313,971.75
644.84,971.85
645.367,971.0
645.894,969.4
646.421,971.65
646.948,967.6
647.474,970.8
648.001,966.85
648.528,965.0
649.054,964.5
649.581,966.45
650.108,962.1
650.634,961.8
651.161,958.4
651.687,962.05
652.214,959.0
652.74,962.45
653.266,957.9
653.793,959.35
654.319,956.1
654.845,955.15
655.371,956.55
655.897,953.25
656.424,954.95
656.95,952.9
657.476,950.7
658.002,955.55
658.528,955.95
659.054,953.35
659.58,953.35
660.106,949.8
660.631,949.95
661.157,948.6
661.683,946.9
662.209,945.95
662.735,944.05
663.129,945.0

File: VLFR_08-PLA_bio_Raman_65a394bd.csv
nm,Intensity
526.495,829.6
527.042,829.1
527.589,828.2
528.136,828.6
528.682,828.0
529.229,829.1
529.775,829.4
530.321,829.6
530.867,828.5
531.413,829.1
531.959,832.3
532.505,828.9
533.051,828.4
533.596,830.6
534.141,1082.3
534.687,1037.1
535.232,998.0
535.777,984.0
536.321,981.2
536.866,986.6
537.41,975.3
537.955,981.7
538.499,970.8
539.043,966.3
539.587,962.3
540.131,957.2
540.675,976.6
541.219,981.1
541.762,964.4
542.305,966.6
542.849,970.8
543.392,991.8
543.935,1003.5
544.478,982.5
545.02,976.3
545.563,974.3
546.106,970.2
546.648,980.9
547.19,976.4
547.732,980.8
548.274,983.1
548.816,988.6
549.358,982.9
549.9,983.6
550.441,989.7
550.983,993.0
551.524,994.2
552.065,998.1
552.606,1002.4
553.147,1002.9
553.688,1001.9
554.229,1012.4
554.769,1007.5
555.31,1002.5
555.85,995.1
556.391,998.1
556.931,1000.6
557.471,1019.5
558.011,1135.4
558.551,1037.9
559.09,1015.9
559.63,1012.5
560.169,1015.5
560.709,1016.3
561.248,1010.0
561.787,1012.0
562.326,1010.4
562.865,1026.2
563.404,1052.2
563.943,1039.0
564.481,1035.0
565.02,1049.0
565.558,1047.9
566.096,1078.2
566.634,1045.4
567.172,1027.4
567.71,1030.1
568.248,1032.5
568.786,1034.9
569.324,1039.3
569.861,1037.4
570.399,1033.5
570.936,1038.1
571.473,1051.3
572.01,1056.4
572.547,1053.9
573.084,1055.9
573.621,1061.5
574.158,1059.7
574.694,1068.6
575.231,1046.5
575.767,1052.1
576.303,1068.7
576.84,1119.7
577.376,1072.7
577.912,1052.4
578.448,1054.9
578.984,1056.0
579.519,1048.5
580.055,1052.2
580.59,1055.9
581.126,1058.8
581.661,1060.5
582.196,1057.0
582.731,1058.9
583.267,1064.6
583.801,1065.6
584.336,1059.8
584.871,1062.9
585.406,1071.5
585.94,1059.5
586.475,1086.7
587.009,1109.6
587.543,1136.1
588.078,1088.3
588.612,1068.2
589.146,1063.7
589.68,1061.2
590.214,1070.2
590.747,1063.2
591.281,1062.2
591.815,1062.7
592.348,1062.5
592.881,1061.9
593.415,1058.6
593.948,1062.8
594.481,1062.8
595.014,1067.6
595.547,1067.0
596.08,1063.6
596.613,1069.1
597.146,1067.3
597.678,1063.4
598.211,1068.9
598.743,1074.9
599.276,1072.1
599.808,1070.8
600.34,1070.8
600.872,1068.8
601.404,1069.9
601.936,1067.2
602.468,1066.7
603.0,1065.0
603.532,1072.0
604.064,1069.6
604.595,1065.4
605.127,1062.4
605.658,1055.0
606.189,1061.8
606.721,1058.8
607.252,1057.8
607.783,1060.8
608.314,1057.0
608.845,1059.7
609.376,1059.5
609.907,1054.6
610.438,1052.7
610.968,1054.2
611.499,1058.6
612.029,1059.8
612.56,1064.0
613.09,1061.6
613.621,1063.1
614.151,1067.4
614.681,1067.2
615.211,1065.1
615.741,1059.5
616.271,1057.4
616.801,1060.4
617.331,1062.1
617.861,1062.6
618.39,1063.3
618.92,1060.0
619.45,1056.2
619.979,1055.7
620.509,1054.2
621.038,1060.4
621.567,1059.0
622.096,1059.8
622.626,1065.1
623.155,1069.4
623.684,1064.0
624.213,1062.1
624.742,1058.1
625.271,1058.0
625.799,1057.3
626.328,1057.2
626.857,1055.2
627.386,1052.3
627.914,1066.4
628.443,1133.8
628.971,1122.4
629.5,1123.7
630.028,1127.1
630.556,1189.1
631.084,1597.7
631.613,1332.9
632.141,1197.1
632.669,1167.3
633.197,1262.6
633.725,1224.0
634.253,1124.4
634.781,1069.5
635.308,1056.2
635.836,1047.6
636.364,1050.2
636.891,1043.4
637.419,1037.0
637.947,1040.3
638.474,1039.6
639.002,1034.3
639.529,1034.5
640.056,1028.5
640.584,1035.9
641.111,1036.7
641.638,1036.6
642.165,1031.3
642.692,1034.7
643.219,1031.7
643.746,1024.8
644.273,1021.6
644.8,1021.0
645.327,1016.8
645.854,1023.6
646.381,1019.2
646.908,1018.9
647.434,1019.0
647.961,1017.3
648.488,1017.6
649.014,1019.1
649.541,1014.3
650.067,1009.3
650.594,1011.4
651.12,1008.6
651.646,1012.6
652.173,1007.5
652.699,1006.7
653.225,1005.9
653.752,1006.6
654.278,1006.6
654.804,1005.3
655.33,1003.9
655.856,1004.4
656.382,1006.0
656.908,1004.8
657.434,1001.9
657.96,1001.1
658.486,1004.6
659.012,1000.0
659.538,1002.3
660.064,999.7
660.589,1000.7
661.115,995.0
661.641,992.2
662.166,996.2
662.692,992.5
663.086,992.4

File: VLFR_08-PLA_bio_Raman_68be2a65.csv
nm,Intensity
526.547,832.4
527.095,832.4
527.642,832.0
528.189,831.85
528.736,832.0
529.283,832.15
529.829,832.75
530.376,833.7
530.922,832.1
531.468,832.05
532.014,833.1
532.56,832.0
533.106,832.8
533.651,833.6
534.196,926.0
534.742,905.15
535.287,898.0
535.832,895.35
536.376,891.7
536.921,889.55
537.465,889.15
538.01,886.25
538.554,881.75
539.098,882.4
539.642,881.55
540.186,879.1
540.729,888.55
541.273,886.65
541.816,884.85
542.36,883.7
542.903,885.65
543.446,894.85
543.988,911.05
544.531,892.3
545.074,885.1
545.616,886.3
546.158,886.25
546.701,892.05
547.243,887.9
547.785,884.25
548.326,886.55
548.868,887.3
549.41,889.35
549.951,888.5
550.492,892.05
551.034,888.25
551.575,890.5
552.116,889.45
552.656,888.45
553.197,891.7
553.738,892.4
554.278,892.75
554.819,888.8
555.359,887.9
555.899,886.15
556.439,885.35
556.979,888.3
557.519,893.7
558.058,936.85
558.598,897.05
559.137,892.95
559.677,891.4
560.216,889.85
560.755,891.95
561.294,889.35
561.833,892.95
562.371,1008.3
562.91,895.8
563.449,906.85
563.987,897.75
564.525,896.75
565.064,906.2
565.602,903.0
566.14,914.75
566.678,910.1
567.216,896.0
567.753,895.85
568.291,897.75
568.828,898.15
569.366,901.6
569.903,898.35
570.44,900.25
570.977,900.2
571.514,910.55
572.051,909.25
572.588,904.9
573.125,906.95
573.661,910.5
574.198,907.35
574.734,913.95
575.271,906.4
575.807,906.5
576.343,914.3
576.879,936.0
577.415,916.55
577.951,908.55
578.486,908.15
579.022,909.95
579.557,908.1
580.093,909.7
580.628,908.45
581.164,910.15
581.699,910.9
582.234,911.0
582.769,915.6
583.304,914.9
583.838,912.45
584.373,915.75
584.908,912.85
585.442,916.85
585.977,916.05
586.511,920.05
587.045,935.25
587.58,946.05
588.114,923.4
588.648,916.15
589.182,913.0
589.715,912.75
590.249,911.95
590.783,913.1
591.316,914.35
591.85,915.1
592.383,912.6
592.917,914.4
593.45,910.05
593.983,908.4
594.516,912.15
595.049,909.95
595.582,912.0
596.115,913.75
596.648,912.75
597.18,912.05
597.713,912.0
598.245,910.35
598.778,911.85
599.31,908.1
599.842,910.2
600.375,908.9
600.907,906.2
601.439,909.0
601.971,906.45
602.503,906.8
603.034,904.95
603.566,905.1
604.098,905.55
604.629,905.85
605.161,902.3
605.692,904.75
606.224,904.2
606.755,903.65
607.286,901.7
607.817,902.05
608.348,901.8
608.879,904.1
609.41,904.15
609.941,901.6
610.472,899.0
611.002,900.65
611.533,902.95
612.063,898.8
612.594,902.45
613.124,903.05
613.655,902.5
614.185,902.05
614.715,903.5
615.245,902.1
615.775,900.8
616.305,900.95
616.835,905.35
617.365,903.35
617.895,902.65
618.425,902.05
618.954,904.95
619.484,904.15
620.013,902.75
620.543,900.85
621.072,900.45
621.602,905.2
622.131,906.0
622.66,908.4
623.189,910.4
623.718,908.75
624.247,908.15
624.776,903.7
625.305,903.65
625.834,906.4
626.363,906.05
626.891,907.35
627.42,906.8
627.949,910.85
628.477,942.95
629.006,932.35
629.534,936.15
630.062,936.75
630.591,965.2
631.119,1140.2
631.647,1018.95
632.175,967.6
632.703,955.35
633.231,998.1
633.759,980.75
634.287,938.5
634.815,915.15
635.343,908.95
635.871,907.2
636.398,906.4
636.926,905.7
637.454,903.75
637.981,902.1
638.509,904.65
639.036,901.65
639.564,903.9
640.091,902.05
640.618,904.5
641.146,905.35
641.673,904.35
642.2,901.8
642.727,904.15
643.254,904.75
643.781,904.15
644.308,900.75
644.835,899.3
645.362,901.15
645.889,899.8
646.416,901.05
646.942,901.55
647.469,901.35
647.996,900.35
648.522,904.95
649.049,908.4
649.576,922.95
650.102,925.25
650.629,912.0
651.155,902.75
651.682,901.35
652.208,896.55
652.734,896.95
653.261,892.6
653.787,891.55
654.313,892.5
654.839,891.1
655.365,891.45
655.892,889.2
656.418,890.2
656.944,889.2
657.47,885.95
657.996,891.25
658.522,886.55
659.048,886.5
659.574,886.3
660.099,886.65
660.625,886.75
661.151,882.65
661.677,884.2
662.203,884.1
662.728,884.95
663.123,883.4