Folder: MPX_specDB/spectra (part 45)

File: VLFR_02-HDPE_bio_Raman_a3166cab.csv
nm,Intensity
526.494,835.2
527.041,834.4
527.588,834.4
528.135,832.6
528.682,833.2
529.229,834.5
529.775,834.4
530.321,834.3
530.868,834.9
531.414,835.5
531.96,843.8
532.506,835.4
533.051,833.3
533.597,835.0
534.142,877.5
534.687,877.5
535.232,875.9
535.777,859.1
536.322,852.2
536.867,853.3
537.411,851.6
537.956,850.8
538.5,851.9
539.044,849.3
539.588,847.7
540.132,847.4
540.676,844.9
541.22,847.5
541.763,846.7
542.306,847.4
542.85,847.3
543.393,847.1
543.936,847.6
544.479,845.9
545.021,846.2
545.564,846.8
546.106,847.6
546.649,847.5
547.191,846.2
547.733,846.5
548.275,845.6
548.817,846.6
549.359,845.2
549.9,846.5
550.442,848.5
550.983,848.5
551.524,847.1
552.066,847.6
552.607,845.1
553.148,848.6
553.688,849.6
554.229,849.0
554.77,848.9
555.31,850.2
555.85,848.1
556.39,851.2
556.931,852.2
557.471,854.0
558.01,851.4
558.55,855.0
559.09,852.0
559.629,852.5
560.169,851.2
560.708,853.3
561.247,853.3
561.786,853.8
562.325,852.4
562.864,854.8
563.403,854.7
563.941,905.9
564.48,865.6
565.018,862.6
565.557,859.1
566.095,896.2
566.633,862.5
567.171,859.2
567.709,859.8
568.247,853.7
568.784,853.9
569.322,855.1
569.859,855.7
570.397,857.3
570.934,859.5
571.471,940.0
572.008,870.8
572.545,858.7
573.082,857.8
573.619,854.8
574.155,863.0
574.692,853.6
575.228,856.0
575.765,881.6
576.301,955.7
576.837,907.5
577.373,889.9
577.909,861.6
578.445,855.7
578.981,859.0
579.516,856.4
580.052,858.6
580.587,853.7
581.123,854.2
581.658,857.3
582.193,856.6
582.728,858.4
583.263,856.0
583.798,856.7
584.333,857.6
584.868,858.7
585.402,858.2
585.937,857.9
586.471,861.1
587.005,861.4
587.54,862.5
588.074,862.7
588.608,864.7
589.142,861.6
589.676,863.3
590.21,864.9
590.743,866.0
591.277,864.8
591.81,868.1
592.344,868.4
592.877,865.0
593.411,865.7
593.944,867.5
594.477,866.0
595.01,867.2
595.543,866.5
596.076,869.2
596.608,867.5
597.141,867.3
597.674,870.5
598.206,870.8
598.739,868.9
599.271,867.9
599.803,868.4
600.335,869.5
600.868,868.8
601.4,870.5
601.931,871.7
602.463,874.2
602.995,872.4
603.527,871.8
604.058,870.5
604.59,870.2
605.121,871.1
605.653,869.6
606.184,870.0
606.715,868.9
607.246,869.6
607.778,868.9
608.309,870.5
608.839,870.6
609.37,869.8
609.901,868.5
610.432,869.6
610.962,867.0
611.493,869.8
612.023,869.1
612.554,871.9
613.084,869.0
613.614,868.1
614.145,868.6
614.675,869.1
615.205,871.5
615.735,870.4
616.265,869.5
616.795,874.4
617.324,876.1
617.854,877.2
618.384,875.6
618.913,872.7
619.443,878.4
619.972,878.1
620.502,878.1
621.031,882.0
621.56,892.5
622.089,915.9
622.618,909.1
623.147,885.7
623.676,879.4
624.205,875.1
624.734,877.9
625.263,878.6
625.792,885.7
626.32,907.3
626.849,1127.4
627.377,1471.7
627.906,1210.4
628.434,1428.6
628.963,1233.4
629.491,1140.2
630.019,1051.1
630.547,1028.7
631.076,941.1
631.604,891.3
632.132,879.6
632.66,878.8
633.188,874.2
633.715,872.3
634.243,871.1
634.771,862.8
635.299,867.2
635.826,865.4
636.354,865.7
636.881,864.7
637.409,861.7
637.936,860.6
638.464,861.8
638.991,862.7
639.518,860.6
640.045,859.4
640.573,861.0
641.1,859.5
641.627,862.0
642.154,861.3
642.681,859.6
643.208,861.8
643.735,862.5
644.261,860.2
644.788,857.7
645.315,858.8
645.842,859.4
646.368,858.1
646.895,858.8
647.421,860.8
647.948,859.1
648.474,860.9
649.001,859.6
649.527,859.4
650.054,858.0
650.58,858.3
651.106,860.1
651.633,857.5
652.159,861.0
652.685,859.0
653.211,858.1
653.737,858.3
654.263,857.8
654.789,858.2
655.315,857.9
655.841,857.8
656.367,858.2
656.893,858.0
657.419,857.5
657.945,855.8
658.47,858.0
658.996,858.3
659.522,857.7
660.047,860.5
660.573,856.5
661.099,856.1
661.624,856.8
662.15,854.9
662.675,854.4
663.07,856.1

File: VLFR_02-HDPE_bio_Raman_aaa86eb5.csv
nm,Intensity
528.65,1834.35
529.155,1835.0
529.66,1834.3
530.165,1835.0
530.67,1835.75
531.175,1836.9
531.68,1867.4
532.185,3722.75
532.69,1835.55
533.194,1836.15
533.699,1872.7
534.204,2024.8
534.708,2018.9
535.213,2025.95
535.717,2022.2
536.222,2021.4
536.726,2030.5
537.231,2031.3
537.735,2041.3
538.239,2037.25
538.743,2036.35
539.247,2041.3
539.751,2048.6
540.255,2044.05
540.759,2054.45
541.263,2052.45
541.767,2056.0
542.271,2066.25
542.775,2071.9
543.279,2064.9
543.782,2060.55
544.286,2074.4
544.789,2075.25
545.293,2081.0
545.796,2085.35
546.3,2096.45
546.803,2093.2
547.306,2099.95
547.81,2099.8
548.313,2101.35
548.816,2119.3
549.319,2114.15
549.822,2112.8
550.325,2113.1
550.828,2125.4
551.331,2131.95
551.834,2135.3
552.337,2133.05
552.839,2144.85
553.342,2131.35
553.844,2144.45
554.347,2152.05
554.849,2149.6
555.352,2157.5
555.854,2165.9
556.357,2164.7
556.859,2161.95
557.361,2166.2
557.863,2170.15
558.365,2165.1
558.867,2169.7
559.369,2175.25
559.871,2187.35
560.373,2191.75
560.875,2195.9
561.377,2186.6
561.878,2202.1
562.38,2207.4
562.881,2203.8
563.383,2207.75
563.884,2239.25
564.386,2210.05
564.887,2224.75
565.388,2221.5
565.89,2244.6
566.391,2251.9
566.892,2232.25
567.393,2239.35
567.894,2231.6
568.395,2241.75
568.896,2243.55
569.396,2244.05
569.897,2240.5
570.398,2250.1
570.898,2252.3
571.399,2281.15
571.9,2276.45
572.4,2265.5
572.9,2250.1
573.401,2263.95
573.901,2272.2
574.401,2265.55
574.901,2268.7
575.401,2297.6
575.901,2296.9
576.401,2315.7
576.901,2296.2
577.401,2294.85
577.901,2295.25
578.4,2272.15
578.9,2282.25
579.399,2276.8
579.899,2295.25
580.398,2290.95
580.898,2301.0
581.397,2291.55
581.896,2293.5
582.395,2296.65
582.895,2292.65
583.394,2289.85
583.893,2302.95
584.391,2305.15
584.89,2304.05
585.389,2291.0
585.888,2286.85
586.386,2300.25
586.885,2305.35
587.384,2301.35
587.882,2309.1
588.38,2312.9
588.879,2311.9
589.377,2307.55
589.875,2297.0
590.373,2309.35
590.871,2298.85
591.369,2312.1
591.867,2313.6
592.365,2312.3
592.863,2322.0
593.361,2305.65
593.858,2304.3
594.356,2307.75
594.853,2306.2
595.351,2321.15
595.848,2303.3
596.345,2318.25
596.843,2323.8
597.34,2317.8
597.837,2325.3
598.334,2310.8
598.831,2333.65
599.328,2325.7
599.824,2335.2
600.321,2326.85
600.818,2341.0
601.314,2348.15
601.811,2347.65
602.307,2336.05
602.804,2343.55
603.3,2334.95
603.796,2341.4
604.293,2323.25
604.789,2329.3
605.285,2340.35
605.781,2333.25
606.277,2331.3
606.772,2326.55
607.268,2338.15
607.764,2335.95
608.259,2337.7
608.755,2325.3
609.25,2320.6
609.746,2332.55
610.241,2337.1
610.736,2337.8
611.231,2341.95
611.727,2338.75
612.222,2324.2
612.716,2344.55
613.211,2325.45
613.706,2333.15
614.201,2329.6
614.695,2326.95
615.19,2327.75
615.684,2339.95
616.179,2327.65
616.673,2305.55
617.168,2314.8
617.662,2325.7
618.156,2344.95
618.65,2338.3
619.144,2316.5
619.638,2326.75
620.131,2341.75
620.625,2327.9
621.119,2335.65
621.612,2334.0
622.106,2339.8
622.599,2344.55
623.093,2332.9
623.586,2336.15
624.079,2325.05
624.572,2332.2
625.065,2337.5
625.558,2311.7
626.051,2334.1
626.544,2362.6
627.037,2516.8
627.529,2501.2
628.022,2473.4
628.514,2578.55
629.007,2460.5
629.499,2408.55
629.991,2368.35
630.483,2380.7
630.976,2338.2
631.468,2321.2
631.959,2299.75
632.451,2306.35
632.943,2302.0
633.435,2298.5
633.926,2299.35
634.418,2287.65
634.909,2287.0
635.401,2275.4
635.892,2266.65
636.383,2282.2
636.874,2265.85
637.365,2277.5
637.856,2276.55
638.347,2268.85
638.838,2271.9
639.329,2260.8
639.819,2255.85
640.31,2271.4
640.8,2262.4
641.291,2261.6
641.781,2247.8
642.271,2250.35
642.761,2263.35
643.251,2253.65
643.741,2261.65
644.231,2255.75
644.721,2246.9
645.211,2247.6
645.7,2255.05
646.19,2245.75
646.679,2253.6
647.169,2257.7
647.658,2239.9
648.147,2238.3
648.636,2241.65
649.125,2236.7
649.614,2217.65
650.103,2230.4
650.592,2259.05
651.08,2237.0
651.569,2230.3
652.058,2222.7
652.546,2211.0
653.034,2218.2
653.523,2197.4
654.011,2187.95
654.499,2179.45
654.987,2182.55
655.475,2173.9
655.963,2165.85
656.45,2154.85
656.938,2157.0
657.425,2148.55
657.913,2140.45
658.4,2142.0
658.888,2131.55
659.375,2110.35
659.862,2111.8
660.349,2108.6
660.836,2108.15
661.079,2105.9

File: VLFR_02-HDPE_bio_Raman_ab3e7439.csv
nm,Intensity
526.508,831.5
527.055,831.0
527.602,830.0
528.149,829.7
528.695,830.0
529.241,829.3
529.787,829.6
530.334,830.4
530.879,828.8
531.425,830.1
531.971,834.5
532.516,831.2
533.062,829.1
533.607,829.6
534.152,925.1
534.697,909.2
535.242,893.7
535.786,883.8
536.331,875.0
536.876,870.1
537.42,872.5
537.964,866.0
538.508,866.2
539.052,862.0
539.596,861.3
540.14,857.6
540.683,856.5
541.227,856.6
541.77,857.8
542.313,857.0
542.856,856.0
543.399,857.7
543.942,855.9
544.485,858.0
545.027,856.6
545.57,855.6
546.112,857.1
546.654,857.4
547.196,858.4
547.738,859.2
548.28,856.7
548.822,857.5
549.363,856.0
549.905,858.3
550.446,857.7
550.988,856.4
551.529,856.9
552.07,858.5
552.611,856.9
553.152,859.7
553.692,862.0
554.233,859.5
554.773,860.7
555.314,861.1
555.854,861.7
556.394,862.6
556.934,865.0
557.474,868.2
558.014,869.7
558.553,872.3
559.093,866.1
559.632,867.6
560.172,865.7
560.711,865.9
561.25,866.8
561.789,869.7
562.328,870.8
562.867,873.5
563.406,877.6
563.944,977.7
564.483,902.4
565.021,894.3
565.559,892.7
566.098,1113.9
566.636,900.6
567.174,883.0
567.711,875.8
568.249,875.4
568.787,880.9
569.324,876.3
569.862,877.9
570.399,884.3
570.936,890.0
571.474,1062.7
572.011,913.1
572.548,887.8
573.084,883.6
573.621,885.7
574.158,899.9
574.694,883.9
575.231,901.6
575.767,1017.3
576.303,1008.2
576.84,977.8
577.376,939.1
577.912,908.5
578.447,905.5
578.983,901.7
579.519,909.6
580.054,914.3
580.59,920.8
581.125,927.1
581.661,933.7
582.196,944.3
582.731,954.5
583.266,958.2
583.801,968.0
584.336,979.2
584.87,986.4
585.405,994.1
585.94,1010.3
586.474,1019.5
587.008,1025.1
587.543,1037.5
588.077,1051.6
588.611,1062.5
589.145,1065.3
589.679,1077.9
590.213,1085.1
590.747,1092.6
591.28,1104.9
591.814,1109.4
592.347,1110.5
592.881,1116.0
593.414,1113.3
593.947,1120.7
594.48,1117.8
595.014,1129.3
595.547,1127.3
596.079,1130.4
596.612,1133.5
597.145,1139.8
597.678,1141.6
598.21,1149.0
598.743,1151.7
599.275,1162.4
599.807,1169.1
600.34,1165.3
600.872,1161.2
601.404,1157.7
601.936,1157.7
602.468,1148.4
603.0,1143.9
603.532,1142.8
604.063,1140.4
604.595,1132.0
605.126,1114.5
605.658,1099.5
606.189,1098.0
606.721,1089.9
607.252,1085.6
607.783,1075.9
608.314,1072.6
608.845,1067.5
609.376,1063.8
609.907,1062.9
610.438,1053.6
610.968,1051.2
611.499,1045.1
612.03,1040.4
612.56,1038.1
613.091,1036.6
613.621,1034.5
614.151,1025.7
614.681,1022.2
615.212,1017.1
615.742,1008.7
616.272,1012.0
616.802,1003.6
617.332,1005.0
617.861,1009.3
618.391,999.7
618.921,999.3
619.45,995.6
619.98,997.3
620.509,996.7
621.039,993.4
621.568,999.7
622.097,1019.5
622.627,1015.1
623.156,990.2
623.685,984.4
624.214,983.2
624.743,981.4
625.272,987.9
625.801,989.2
626.33,1016.3
626.858,1211.3
627.387,1661.5
627.916,1354.5
628.444,1465.3
628.973,1433.8
629.501,1331.1
630.029,1229.3
630.558,1211.6
631.086,1083.1
631.614,1017.0
632.142,995.7
632.67,987.4
633.198,986.1
633.726,982.3
634.254,980.6
634.782,977.7
635.31,982.7
635.838,982.7
636.365,985.8
636.893,989.3
637.421,989.8
637.948,992.8
638.476,990.4
639.003,993.6
639.531,999.5
640.058,995.9
640.585,998.4
641.113,1000.4
641.64,999.5
642.167,1001.1
642.694,1007.4
643.221,1003.9
643.748,1007.7
644.275,1010.7
644.802,1005.1
645.329,1008.0
645.856,1006.7
646.382,1005.5
646.909,1009.7
647.436,1005.2
647.962,1006.9
648.489,1000.0
649.016,1007.8
649.542,1005.4
650.069,1001.8
650.595,1007.3
651.121,1002.3
651.648,998.4
652.174,1007.8
652.7,998.2
653.227,996.2
653.753,1001.4
654.279,997.8
654.805,993.2
655.331,992.9
655.857,990.6
656.383,990.8
656.909,985.9
657.435,987.4
657.961,980.8
658.487,982.3
659.013,974.8
659.538,974.6
660.064,968.3
660.59,963.8
661.116,961.7
661.641,961.9
662.167,952.2
662.692,948.2
663.087,947.2

File: VLFR_02-HDPE_bio_Raman_ac76474d.csv
nm,Intensity
526.547,832.65
527.095,832.3
527.642,832.35
528.189,831.3
528.736,833.25
529.283,832.95
529.829,832.65
530.376,831.75
530.922,831.8
531.468,832.5
532.014,834.45
532.56,832.7
533.106,833.1
533.651,833.65
534.196,898.2
534.742,902.25
535.287,892.85
535.832,867.75
536.376,858.85
536.921,855.35
537.465,855.6
538.01,855.25
538.554,852.25
539.098,850.2
539.642,848.5
540.186,847.1
540.729,845.65
541.273,846.65
541.816,846.05
542.36,846.5
542.903,848.8
543.446,845.45
543.988,846.35
544.531,846.65
545.074,846.3
545.616,845.65
546.158,846.6
546.701,845.75
547.243,846.1
547.785,846.95
548.326,845.75
548.868,846.0
549.41,845.9
549.951,846.9
550.492,847.5
551.034,844.95
551.575,845.15
552.116,847.4
552.656,846.05
553.197,847.2
553.738,849.85
554.278,849.5
554.819,848.9
555.359,849.5
555.899,851.85
556.439,851.65
556.979,853.25
557.519,854.6
558.058,855.15
558.598,855.15
559.137,855.3
559.677,854.25
560.216,855.8
560.755,853.35
561.294,852.95
561.833,854.4
562.371,856.4
562.91,858.6
563.449,860.6
563.987,960.8
564.525,875.05
565.064,868.1
565.602,866.15
566.14,937.05
566.678,864.55
567.216,864.1
567.753,865.25
568.291,858.45
568.828,857.4
569.366,858.3
569.903,858.55
570.44,862.85
570.977,868.75
571.514,1030.65
572.051,883.1
572.588,864.85
573.125,861.1
573.661,863.1
574.198,868.45
574.734,860.7
575.271,865.15
575.807,895.25
576.343,1017.5
576.879,944.15
577.415,910.75
577.951,872.0
578.486,866.1
579.022,865.2
579.557,864.35
580.093,866.25
580.628,864.05
581.164,865.0
581.699,865.05
582.234,863.4
582.769,867.0
583.304,865.5
583.838,865.1
584.373,865.95
584.908,865.85
585.442,867.05
585.977,866.55
586.511,868.55
587.045,865.55
587.58,867.85
588.114,869.3
588.648,867.55
589.182,869.1
589.715,871.0
590.249,869.8
590.783,869.7
591.316,869.55
591.85,871.2
592.383,871.85
592.917,869.9
593.45,872.35
593.983,874.35
594.516,874.25
595.049,876.0
595.582,876.15
596.115,878.45
596.648,877.6
597.18,879.2
597.713,882.55
598.245,882.25
598.778,882.4
599.31,886.75
599.842,883.85
600.375,885.95
600.907,887.2
601.439,888.2
601.971,891.1
602.503,888.4
603.034,886.45
603.566,885.95
604.098,886.3
604.629,885.6
605.161,883.75
605.692,882.3
606.224,880.35
606.755,880.45
607.286,880.95
607.817,876.5
608.348,879.8
608.879,876.05
609.41,875.1
609.941,876.0
610.472,875.1
611.002,874.55
611.533,875.95
612.063,874.7
612.594,874.8
613.124,873.1
613.655,875.55
614.185,874.3
614.715,873.95
615.245,873.75
615.775,875.75
616.305,875.0
616.835,880.05
617.365,885.05
617.895,883.95
618.425,883.85
618.954,882.0
619.484,886.5
620.013,890.25
620.543,889.65
621.072,895.7
621.602,917.05
622.131,953.4
622.66,940.45
623.189,901.15
623.718,889.1
624.247,888.3
624.776,890.4
625.305,892.6
625.834,904.0
626.363,948.6
626.891,1360.65
627.42,1825.45
627.949,1428.5
628.477,1874.95
629.006,1378.35
629.534,1260.05
630.062,1140.2
630.591,1111.55
631.119,974.3
631.647,904.6
632.175,893.15
632.703,885.35
633.231,884.1
633.759,880.35
634.287,876.45
634.815,873.1
635.343,871.1
635.871,870.65
636.398,869.9
636.926,869.7
637.454,866.15
637.981,866.95
638.509,864.75
639.036,863.1
639.564,862.4
640.091,863.0
640.618,864.55
641.146,862.5
641.673,864.8
642.2,863.3
642.727,861.6
643.254,860.95
643.781,861.5
644.308,862.0
644.835,861.45
645.362,859.7
645.889,861.3
646.416,862.35
646.942,862.1
647.469,861.0
647.996,859.75
648.522,859.45
649.049,860.6
649.576,859.95
650.102,859.3
650.629,859.85
651.155,861.35
651.682,858.95
652.208,860.1
652.734,859.7
653.261,859.5
653.787,860.2
654.313,858.8
654.839,860.3
655.365,858.9
655.892,859.6
656.418,859.65
656.944,857.9
657.47,858.55
657.996,858.35
658.522,859.15
659.048,858.85
659.574,858.85
660.099,861.5
660.625,858.15
661.151,859.75
661.677,857.25
662.203,855.55
662.728,856.25
663.123,854.0

File: VLFR_02-HDPE_bio_Raman_add7e25f.csv
nm,Intensity
526.508,828.9
527.055,828.6
527.602,829.4
528.149,829.2
528.695,829.6
529.241,827.3
529.787,829.4
530.334,830.6
530.879,830.3
531.425,829.0
531.971,834.6
532.516,831.9
533.062,829.3
533.607,828.5
534.152,845.0
534.697,844.8
535.242,845.8
535.786,843.4
536.331,843.3
536.876,842.6
537.42,843.0
537.964,842.1
538.508,843.7
539.052,844.3
539.596,843.5
540.14,845.3
540.683,843.0
541.227,843.4
541.77,843.4
542.313,845.9
542.856,845.0
543.399,846.3
543.942,847.1
544.485,845.1
545.027,846.4
545.57,847.0
546.112,847.0
546.654,849.7
547.196,846.2
547.738,847.2
548.28,847.3
548.822,848.9
549.363,848.6
549.905,846.9
550.446,846.7
550.988,846.5
551.529,850.3
552.07,847.1
552.611,849.6
553.152,846.1
553.692,848.5
554.233,849.2
554.773,849.8
555.314,847.0
555.854,846.8
556.394,849.1
556.934,847.2
557.474,848.0
558.014,847.7
558.553,847.6
559.093,850.1
559.632,847.6
560.172,849.6
560.711,848.8
561.25,849.9
561.789,849.2
562.328,848.6
562.867,850.5
563.406,849.8
563.944,855.9
564.483,851.2
565.021,849.9
565.559,850.8
566.098,857.5
566.636,852.3
567.174,851.6
567.711,853.6
568.249,849.1
568.787,852.9
569.324,851.5
569.862,852.1
570.399,851.3
570.936,853.5
571.474,860.9
572.011,855.1
572.548,855.1
573.084,854.3
573.621,853.6
574.158,856.4
574.694,855.2
575.231,855.4
575.767,862.1
576.303,860.4
576.84,862.0
577.376,859.2
577.912,860.7
578.447,859.2
578.983,858.8
579.519,863.9
580.054,862.1
580.59,862.3
581.125,863.6
581.661,866.4
582.196,868.4
582.731,871.3
583.266,869.9
583.801,873.8
584.336,877.1
584.87,879.0
585.405,880.8
585.94,885.3
586.474,886.4
587.008,891.1
587.543,892.6
588.077,897.3
588.611,904.3
589.145,902.9
589.679,909.2
590.213,915.7
590.747,916.0
591.28,921.3
591.814,925.7
592.347,932.2
592.881,938.6
593.414,936.6
593.947,944.3
594.48,948.6
595.014,954.3
595.547,963.1
596.079,964.8
596.612,974.2
597.145,981.7
597.678,991.3
598.21,997.1
598.743,1003.4
599.275,1012.3
599.807,1011.1
600.34,1011.4
600.872,1013.5
601.404,1008.5
601.936,1011.3
602.468,1012.3
603.0,1009.4
603.532,1002.6
604.063,1000.4
604.595,992.6
605.126,987.2
605.658,979.4
606.189,970.4
606.721,968.8
607.252,965.0
607.783,963.2
608.314,961.6
608.845,957.3
609.376,951.7
609.907,947.2
610.438,942.5
610.968,939.6
611.499,935.5
612.03,936.0
612.56,937.7
613.091,930.9
613.621,930.1
614.151,930.6
614.681,924.9
615.212,920.7
615.742,917.9
616.272,917.8
616.802,911.7
617.332,916.1
617.861,915.8
618.391,909.8
618.921,910.6
619.45,904.5
619.98,906.3
620.509,903.1
621.039,901.9
621.568,903.7
622.097,899.3
622.627,900.3
623.156,899.2
623.685,897.2
624.214,895.6
624.743,895.0
625.272,893.1
625.801,893.4
626.33,894.4
626.858,899.8
627.387,918.1
627.916,905.0
628.444,910.5
628.973,906.7
629.501,902.5
630.029,896.0
630.558,893.1
631.086,890.0
631.614,883.9
632.142,884.7
632.67,886.3
633.198,883.8
633.726,881.9
634.254,884.6
634.782,885.8
635.31,884.9
635.838,886.4
636.365,888.5
636.893,886.3
637.421,887.1
637.948,881.5
638.476,886.2
639.003,890.8
639.531,887.6
640.058,888.1
640.585,889.1
641.113,893.5
641.64,893.0
642.167,892.0
642.694,897.2
643.221,896.4
643.748,898.6
644.275,896.7
644.802,900.0
645.329,900.3
645.856,901.7
646.382,901.8
646.909,903.1
647.436,904.2
647.962,902.4
648.489,905.2
649.016,906.6
649.542,906.5
650.069,908.6
650.595,909.9
651.121,908.9
651.648,911.2
652.174,911.6
652.7,914.3
653.227,913.7
653.753,915.1
654.279,913.5
654.805,916.9
655.331,914.0
655.857,915.8
656.383,910.1
656.909,911.4
657.435,910.3
657.961,908.8
658.487,907.2
659.013,905.2
659.538,905.7
660.064,901.4
660.59,899.1
661.116,893.7
661.641,896.8
662.167,889.8
662.692,890.8
663.087,887.9

File: VLFR_02-HDPE_bio_Raman_aee31176.csv
nm,Intensity
526.495,829.9
527.042,827.7
527.589,830.0
528.136,828.8
528.682,828.7
529.229,828.4
529.775,830.2
530.321,828.6
530.867,828.5
531.413,829.4
531.959,832.5
532.505,830.1
533.051,829.7
533.596,828.9
534.141,876.3
534.687,873.4
535.232,870.9
535.777,852.7
536.321,845.6
536.866,844.3
537.41,842.0
537.955,844.4
538.499,842.7
539.043,840.8
539.587,839.3
540.131,838.1
540.675,837.3
541.219,837.3
541.762,838.0
542.305,838.8
542.849,837.8
543.392,836.5
543.935,837.3
544.478,835.8
545.02,837.5
545.563,835.8
546.106,836.9
546.648,834.8
547.19,836.3
547.732,835.0
548.274,836.5
548.816,836.9
549.358,836.4
549.9,835.8
550.441,835.5
550.983,836.5
551.524,837.3
552.065,837.3
552.606,837.8
553.147,836.4
553.688,838.7
554.229,840.0
554.769,840.1
555.31,839.7
555.85,839.6
556.391,840.7
556.931,842.3
557.471,842.2
558.011,842.4
558.551,842.3
559.09,842.1
559.63,840.9
560.169,840.0
560.709,842.4
561.248,840.5
561.787,841.6
562.326,842.4
562.865,844.3
563.404,846.0
563.943,899.1
564.481,857.8
565.02,852.9
565.558,850.0
566.096,900.9
566.634,848.8
567.172,846.6
567.71,850.1
568.248,843.3
568.786,843.7
569.324,842.9
569.861,843.8
570.399,846.1
570.936,851.2
571.473,945.7
572.01,868.5
572.547,850.7
573.084,846.3
573.621,846.6
574.158,851.6
574.694,844.8
575.231,846.1
575.767,878.0
576.303,978.3
576.84,908.8
577.376,892.4
577.912,854.9
578.448,850.6
578.984,847.8
579.519,849.6
580.055,850.3
580.59,849.9
581.126,850.9
581.661,849.7
582.196,851.4
582.731,854.3
583.267,855.0
583.801,855.0
584.336,857.5
584.871,855.1
585.406,860.4
585.94,863.7
586.475,864.2
587.009,865.6
587.543,870.8
588.078,871.4
588.612,875.9
589.146,876.6
589.68,877.6
590.214,882.3
590.747,887.2
591.281,892.8
591.815,894.8
592.348,895.3
592.881,897.1
593.415,900.6
593.948,901.7
594.481,911.5
595.014,907.3
595.547,913.0
596.08,914.8
596.613,914.5
597.146,917.0
597.678,921.7
598.211,922.2
598.743,924.3
599.276,927.4
599.808,926.3
600.34,926.7
600.872,930.4
601.404,925.6
601.936,932.6
602.468,926.6
603.0,926.8
603.532,924.1
604.064,916.3
604.595,916.0
605.127,913.8
605.658,909.9
606.189,907.2
606.721,899.4
607.252,899.0
607.783,898.3
608.314,898.3
608.845,892.9
609.376,891.7
609.907,890.4
610.438,889.2
610.968,885.6
611.499,889.7
612.029,886.9
612.56,881.4
613.09,883.9
613.621,883.4
614.151,884.1
614.681,881.3
615.211,880.5
615.741,882.4
616.271,881.2
616.801,886.8
617.331,887.1
617.861,886.7
618.39,884.0
618.92,883.7
619.45,884.5
619.979,886.8
620.509,885.6
621.038,886.2
621.567,903.5
622.096,934.6
622.626,924.5
623.155,896.7
623.684,887.8
624.213,881.0
624.742,885.9
625.271,886.5
625.799,896.0
626.328,926.6
626.857,1200.9
627.386,1662.4
627.914,1308.4
628.443,1591.4
628.971,1301.7
629.5,1207.0
630.028,1093.9
630.556,1072.1
631.084,961.9
631.613,896.0
632.141,885.4
632.669,883.0
633.197,878.7
633.725,876.5
634.253,874.1
634.781,872.6
635.308,868.3
635.836,872.2
636.364,871.4
636.891,870.9
637.419,867.0
637.947,867.7
638.474,869.0
639.002,865.3
639.529,868.8
640.056,869.9
640.584,869.1
641.111,872.5
641.638,871.6
642.165,871.7
642.692,868.3
643.219,870.3
643.746,871.8
644.273,874.5
644.8,873.2
645.327,876.2
645.854,876.1
646.381,875.1
646.908,874.0
647.434,874.4
647.961,877.5
648.488,877.0
649.014,872.5
649.541,872.6
650.067,874.3
650.594,874.1
651.12,875.1
651.646,871.0
652.173,874.5
652.699,874.0
653.225,876.2
653.752,873.5
654.278,871.5
654.804,874.8
655.33,872.1
655.856,871.8
656.382,872.9
656.908,874.6
657.434,870.7
657.96,868.6
658.486,866.2
659.012,866.4
659.538,867.5
660.064,866.2
660.589,866.9
661.115,863.0
661.641,863.2
662.166,861.4
662.692,862.0
663.086,857.8