Folder: MPX_specDB/spectra (part 80)

File: VLFR_06-PET_bio_Raman_e21d57f2.csv
nm,Intensity
526.549,832.95
527.096,832.2
527.643,831.25
528.19,831.75
528.737,832.0
529.283,831.3
529.83,832.15
530.376,832.2
530.922,832.25
531.468,831.6
532.014,844.35
532.559,832.75
533.105,831.85
533.65,832.95
534.196,852.15
534.741,848.7
535.286,846.15
535.83,846.3
536.375,845.3
536.92,846.15
537.464,846.45
538.008,846.35
538.553,846.3
539.097,846.2
539.641,845.8
540.184,848.45
540.728,847.45
541.271,847.1
541.815,847.0
542.358,846.7
542.901,845.25
543.444,845.5
543.987,847.5
544.53,846.25
545.072,847.5
545.615,845.9
546.157,846.5
546.699,845.3
547.242,847.35
547.784,846.8
548.325,845.8
548.867,846.2
549.409,847.05
549.95,847.15
550.492,847.0
551.033,848.35
551.574,848.15
552.115,846.05
552.656,846.75
553.197,847.5
553.737,847.05
554.278,847.4
554.818,848.5
555.358,847.8
555.899,847.05
556.439,847.5
556.979,848.2
557.518,849.1
558.058,848.0
558.598,845.85
559.137,848.55
559.677,848.6
560.216,848.95
560.755,847.8
561.294,849.25
561.833,848.65
562.372,849.2
562.91,851.1
563.449,848.95
563.987,849.6
564.526,850.15
565.064,850.6
565.602,851.6
566.14,851.45
566.678,851.05
567.216,851.85
567.754,851.2
568.291,850.3
568.829,850.55
569.366,851.2
569.904,852.45
570.441,852.3
570.978,853.3
571.515,852.25
572.052,853.25
572.589,853.2
573.125,852.35
573.662,853.65
574.199,852.95
574.735,852.7
575.271,854.05
575.807,852.45
576.344,853.75
576.88,855.2
577.415,853.95
577.951,853.4
578.487,853.35
579.023,853.9
579.558,855.8
580.094,854.9
580.629,856.15
581.164,856.25
581.699,855.3
582.234,859.5
582.769,854.9
583.304,856.15
583.839,857.05
584.374,857.35
584.908,855.5
585.443,859.8
585.977,859.9
586.511,858.3
587.046,857.55
587.58,855.8
588.114,856.15
588.648,856.4
589.182,856.95
589.716,855.9
590.249,857.25
590.783,858.35
591.316,856.35
591.85,855.9
592.383,856.9
592.917,857.35
593.45,857.8
593.983,856.5
594.516,857.4
595.049,856.8
595.582,857.1
596.115,858.55
596.647,856.65
597.18,858.1
597.712,856.95
598.245,859.45
598.777,856.9
599.31,858.9
599.842,858.9
600.374,858.35
600.906,858.75
601.438,858.75
601.97,858.05
602.502,857.7
603.034,858.25
603.565,859.55
604.097,859.3
604.628,858.05
605.16,858.65
605.691,856.3
606.223,856.3
606.754,856.7
607.285,857.95
607.816,857.2
608.347,859.6
608.878,857.65
609.409,855.85
609.94,857.95
610.47,859.0
611.001,858.35
611.532,858.15
612.062,859.8
612.593,858.35
613.123,858.1
613.653,857.85
614.184,858.2
614.714,860.0
615.244,859.25
615.774,858.25
616.304,858.3
616.834,857.6
617.364,860.6
617.894,860.35
618.423,861.2
618.953,859.7
619.482,860.4
620.012,860.4
620.541,859.85
621.071,860.25
621.6,860.8
622.13,860.7
622.659,859.1
623.188,859.7
623.717,905.15
624.246,862.5
624.775,862.25
625.304,859.25
625.833,861.4
626.362,862.55
626.89,860.25
627.419,860.45
627.948,861.95
628.476,861.95
629.005,861.95
629.533,862.05
630.061,861.5
630.59,860.6
631.118,862.5
631.646,862.5
632.175,863.9
632.703,862.0
633.231,862.15
633.759,862.1
634.287,861.35
634.815,862.25
635.342,861.15
635.87,863.25
636.398,864.55
636.926,863.7
637.453,862.5
637.981,861.85
638.509,863.95
639.036,862.55
639.563,861.55
640.091,862.95
640.618,864.45
641.146,863.45
641.673,863.75
642.2,863.25
642.727,863.05
643.254,863.4
643.781,861.9
644.309,862.05
644.836,863.9
645.362,864.6
645.889,863.8
646.416,861.95
646.943,865.6
647.47,862.95
647.997,863.55
648.523,861.75
649.05,864.45
649.577,863.9
650.103,863.75
650.63,862.85
651.156,864.1
651.683,861.45
652.209,862.9
652.735,863.15
653.262,864.8
653.788,862.9
654.314,861.35
654.841,861.75
655.367,862.45
655.893,860.85
656.419,861.75
656.945,862.5
657.471,862.45
657.997,860.9
658.523,862.7
659.049,861.8
659.575,860.15
660.101,863.05
660.627,861.0
661.153,860.05
661.679,860.55
662.205,859.6
662.731,859.5
663.125,860.7

File: VLFR_06-PET_bio_Raman_ec716c1a.csv
nm,Intensity
528.65,1849.35
529.155,1849.0
529.66,1849.25
530.165,1849.6
530.67,1849.85
531.175,1850.9
531.68,1895.9
532.185,3343.4
532.69,1853.75
533.194,1855.75
533.699,2754.0
534.204,4754.05
534.708,3937.45
535.213,3442.2
535.717,3016.35
536.222,2773.05
536.726,2630.15
537.231,2631.8
537.735,2618.4
538.239,2638.0
538.743,2660.95
539.247,2688.1
539.751,2741.35
540.255,2699.2
540.759,2619.75
541.263,2607.3
541.767,2608.85
542.271,2628.7
542.775,2661.7
543.279,2663.5
543.782,2698.15
544.286,2716.7
544.789,2666.45
545.293,2718.5
545.796,2697.85
546.3,2859.35
546.803,2784.4
547.306,2750.7
547.81,2733.6
548.313,2735.8
548.816,2752.0
549.319,2777.35
549.822,2785.9
550.325,2888.4
550.828,2993.8
551.331,2805.0
551.834,2823.15
552.337,2776.5
552.839,3017.0
553.342,2818.4
553.844,2780.75
554.347,2818.4
554.849,2844.9
555.352,2916.25
555.854,3019.5
556.357,3076.85
556.859,3072.3
557.361,3490.35
557.863,3213.75
558.365,3160.4
558.867,3037.7
559.369,2944.15
559.871,2917.5
560.373,2941.4
560.875,2966.2
561.377,2994.75
561.878,3126.05
562.38,3845.55
562.881,3130.95
563.383,3120.25
563.884,3080.6
564.386,3091.35
564.887,3268.8
565.388,3492.1
565.89,3615.55
566.391,3387.0
566.892,3199.85
567.393,3343.2
567.894,3398.05
568.395,3281.25
568.896,3293.85
569.396,3321.55
569.897,3432.05
570.398,3683.3
570.898,4153.95
571.399,4501.95
571.9,3969.8
572.4,3637.1
572.9,3514.25
573.401,3500.1
573.901,3604.85
574.401,3572.15
574.901,3607.15
575.401,3734.65
575.901,3639.75
576.401,3770.75
576.901,3768.25
577.401,3666.0
577.901,3659.95
578.4,3647.35
578.9,3667.9
579.399,3709.6
579.899,3675.05
580.398,3744.6
580.898,3839.35
581.397,3992.75
581.896,5932.25
582.395,5625.85
582.895,3904.95
583.394,3804.75
583.893,3899.8
584.391,3920.85
584.89,3939.15
585.389,4536.5
585.888,6070.2
586.386,5132.65
586.885,4085.75
587.384,3944.9
587.882,3900.0
588.38,3945.05
588.879,3883.75
589.377,3908.6
589.875,3875.2
590.373,3869.6
590.871,3910.8
591.369,3888.55
591.867,3872.1
592.365,3901.55
592.863,3940.7
593.361,3809.5
593.858,3879.25
594.356,3898.4
594.853,3909.3
595.351,3906.85
595.848,3890.7
596.345,3981.85
596.843,3913.85
597.34,3921.45
597.837,3920.15
598.334,3940.6
598.831,3921.55
599.328,3937.4
599.824,4017.35
600.321,3981.5
600.818,3983.5
601.314,3986.6
601.811,4018.0
602.307,3966.8
602.804,3950.45
603.3,3987.5
603.796,3923.65
604.293,3977.15
604.789,3947.3
605.285,4043.5
605.781,4015.85
606.277,4000.75
606.772,3995.1
607.268,4034.6
607.764,4052.65
608.259,4034.65
608.755,4074.3
609.25,4052.2
609.746,4080.05
610.241,4104.6
610.736,4084.0
611.231,4067.1
611.727,4062.85
612.222,4108.9
612.716,4154.45
613.211,4108.85
613.706,4085.8
614.201,4146.55
614.695,4138.55
615.19,4149.4
615.684,4129.2
616.179,4124.75
616.673,4228.95
617.168,4210.8
617.662,4207.35
618.156,4307.25
618.65,4235.95
619.144,4283.75
619.638,4192.45
620.131,4220.65
620.625,4227.1
621.119,4237.85
621.612,4228.35
622.106,4242.8
622.599,4269.0
623.093,4249.55
623.586,4313.3
624.079,4354.45
624.572,4302.0
625.065,4454.1
625.558,4367.9
626.051,4364.65
626.544,4387.8
627.037,4324.4
627.529,4358.6
628.022,4439.25
628.514,4555.3
629.007,4565.7
629.499,4612.75
629.991,4524.4
630.483,4609.4
630.976,4801.95
631.468,5288.2
631.959,5410.65
632.451,4969.2
632.943,4858.85
633.435,4831.25
633.926,4854.75
634.418,4661.1
634.909,4582.5
635.401,4744.6
635.892,5019.55
636.383,5569.95
636.874,5217.95
637.365,4759.3
637.856,4693.9
638.347,4767.55
638.838,4651.5
639.329,4603.5
639.819,4683.15
640.31,4676.7
640.8,4626.9
641.291,4580.95
641.781,4527.75
642.271,4677.65
642.761,4656.25
643.251,4541.0
643.741,4667.05
644.231,4551.7
644.721,4599.15
645.211,4693.95
645.7,4558.65
646.19,4660.1
646.679,4570.8
647.169,4622.2
647.658,4563.05
648.147,4585.5
648.636,4486.6
649.125,4556.95
649.614,4578.65
650.103,4534.25
650.592,4467.9
651.08,4593.35
651.569,4390.55
652.058,4510.8
652.546,4495.05
653.034,4476.45
653.523,4353.6
654.011,4417.25
654.499,4347.1
654.987,4258.3
655.475,4325.95
655.963,4345.7
656.45,4286.6
656.938,4275.95
657.425,4285.3
657.913,4217.45
658.4,4168.9
658.888,4155.55
659.375,4108.75
659.862,4119.3
660.349,4127.8
660.836,4045.15
661.079,4023.45

File: VLFR_06-PET_bio_Raman_f99cdf31.csv
nm,Intensity
526.549,832.8
527.096,832.2
527.643,833.5
528.19,832.3
528.737,831.8
529.283,832.55
529.83,832.15
530.376,831.15
530.922,831.75
531.468,832.3
532.014,847.2
532.559,833.05
533.105,832.85
533.65,843.45
534.196,1612.2
534.741,1408.35
535.286,1219.0
535.83,1113.45
536.375,1041.9
536.92,1018.7
537.464,1007.3
538.008,1007.2
538.553,1014.1
539.097,1016.55
539.641,1028.1
540.184,1031.75
540.728,1013.35
541.271,1006.75
541.815,1006.05
542.358,1006.45
542.901,1010.15
543.444,1008.2
543.987,1016.45
544.53,1016.9
545.072,1016.4
545.615,1014.1
546.157,1016.4
546.699,1022.35
547.242,1019.75
547.784,1018.8
548.325,1016.3
548.867,1023.35
549.409,1022.35
549.95,1021.95
550.492,1034.75
551.033,1031.75
551.574,1024.35
552.115,1026.6
552.656,1032.05
553.197,1038.1
553.737,1034.25
554.278,1032.45
554.818,1031.65
555.358,1042.75
555.899,1067.7
556.439,1075.35
556.979,1080.15
557.518,1170.7
558.058,1089.65
558.598,1087.85
559.137,1064.25
559.677,1050.4
560.216,1050.3
560.755,1055.6
561.294,1063.35
561.833,1063.75
562.372,1070.65
562.91,1079.2
563.449,1082.0
563.987,1082.45
564.526,1086.05
565.064,1116.75
565.602,1156.2
566.14,1151.75
566.678,1103.2
567.216,1101.1
567.754,1142.75
568.291,1108.15
568.829,1109.95
569.366,1118.0
569.904,1135.35
570.441,1164.95
570.978,1239.05
571.515,1291.8
572.052,1209.95
572.589,1154.3
573.125,1142.7
573.662,1153.3
574.199,1166.15
574.735,1164.15
575.271,1186.5
575.807,1167.9
576.344,1192.35
576.88,1194.65
577.415,1184.3
577.951,1181.3
578.487,1188.1
579.023,1189.4
579.558,1191.85
580.094,1199.3
580.629,1201.15
581.164,1215.0
581.699,1272.2
582.234,1928.8
582.769,1249.45
583.304,1227.05
583.839,1224.65
584.374,1234.45
584.908,1244.2
585.443,1314.75
585.977,1595.8
586.511,1436.15
587.046,1273.75
587.58,1249.8
588.114,1243.6
588.648,1248.55
589.182,1242.85
589.716,1241.65
590.249,1244.15
590.783,1245.3
591.316,1247.85
591.85,1250.7
592.383,1255.65
592.917,1247.9
593.45,1248.8
593.983,1241.85
594.516,1253.1
595.049,1251.15
595.582,1259.75
596.115,1260.4
596.647,1258.65
597.18,1258.65
597.712,1259.45
598.245,1266.3
598.777,1263.5
599.31,1263.1
599.842,1259.45
600.374,1265.25
600.906,1261.1
601.438,1256.9
601.97,1259.7
602.502,1256.5
603.034,1258.05
603.565,1255.3
604.097,1256.0
604.628,1253.0
605.16,1255.75
605.691,1254.75
606.223,1248.0
606.754,1250.1
607.285,1250.85
607.816,1253.0
608.347,1250.95
608.878,1254.8
609.409,1255.75
609.94,1259.3
610.47,1246.65
611.001,1249.95
611.532,1250.75
612.062,1252.05
612.593,1256.8
613.123,1262.6
613.653,1264.5
614.184,1269.95
614.714,1268.4
615.244,1272.9
615.774,1270.9
616.304,1267.7
616.834,1272.3
617.364,1279.7
617.894,1281.4
618.423,1284.35
618.953,1278.3
619.482,1276.2
620.012,1278.45
620.541,1281.1
621.071,1274.55
621.6,1283.8
622.13,1284.5
622.659,1284.65
623.188,1292.35
623.717,1299.15
624.246,1302.5
624.775,1308.4
625.304,1304.5
625.833,1305.4
626.362,1305.25
626.89,1310.65
627.419,1313.8
627.948,1315.85
628.476,1327.55
629.005,1345.0
629.533,1341.55
630.061,1341.9
630.59,1345.85
631.118,1391.25
631.646,1455.65
632.175,1437.3
632.703,1399.4
633.231,1396.75
633.759,1385.3
634.287,1368.35
634.815,1370.9
635.342,1377.35
635.87,1419.85
636.398,1489.45
636.926,1471.2
637.453,1403.35
637.981,1391.25
638.509,1394.8
639.036,1385.4
639.563,1393.4
640.091,1393.5
640.618,1395.45
641.146,1409.5
641.673,1399.65
642.2,1406.55
642.727,1406.75
643.254,1403.35
643.781,1404.95
644.309,1389.45
644.836,1403.3
645.362,1400.55
645.889,1394.95
646.416,1410.7
646.943,1409.15
647.47,1409.8
647.997,1408.3
648.523,1412.25
649.05,1407.15
649.577,1403.85
650.103,1403.7
650.63,1405.7
651.156,1400.7
651.683,1404.55
652.209,1408.9
652.735,1407.05
653.262,1408.25
653.788,1398.15
654.314,1406.95
654.841,1400.5
655.367,1402.75
655.893,1400.8
656.419,1399.75
656.945,1406.55
657.471,1404.85
657.997,1400.6
658.523,1405.4
659.049,1397.8
659.575,1401.7
660.101,1398.25
660.627,1399.6
661.153,1389.0
661.679,1385.2
662.205,1377.85
662.731,1385.2
663.125,1381.0

File: VLFR_06-PET_bio_Raman_f1022002.csv
nm,Intensity
526.508,829.4
527.055,829.5
527.602,829.6
528.149,829.9
528.695,829.9
529.241,829.5
529.787,828.9
530.334,829.6
530.879,829.9
531.425,830.3
531.971,831.0
532.516,830.5
533.062,830.2
533.607,833.6
534.152,1505.8
534.697,1321.8
535.242,1126.0
535.786,1012.6
536.331,949.2
536.876,915.5
537.42,909.6
537.964,903.1
538.508,906.3
539.052,903.9
539.596,912.1
540.14,916.5
540.683,895.5
541.227,890.1
541.77,883.7
542.313,882.5
542.856,881.6
543.399,882.5
543.942,891.7
544.485,885.7
545.027,888.6
545.57,887.5
546.112,894.2
546.654,911.9
547.196,890.2
547.738,891.6
548.28,893.0
548.822,891.1
549.363,894.4
549.905,896.6
550.446,903.8
550.988,908.2
551.529,896.0
552.07,897.6
552.611,901.6
553.152,910.3
553.692,900.3
554.233,902.5
554.773,903.4
555.314,908.9
555.854,939.5
556.394,939.0
556.934,946.8
557.474,1016.9
558.014,960.3
558.553,953.3
559.093,929.1
559.632,914.3
560.172,921.8
560.711,921.3
561.25,924.7
561.789,924.7
562.328,1027.4
562.867,941.2
563.406,938.9
563.944,931.8
564.483,938.1
565.021,965.7
565.559,1003.9
566.098,1008.3
566.636,957.1
567.174,943.2
567.711,990.2
568.249,948.5
568.787,945.7
569.324,953.4
569.862,964.7
570.399,987.9
570.936,1065.9
571.474,1129.6
572.011,1044.5
572.548,984.8
573.084,968.3
573.621,964.4
574.158,984.6
574.694,983.0
575.231,989.0
575.767,977.4
576.303,990.8
576.84,999.9
577.376,984.8
577.912,971.8
578.447,977.9
578.983,975.3
579.519,976.9
580.054,981.5
580.59,989.8
581.125,1004.8
581.661,1046.6
582.196,1712.6
582.731,1028.3
583.266,994.9
583.801,992.8
584.336,997.0
584.87,1005.4
585.405,1060.7
585.94,1360.8
586.474,1216.6
587.008,1033.3
587.543,1007.3
588.077,1005.7
588.611,1001.2
589.145,999.3
589.679,996.6
590.213,1001.1
590.747,998.4
591.28,1004.4
591.814,1001.9
592.347,1006.0
592.881,1009.2
593.414,1011.2
593.947,1005.4
594.48,1007.0
595.014,1012.7
595.547,1012.0
596.079,1013.0
596.612,1007.3
597.145,1012.9
597.678,1009.6
598.21,1014.3
598.743,1011.9
599.275,1020.7
599.807,1017.7
600.34,1016.3
600.872,1016.0
601.404,1019.5
601.936,1020.8
602.468,1015.5
603.0,1012.8
603.532,1021.9
604.063,1020.8
604.595,1023.5
605.126,1020.8
605.658,1018.4
606.189,1013.4
606.721,1018.2
607.252,1017.5
607.783,1025.9
608.314,1020.9
608.845,1014.2
609.376,1021.8
609.907,1025.0
610.438,1021.0
610.968,1021.4
611.499,1027.8
612.03,1023.0
612.56,1030.4
613.091,1037.5
613.621,1035.1
614.151,1037.8
614.681,1039.0
615.212,1038.7
615.742,1039.9
616.272,1043.4
616.802,1043.2
617.332,1042.6
617.861,1048.4
618.391,1049.8
618.921,1048.8
619.45,1051.8
619.98,1046.7
620.509,1040.6
621.039,1046.0
621.568,1048.6
622.097,1056.0
622.627,1050.9
623.156,1059.6
623.685,1053.0
624.214,1063.3
624.743,1064.5
625.272,1065.8
625.801,1063.4
626.33,1071.9
626.858,1063.0
627.387,1067.3
627.916,1075.0
628.444,1082.4
628.973,1093.1
629.501,1094.2
630.029,1095.6
630.558,1093.7
631.086,1133.3
631.614,1211.2
632.142,1201.6
632.67,1150.3
633.198,1141.5
633.726,1128.3
634.254,1119.9
634.782,1109.0
635.31,1110.9
635.838,1149.0
636.365,1218.2
636.893,1216.2
637.421,1140.0
637.948,1121.5
638.476,1118.8
639.003,1117.8
639.531,1119.4
640.058,1119.4
640.585,1122.4
641.113,1119.6
641.64,1131.4
642.167,1133.7
642.694,1134.7
643.221,1130.9
643.748,1126.1
644.275,1128.1
644.802,1129.7
645.329,1131.6
645.856,1137.9
646.382,1134.1
646.909,1136.6
647.436,1137.8
647.962,1143.5
648.489,1147.1
649.016,1142.7
649.542,1144.4
650.069,1136.7
650.595,1140.8
651.121,1143.4
651.648,1138.2
652.174,1155.7
652.7,1144.2
653.227,1151.1
653.753,1150.9
654.279,1150.5
654.805,1151.9
655.331,1161.2
655.857,1161.5
656.383,1154.1
656.909,1155.3
657.435,1164.6
657.961,1162.4
658.487,1156.9
659.013,1161.7
659.538,1164.6
660.064,1162.5
660.59,1164.4
661.116,1162.8
661.641,1159.5
662.167,1159.4
662.692,1164.3
663.087,1153.9

File: VLFR_06-PET_bio_Raman_fa04f318.csv
nm,Intensity
526.549,831.4
527.096,832.25
527.643,832.15
528.19,832.65
528.737,830.75
529.283,833.3
529.83,831.7
530.376,831.75
530.922,831.85
531.468,832.9
532.014,842.35
532.559,832.1
533.105,831.55
533.65,846.55
534.196,1858.5
534.741,1582.45
535.286,1320.8
535.83,1168.7
536.375,1079.1
536.92,1045.8
537.464,1029.15
538.008,1028.2
538.553,1038.7
539.097,1039.75
539.641,1051.25
540.184,1059.35
540.728,1028.7
541.271,1024.15
541.815,1018.0
542.358,1023.65
542.901,1025.15
543.444,1020.6
543.987,1027.45
544.53,1028.15
545.072,1031.8
545.615,1029.5
546.157,1031.8
546.699,1034.55
547.242,1032.55
547.784,1036.0
548.325,1030.35
548.867,1036.65
549.409,1037.8
549.95,1036.1
550.492,1057.15
551.033,1047.95
551.574,1042.25
552.115,1042.0
552.656,1054.55
553.197,1057.6
553.737,1046.7
554.278,1046.6
554.818,1049.95
555.358,1065.25
555.899,1098.4
556.439,1104.8
556.979,1115.5
557.518,1234.85
558.058,1131.4
558.598,1123.6
559.137,1090.1
559.677,1066.2
560.216,1079.1
560.755,1079.25
561.294,1082.5
561.833,1087.6
562.372,1099.95
562.91,1115.15
563.449,1112.95
563.987,1107.8
564.526,1116.45
565.064,1163.45
565.602,1210.1
566.14,1206.05
566.678,1136.8
567.216,1131.9
567.754,1200.75
568.291,1143.0
568.829,1146.75
569.366,1146.3
569.904,1177.55
570.441,1221.45
570.978,1328.25
571.515,1405.1
572.052,1291.65
572.589,1200.75
573.125,1184.25
573.662,1197.1
574.199,1220.45
574.735,1211.15
575.271,1242.55
575.807,1218.35
576.344,1250.65
576.88,1261.55
577.415,1235.8
577.951,1230.6
578.487,1239.25
579.023,1238.55
579.558,1247.35
580.094,1257.25
580.629,1257.25
581.164,1279.7
581.699,1366.05
582.234,2330.8
582.769,1318.8
583.304,1285.2
583.839,1289.85
584.374,1298.85
584.908,1314.0
585.443,1420.45
585.977,1843.55
586.511,1594.3
587.046,1364.95
587.58,1322.95
588.114,1315.45
588.648,1315.95
589.182,1315.75
589.716,1310.15
590.249,1314.2
590.783,1319.0
591.316,1321.95
591.85,1325.45
592.383,1321.5
592.917,1326.8
593.45,1322.6
593.983,1332.35
594.516,1331.85
595.049,1327.85
595.582,1340.9
596.115,1342.55
596.647,1341.6
597.18,1346.45
597.712,1342.1
598.245,1348.15
598.777,1355.2
599.31,1352.65
599.842,1348.1
600.374,1350.95
600.906,1349.25
601.438,1343.65
601.97,1349.7
602.502,1350.35
603.034,1354.4
603.565,1359.0
604.097,1353.8
604.628,1350.4
605.16,1347.8
605.691,1340.7
606.223,1341.6
606.754,1337.3
607.285,1339.95
607.816,1342.75
608.347,1347.4
608.878,1347.55
609.409,1352.65
609.94,1349.05
610.47,1352.75
611.001,1352.6
611.532,1351.7
612.062,1354.95
612.593,1361.8
613.123,1369.45
613.653,1370.2
614.184,1377.6
614.714,1381.35
615.244,1374.1
615.774,1375.65
616.304,1383.25
616.834,1382.45
617.364,1394.45
617.894,1395.8
618.423,1403.5
618.953,1397.0
619.482,1396.2
620.012,1392.15
620.541,1396.2
621.071,1397.4
621.6,1396.85
622.13,1404.35
622.659,1412.6
623.188,1418.1
623.717,1425.1
624.246,1433.05
624.775,1438.2
625.304,1438.0
625.833,1434.75
626.362,1427.0
626.89,1440.9
627.419,1450.75
627.948,1460.35
628.476,1477.5
629.005,1499.9
629.533,1504.4
630.061,1498.55
630.59,1501.85
631.118,1561.75
631.646,1682.0
632.175,1667.65
632.703,1599.8
633.231,1591.8
633.759,1563.2
634.287,1547.6
634.815,1541.4
635.342,1556.45
635.87,1620.4
636.398,1739.6
636.926,1717.9
637.453,1603.6
637.981,1570.55
638.509,1583.25
639.036,1578.15
639.563,1579.0
640.091,1581.65
640.618,1592.8
641.146,1586.15
641.673,1598.75
642.2,1604.9
642.727,1615.8
643.254,1605.25
643.781,1606.85
644.309,1606.0
644.836,1607.1
645.362,1607.0
645.889,1612.35
646.416,1617.35
646.943,1628.2
647.47,1626.1
647.997,1631.95
648.523,1630.95
649.05,1632.75
649.577,1632.25
650.103,1626.95
650.63,1627.5
651.156,1635.5
651.683,1640.2
652.209,1632.55
652.735,1638.45
653.262,1641.05
653.788,1637.9
654.314,1654.4
654.841,1638.4
655.367,1652.05
655.893,1643.45
656.419,1645.65
656.945,1648.65
657.471,1650.1
657.997,1642.45
658.523,1658.0
659.049,1658.1
659.575,1658.55
660.101,1654.8
660.627,1644.55
661.153,1643.3
661.679,1629.8
662.205,1636.55
662.731,1645.5
663.125,1624.9

File: VLFR_06-PET_bio_Raman_fac35d69.csv
nm,Intensity
526.493,829.55
527.039,828.9
527.586,829.5
528.133,828.65
528.679,829.15
529.225,829.65
529.771,828.55
530.317,829.35
530.863,829.4
531.409,828.3
531.955,831.35
532.5,829.25
533.046,828.55
533.591,831.0
534.136,1039.0
534.681,1003.1
535.226,971.45
535.771,954.7
536.315,938.45
536.86,933.2
537.404,929.45
537.948,938.5
538.493,934.85
539.037,931.7
539.58,933.95
540.124,936.35
540.668,935.55
541.211,937.4
541.755,938.25
542.298,938.65
542.841,940.1
543.384,941.15
543.927,945.05
544.47,945.95
545.013,947.15
545.555,949.5
546.098,952.35
546.64,954.15
547.182,954.65
547.724,958.0
548.266,953.9
548.808,963.5
549.35,960.4
549.892,963.5
550.433,965.35
550.974,971.0
551.516,969.95
552.057,970.7
552.598,972.65
553.139,974.95
553.68,973.9
554.22,973.45
554.761,981.85
555.301,977.35
555.842,987.25
556.382,985.15
556.922,992.85
557.462,1004.15
558.002,995.25
558.542,991.05
559.082,990.75
559.621,991.7
560.161,994.85
560.7,996.1
561.239,995.25
561.778,1001.0
562.317,1002.35
562.856,1005.2
563.395,1008.55
563.934,1006.0
564.472,1012.85
565.011,1021.3
565.549,1023.8
566.088,1034.15
566.626,1018.25
567.164,1021.0
567.702,1026.4
568.24,1024.3
568.777,1029.25
569.315,1032.6
569.853,1035.75
570.39,1040.15
570.927,1054.7
571.465,1068.7
572.002,1052.95
572.539,1045.5
573.076,1052.7
573.612,1051.25
574.149,1057.15
574.686,1054.65
575.222,1061.5
575.759,1061.2
576.295,1065.65
576.831,1065.85
577.367,1072.15
577.903,1064.3
578.439,1066.35
578.975,1069.7
579.511,1069.9
580.046,1074.8
580.582,1074.2
581.117,1075.6
581.653,1084.85
582.188,1202.7
582.723,1088.8
583.258,1094.8
583.793,1081.85
584.328,1088.0
584.863,1089.7
585.398,1103.4
585.932,1151.4
586.467,1135.2
587.001,1103.1
587.535,1097.5
588.07,1095.8
588.604,1098.45
589.138,1099.6
589.672,1098.15
590.206,1104.05
590.739,1102.25
591.273,1103.75
591.807,1101.95
592.34,1108.95
592.873,1105.45
593.407,1103.75
593.94,1107.1
594.473,1108.4
595.006,1108.45
595.539,1110.3
596.072,1111.75
596.605,1116.45
597.138,1114.7
597.67,1116.85
598.203,1119.9
598.735,1124.2
599.268,1123.75
599.8,1123.55
600.332,1123.45
600.865,1129.45
601.397,1125.15
601.929,1125.65
602.46,1130.15
602.992,1128.6
603.524,1127.9
604.056,1132.5
604.587,1131.35
605.119,1129.6
605.65,1124.65
606.182,1123.0
606.713,1120.8
607.244,1123.3
607.775,1122.75
608.306,1128.85
608.837,1134.7
609.368,1133.1
609.899,1130.0
610.43,1125.9
610.961,1132.95
611.491,1134.45
612.022,1137.2
612.552,1137.35
613.083,1145.15
613.613,1146.85
614.143,1146.15
614.673,1144.15
615.203,1142.75
615.734,1141.85
616.263,1143.9
616.793,1144.6
617.323,1150.9
617.853,1149.8
618.383,1155.8
618.912,1152.15
619.442,1156.5
619.971,1149.45
620.501,1149.85
621.03,1153.45
621.56,1153.2
622.089,1157.0
622.618,1160.85
623.147,1164.25
623.676,1159.75
624.205,1166.75
624.734,1167.15
625.263,1168.05
625.792,1168.75
626.321,1171.7
626.849,1175.3
627.378,1172.7
627.906,1172.9
628.435,1174.5
628.963,1183.75
629.492,1184.2
630.02,1183.15
630.548,1186.0
631.077,1194.5
631.605,1209.55
632.133,1211.15
632.661,1205.8
633.189,1200.2
633.717,1203.35
634.245,1196.0
634.773,1194.5
635.3,1199.5
635.828,1207.85
636.356,1226.85
636.883,1223.55
637.411,1210.2
637.938,1214.05
638.466,1210.35
638.993,1214.4
639.521,1216.2
640.048,1217.3
640.575,1213.75
641.103,1214.75
641.63,1220.8
642.157,1222.2
642.684,1226.1
643.211,1218.25
643.738,1223.5
644.265,1222.15
644.792,1220.8
645.319,1219.65
645.845,1222.85
646.372,1228.25
646.899,1228.85
647.425,1231.05
647.952,1240.5
648.479,1244.55
649.005,1258.75
649.532,1274.7
650.058,1289.4
650.585,1309.2
651.111,1315.7
651.637,1297.75
652.164,1271.1
652.69,1249.6
653.216,1241.95
653.742,1232.6
654.268,1228.1
654.794,1222.5
655.32,1217.35
655.846,1212.9
656.372,1211.95
656.898,1212.2
657.424,1206.3
657.95,1202.3
658.476,1203.65
659.002,1202.25
659.528,1199.65
660.053,1201.4
660.579,1195.75
661.105,1187.2
661.63,1186.4
662.156,1184.9
662.681,1185.35
663.076,1184.1