Folder: MPX_specDB/spectra (part 147)

File: VLFR_08-PLA_nobio_Raman_7d91df61.csv
nm,Intensity
526.532,833.35
527.079,833.9
527.625,833.7
528.172,832.0
528.718,833.65
529.265,833.85
529.811,834.25
530.357,833.05
530.903,833.45
531.449,833.45
531.994,845.05
532.54,833.2
533.085,833.05
533.63,834.45
534.176,909.5
534.721,902.35
535.266,893.75
535.81,890.15
536.355,888.0
536.9,891.1
537.444,887.25
537.988,889.95
538.533,886.8
539.077,887.55
539.621,888.1
540.165,886.7
540.708,891.3
541.252,892.0
541.795,889.05
542.339,890.2
542.882,891.5
543.425,899.6
543.968,903.35
544.511,893.15
545.054,896.0
545.597,894.3
546.139,895.65
546.682,895.2
547.224,899.3
547.766,896.45
548.308,897.75
548.85,899.5
549.392,899.2
549.934,899.8
550.475,901.05
551.017,904.0
551.558,903.7
552.1,905.0
552.641,904.15
553.182,905.05
553.723,907.6
554.264,908.1
554.804,906.5
555.345,904.15
555.885,904.2
556.426,904.7
556.966,904.8
557.506,909.5
558.046,946.6
558.586,914.7
559.126,912.25
559.665,910.85
560.205,910.9
560.745,910.45
561.284,910.0
561.823,911.2
562.362,912.3
562.901,917.1
563.44,925.85
563.979,919.9
564.518,916.2
565.056,923.85
565.595,925.55
566.133,931.55
566.671,924.2
567.21,914.5
567.748,923.35
568.285,919.85
568.823,921.95
569.361,922.3
569.899,921.45
570.436,925.7
570.974,924.05
571.511,926.95
572.048,925.05
572.585,926.65
573.122,928.3
573.659,931.15
574.196,932.8
574.733,934.9
575.269,927.4
575.806,927.95
576.342,930.75
576.878,950.55
577.414,933.6
577.951,929.1
578.486,930.8
579.022,932.75
579.558,931.75
580.094,930.8
580.629,931.0
581.165,933.55
581.7,932.6
582.236,930.35
582.771,931.1
583.306,933.4
583.841,933.05
584.376,933.85
584.911,931.2
585.445,934.8
585.98,935.45
586.514,940.85
587.049,946.9
587.583,957.05
588.117,941.1
588.651,936.05
589.186,933.4
589.72,936.85
590.253,935.55
590.787,938.75
591.321,935.7
591.854,935.75
592.388,932.8
592.921,933.7
593.455,933.55
593.988,936.65
594.521,935.0
595.054,933.85
595.587,936.65
596.12,934.9
596.653,935.45
597.186,937.0
597.718,938.75
598.251,939.3
598.783,937.75
599.316,937.65
599.848,941.1
600.38,935.3
600.912,935.65
601.444,936.55
601.976,935.4
602.508,937.0
603.04,937.95
603.572,936.5
604.103,938.4
604.635,935.95
605.167,933.9
605.698,934.8
606.229,930.9
606.761,934.5
607.292,935.95
607.823,933.1
608.354,935.75
608.885,936.85
609.416,936.5
609.947,935.95
610.477,935.65
611.008,934.4
611.539,936.6
612.069,935.55
612.6,939.5
613.13,939.3
613.66,939.95
614.19,937.45
614.721,939.55
615.251,939.45
615.781,938.65
616.311,939.65
616.841,939.85
617.37,941.4
617.9,940.45
618.43,941.45
618.96,936.6
619.489,941.5
620.019,938.3
620.548,941.05
621.077,941.0
621.607,940.6
622.136,941.15
622.665,943.3
623.194,945.15
623.723,945.95
624.252,947.65
624.781,943.55
625.31,941.65
625.839,941.15
626.368,943.4
626.896,942.9
627.425,944.4
627.953,949.0
628.482,966.25
629.01,957.2
629.539,961.75
630.067,961.9
630.596,981.8
631.124,1085.9
631.652,1009.75
632.18,975.6
632.708,969.75
633.236,998.2
633.764,985.95
634.292,956.15
634.82,944.15
635.348,942.35
635.876,939.75
636.403,937.7
636.931,939.2
637.459,932.8
637.986,936.15
638.514,933.95
639.041,930.05
639.568,932.45
640.096,928.55
640.623,932.05
641.15,929.75
641.678,927.9
642.205,931.0
642.732,926.55
643.259,927.8
643.786,925.95
644.313,923.8
644.84,921.45
645.367,919.85
645.894,920.9
646.421,921.75
646.948,919.35
647.474,920.5
648.001,918.25
648.528,917.5
649.054,916.75
649.581,917.3
650.108,917.55
650.634,913.75
651.161,914.3
651.687,914.85
652.214,912.1
652.74,912.95
653.266,911.9
653.793,913.8
654.319,911.1
654.845,911.2
655.371,909.05
655.897,907.95
656.424,909.0
656.95,906.45
657.476,908.15
658.002,906.75
658.528,905.85
659.054,905.25
659.58,905.9
660.106,904.05
660.631,904.6
661.157,903.05
661.683,905.25
662.209,903.1
662.735,902.05
663.129,903.2

File: VLFR_08-PLA_nobio_Raman_7e306f34.csv
nm,Intensity
526.486,829.2
527.033,829.8
527.579,829.2
528.126,829.7
528.672,830.3
529.219,828.3
529.765,829.6
530.311,830.0
530.857,829.7
531.403,828.8
531.948,834.3
532.494,832.2
533.039,829.5
533.585,830.0
534.13,1032.7
534.675,992.3
535.22,955.1
535.764,934.5
536.309,924.4
536.854,925.1
537.398,918.8
537.942,917.0
538.486,906.5
539.03,901.4
539.574,901.6
540.118,889.3
540.662,910.3
541.205,914.4
541.749,907.6
542.292,898.2
542.835,897.2
543.378,919.2
543.921,932.4
544.464,911.9
545.006,903.7
545.549,901.4
546.091,901.1
546.634,896.1
547.176,901.9
547.718,897.7
548.26,900.4
548.802,899.2
549.343,901.4
549.885,901.5
550.426,906.0
550.968,909.5
551.509,909.5
552.05,913.0
552.591,913.1
553.132,914.3
553.673,910.8
554.214,920.8
554.754,914.2
555.295,903.2
555.835,906.2
556.375,908.3
556.915,909.4
557.455,924.6
557.995,1034.6
558.535,947.4
559.075,924.8
559.614,918.8
560.154,917.1
560.693,913.2
561.232,910.2
561.772,913.2
562.311,912.6
562.85,925.3
563.388,957.9
563.927,937.8
564.466,923.7
565.004,944.4
565.543,943.4
566.081,969.2
566.619,943.0
567.157,925.2
567.695,926.3
568.233,926.3
568.771,929.5
569.309,932.0
569.846,931.4
570.384,925.8
570.921,929.4
571.458,945.0
571.995,947.0
572.532,941.5
573.069,941.5
573.606,946.2
574.143,939.9
574.68,953.8
575.216,935.4
575.753,929.6
576.289,945.5
576.825,1011.8
577.361,956.6
577.897,940.1
578.433,932.5
578.969,934.0
579.505,935.0
580.041,931.3
580.576,936.4
581.112,934.6
581.647,935.9
582.183,931.8
582.718,933.8
583.253,935.1
583.788,934.5
584.323,935.6
584.858,935.1
585.392,939.8
585.927,942.7
586.462,951.4
586.996,992.0
587.53,1013.1
588.065,967.7
588.599,942.4
589.133,935.5
589.667,941.3
590.201,939.0
590.735,940.2
591.268,938.8
591.802,944.2
592.335,938.9
592.869,940.4
593.402,938.9
593.936,937.3
594.469,937.3
595.002,940.2
595.535,942.0
596.068,938.2
596.601,941.5
597.133,937.9
597.666,943.4
598.199,944.1
598.731,943.3
599.264,943.1
599.796,942.3
600.328,941.8
600.86,941.3
601.393,939.9
601.925,940.4
602.457,944.1
602.988,940.0
603.52,942.4
604.052,941.8
604.583,943.5
605.115,942.6
605.646,939.4
606.178,939.9
606.709,942.4
607.24,940.8
607.771,941.3
608.302,940.9
608.833,941.5
609.364,946.1
609.895,944.6
610.426,943.1
610.957,945.3
611.487,943.5
612.018,940.5
612.548,946.0
613.078,948.9
613.609,947.1
614.139,944.2
614.669,948.2
615.199,944.9
615.729,946.0
616.259,947.3
616.789,946.0
617.319,950.0
617.849,948.5
618.378,948.6
618.908,946.5
619.437,944.8
619.967,949.0
620.496,942.4
621.025,947.5
621.555,949.3
622.084,946.8
622.613,959.2
623.142,964.6
623.671,955.8
624.2,952.7
624.729,948.4
625.258,949.2
625.786,945.1
626.315,951.5
626.844,944.8
627.372,949.6
627.901,957.7
628.429,1025.9
628.957,1012.8
629.486,1013.3
630.014,1016.7
630.542,1074.1
631.07,1458.0
631.598,1232.3
632.126,1082.9
632.654,1056.9
633.182,1152.6
633.71,1120.6
634.237,1019.6
634.765,965.1
635.293,950.7
635.82,944.1
636.348,945.7
636.875,941.0
637.403,942.2
637.93,936.2
638.458,937.3
638.985,937.4
639.512,937.7
640.039,930.9
640.566,935.9
641.093,936.3
641.62,936.6
642.147,936.9
642.674,938.0
643.201,937.4
643.728,928.8
644.255,926.9
644.781,930.2
645.308,927.8
645.835,925.8
646.361,924.5
646.888,927.0
647.414,929.1
647.941,924.7
648.467,925.1
648.993,923.4
649.52,927.5
650.046,919.8
650.572,921.8
651.098,922.2
651.625,922.9
652.151,918.9
652.677,920.0
653.203,917.7
653.729,918.2
654.255,916.7
654.78,918.0
655.306,918.3
655.832,916.0
656.358,919.3
656.884,918.6
657.409,921.4
657.935,919.5
658.461,911.2
658.986,915.2
659.512,918.4
660.037,920.5
660.563,913.1
661.088,913.2
661.614,914.1
662.139,913.9
662.664,907.9
663.058,908.9

File: VLFR_08-PLA_nobio_Raman_7f62a2e1.csv
nm,Intensity
526.508,830.3
527.055,829.5
527.602,830.3
528.149,828.4
528.695,830.6
529.241,831.9
529.787,830.0
530.334,830.4
530.879,830.1
531.425,830.5
531.971,833.5
532.516,830.4
533.062,831.3
533.607,831.6
534.152,1048.2
534.697,1011.1
535.242,973.4
535.786,956.2
536.331,952.2
536.876,949.8
537.42,943.5
537.964,941.4
538.508,933.0
539.052,933.1
539.596,932.2
540.14,924.3
540.683,937.6
541.227,941.3
541.77,933.9
542.313,927.1
542.856,932.5
543.399,949.0
543.942,958.1
544.485,940.4
545.027,934.0
545.57,927.8
546.112,931.3
546.654,933.7
547.196,932.7
547.738,935.8
548.28,933.9
548.822,937.1
549.363,943.4
549.905,940.1
550.446,938.6
550.988,941.9
551.529,952.1
552.07,949.8
552.611,949.9
553.152,954.3
553.692,950.8
554.233,955.8
554.773,952.2
555.314,945.7
555.854,945.0
556.394,943.4
556.934,947.8
557.474,970.5
558.014,1066.9
558.553,976.9
559.093,959.7
559.632,959.7
560.172,957.2
560.711,956.1
561.25,956.1
561.789,954.0
562.328,950.7
562.867,966.9
563.406,993.6
563.944,977.8
564.483,965.7
565.021,988.6
565.559,986.8
566.098,1008.3
566.636,982.8
567.174,967.9
567.711,966.9
568.249,972.2
568.787,973.4
569.324,973.4
569.862,972.9
570.399,969.3
570.936,973.9
571.474,985.7
572.011,994.9
572.548,989.1
573.084,990.3
573.621,987.0
574.158,990.5
574.694,1002.4
575.231,982.8
575.767,983.7
576.303,998.0
576.84,1050.5
577.376,1000.9
577.912,984.5
578.447,983.0
578.983,989.3
579.519,984.2
580.054,985.6
580.59,987.9
581.125,981.1
581.661,983.7
582.196,986.5
582.731,987.3
583.266,984.4
583.801,990.7
584.336,990.7
584.87,991.5
585.405,991.2
585.94,993.3
586.474,998.8
587.008,1036.7
587.543,1056.7
588.077,1010.7
588.611,994.7
589.145,989.2
589.679,993.2
590.213,995.5
590.747,987.3
591.28,992.1
591.814,988.1
592.347,986.5
592.881,986.8
593.414,985.1
593.947,986.3
594.48,992.0
595.014,989.2
595.547,991.5
596.079,988.1
596.612,989.2
597.145,989.6
597.678,993.7
598.21,989.9
598.743,986.4
599.275,992.3
599.807,989.4
600.34,990.4
600.872,990.9
601.404,987.5
601.936,985.1
602.468,990.5
603.0,988.1
603.532,984.8
604.063,990.9
604.595,990.2
605.126,984.2
605.658,983.7
606.189,980.0
606.721,979.2
607.252,979.2
607.783,983.3
608.314,980.2
608.845,988.3
609.376,980.2
609.907,983.8
610.438,982.2
610.968,981.5
611.499,982.6
612.03,982.2
612.56,979.9
613.091,982.4
613.621,983.2
614.151,986.0
614.681,985.2
615.212,982.1
615.742,983.1
616.272,987.8
616.802,980.0
617.332,983.9
617.861,984.3
618.391,983.6
618.921,984.3
619.45,987.0
619.98,979.2
620.509,977.5
621.039,980.9
621.568,978.6
622.097,979.6
622.627,987.5
623.156,990.8
623.685,993.4
624.214,985.8
624.743,987.9
625.272,980.8
625.801,980.7
626.33,982.9
626.858,976.2
627.387,983.8
627.916,993.7
628.444,1041.4
628.973,1028.5
629.501,1034.0
630.029,1034.5
630.558,1080.1
631.086,1394.0
631.614,1191.4
632.142,1080.4
632.67,1063.6
633.198,1141.3
633.726,1114.6
634.254,1031.9
634.782,988.1
635.31,977.0
635.838,972.8
636.365,972.9
636.893,967.3
637.421,969.3
637.948,966.1
638.476,964.2
639.003,965.5
639.531,965.5
640.058,963.5
640.585,964.8
641.113,962.3
641.64,960.9
642.167,962.8
642.694,959.4
643.221,954.2
643.748,954.2
644.275,958.6
644.802,958.8
645.329,947.8
645.856,952.1
646.382,952.0
646.909,951.4
647.436,947.5
647.962,946.8
648.489,948.4
649.016,947.3
649.542,946.2
650.069,945.3
650.595,945.4
651.121,946.3
651.648,943.2
652.174,948.0
652.7,943.9
653.227,941.0
653.753,939.0
654.279,942.9
654.805,940.2
655.331,941.4
655.857,942.5
656.383,940.2
656.909,945.8
657.435,942.2
657.961,935.7
658.487,939.7
659.013,940.3
659.538,939.8
660.064,936.7
660.59,935.0
661.116,935.1
661.641,930.5
662.167,932.8
662.692,931.5
663.087,930.6

File: VLFR_08-PLA_nobio_Raman_9c3d25cb.csv
nm,Intensity
526.5,828.7
527.047,829.0
527.594,829.6
528.14,828.0
528.687,828.6
529.233,827.6
529.779,829.4
530.325,828.5
530.871,828.4
531.417,829.7
531.962,836.8
532.508,829.7
533.053,828.9
533.599,829.1
534.144,915.2
534.689,916.1
535.234,910.9
535.778,914.9
536.323,909.1
536.867,915.2
537.412,914.8
537.956,924.4
538.5,918.7
539.044,922.5
539.588,921.3
540.132,922.2
540.675,929.3
541.219,932.8
541.762,930.6
542.305,934.7
542.848,938.5
543.391,938.5
543.934,944.6
544.477,947.7
545.02,949.9
545.562,946.7
546.105,954.1
546.647,956.0
547.189,952.0
547.731,955.7
548.273,958.8
548.815,959.5
549.356,963.3
549.898,967.9
550.439,971.9
550.981,967.4
551.522,972.6
552.063,974.9
552.604,978.4
553.145,980.3
553.686,983.1
554.226,991.0
554.767,987.6
555.307,990.8
555.848,989.7
556.388,995.6
556.928,994.8
557.468,1004.0
558.008,1012.2
558.547,1008.7
559.087,1006.9
559.626,1012.6
560.166,1024.4
560.705,1025.2
561.244,1025.6
561.783,1035.2
562.322,1039.2
562.861,1041.7
563.4,1056.0
563.939,1058.5
564.477,1068.4
565.015,1080.4
565.554,1086.3
566.092,1094.1
566.63,1090.1
567.168,1104.5
567.706,1111.8
568.244,1120.0
568.781,1137.8
569.319,1148.4
569.857,1155.3
570.394,1171.6
570.931,1171.5
571.468,1185.0
572.005,1200.8
572.542,1202.9
573.079,1223.2
573.616,1231.1
574.153,1240.0
574.689,1263.7
575.226,1250.8
575.762,1260.0
576.298,1263.3
576.834,1268.7
577.371,1275.8
577.907,1282.6
578.442,1276.0
578.978,1275.4
579.514,1282.0
580.049,1282.1
580.585,1284.4
581.12,1285.1
581.656,1294.7
582.191,1291.9
582.726,1286.3
583.261,1286.4
583.796,1283.2
584.331,1291.0
584.865,1278.2
585.4,1272.3
585.935,1291.0
586.469,1286.4
587.004,1286.0
587.538,1291.5
588.072,1282.3
588.606,1270.0
589.14,1278.1
589.674,1268.0
590.208,1272.5
590.742,1278.8
591.275,1273.0
591.809,1271.3
592.342,1264.7
592.876,1262.4
593.409,1263.6
593.942,1268.3
594.476,1270.4
595.009,1267.2
595.542,1264.5
596.075,1265.0
596.607,1267.2
597.14,1263.5
597.673,1258.9
598.205,1265.6
598.738,1258.3
599.27,1259.9
599.803,1262.4
600.335,1266.2
600.867,1262.3
601.399,1245.0
601.931,1252.3
602.463,1255.3
602.995,1246.8
603.527,1253.5
604.058,1255.2
604.59,1258.6
605.122,1242.2
605.653,1246.0
606.184,1233.9
606.716,1232.3
607.247,1239.9
607.778,1239.6
608.309,1239.3
608.84,1242.5
609.371,1250.7
609.902,1241.3
610.433,1230.6
610.964,1243.2
611.494,1233.3
612.025,1241.8
612.556,1241.6
613.086,1241.1
613.616,1243.5
614.147,1246.9
614.677,1249.1
615.207,1244.2
615.737,1240.1
616.267,1233.2
616.797,1247.0
617.327,1236.0
617.857,1242.4
618.387,1240.4
618.917,1227.8
619.446,1242.7
619.976,1231.5
620.505,1227.8
621.035,1227.0
621.564,1224.5
622.093,1233.7
622.623,1233.1
623.152,1230.7
623.681,1227.9
624.21,1239.3
624.739,1225.6
625.268,1224.7
625.797,1226.9
626.326,1219.4
626.855,1217.2
627.383,1213.7
627.912,1220.0
628.441,1217.6
628.969,1225.6
629.498,1222.1
630.026,1224.8
630.554,1233.0
631.083,1258.0
631.611,1240.0
632.139,1223.0
632.667,1218.8
633.195,1217.2
633.724,1208.7
634.252,1194.7
634.779,1188.3
635.307,1189.0
635.835,1184.5
636.363,1189.9
636.891,1183.9
637.418,1179.8
637.946,1176.0
638.474,1175.1
639.001,1173.4
639.529,1172.2
640.056,1163.2
640.583,1163.2
641.111,1165.9
641.638,1162.8
642.165,1149.8
642.692,1153.6
643.22,1152.4
643.747,1145.6
644.274,1131.9
644.801,1140.4
645.328,1139.9
645.854,1130.4
646.381,1133.0
646.908,1132.6
647.435,1129.8
647.962,1131.7
648.488,1129.2
649.015,1123.0
649.542,1121.0
650.068,1115.0
650.595,1110.1
651.121,1108.4
651.648,1118.1
652.174,1105.3
652.7,1107.8
653.227,1110.1
653.753,1098.9
654.279,1110.5
654.805,1100.1
655.331,1098.9
655.858,1098.6
656.384,1091.5
656.91,1097.2
657.436,1097.6
657.962,1093.1
658.488,1093.2
659.013,1090.3
659.539,1089.8
660.065,1091.6
660.591,1087.4
661.117,1081.7
661.642,1076.0
662.168,1076.2
662.694,1080.6
663.088,1079.0

File: VLFR_08-PLA_nobio_Raman_9c9ab1c9.csv
nm,Intensity
526.486,831.2
527.033,831.4
527.579,830.9
528.126,830.6
528.672,829.9
529.219,830.6
529.765,830.6
530.311,830.4
530.857,830.2
531.403,830.7
531.948,833.0
532.494,831.2
533.039,831.0
533.585,830.9
534.13,1042.6
534.675,1010.0
535.22,977.8
535.764,961.2
536.309,950.1
536.854,959.2
537.398,946.6
537.942,942.3
538.486,936.9
539.03,935.2
539.574,933.1
540.118,924.2
540.662,942.3
541.205,941.6
541.749,936.7
542.292,933.1
542.835,930.0
543.378,954.9
543.921,961.9
544.464,946.4
545.006,934.8
545.549,931.9
546.091,932.3
546.634,932.9
547.176,936.9
547.718,936.2
548.26,938.4
548.802,939.9
549.343,945.8
549.885,941.9
550.426,942.5
550.968,948.6
551.509,949.6
552.05,951.0
552.591,954.2
553.132,953.8
553.673,949.3
554.214,961.3
554.754,958.5
555.295,947.9
555.835,946.1
556.375,945.4
556.915,951.9
557.455,968.4
557.995,1067.3
558.535,985.2
559.075,969.4
559.614,961.8
560.154,964.3
560.693,961.5
561.232,956.0
561.772,951.9
562.311,957.2
562.85,968.6
563.388,999.2
563.927,980.7
564.466,972.2
565.004,999.0
565.543,991.4
566.081,1015.3
566.619,989.6
567.157,969.0
567.695,975.6
568.233,973.3
568.771,980.8
569.309,981.0
569.846,978.0
570.384,982.9
570.921,977.5
571.458,993.8
571.995,998.7
572.532,993.8
573.069,996.3
573.606,996.4
574.143,988.1
574.68,1000.6
575.216,983.5
575.753,990.2
576.289,1000.6
576.825,1057.5
577.361,1008.1
577.897,986.0
578.433,989.8
578.969,987.5
579.505,987.1
580.041,988.4
580.576,987.5
581.112,989.2
581.647,991.9
582.183,989.6
582.718,987.8
583.253,993.6
583.788,992.4
584.323,998.1
584.858,989.7
585.392,997.0
585.927,995.2
586.462,1006.2
586.996,1040.0
587.53,1066.1
588.065,1021.1
588.599,1000.5
589.133,992.8
589.667,987.8
590.201,994.3
590.735,995.8
591.268,996.9
591.802,995.7
592.335,996.9
592.869,988.6
593.402,991.2
593.936,992.6
594.469,988.4
595.002,996.5
595.535,991.1
596.068,993.1
596.601,992.1
597.133,992.5
597.666,991.7
598.199,995.6
598.731,996.4
599.264,998.3
599.796,996.2
600.328,998.0
600.86,993.2
601.393,993.5
601.925,988.6
602.457,990.9
602.988,994.8
603.52,992.4
604.052,992.3
604.583,995.1
605.115,990.8
605.646,984.6
606.178,988.2
606.709,988.0
607.24,983.1
607.771,987.3
608.302,991.3
608.833,989.3
609.364,992.0
609.895,990.8
610.426,989.3
610.957,985.6
611.487,990.0
612.018,992.7
612.548,990.8
613.078,990.0
613.609,988.0
614.139,991.4
614.669,995.3
615.199,990.9
615.729,993.1
616.259,988.6
616.789,990.3
617.319,992.9
617.849,990.5
618.378,988.5
618.908,981.4
619.437,987.8
619.967,990.8
620.496,986.2
621.025,986.1
621.555,982.1
622.084,990.9
622.613,993.3
623.142,999.9
623.671,999.2
624.2,996.6
624.729,986.2
625.258,989.4
625.786,993.5
626.315,988.4
626.844,986.5
627.372,986.3
627.901,995.1
628.429,1058.9
628.957,1050.1
629.486,1050.3
630.014,1046.3
630.542,1109.0
631.07,1474.1
631.598,1253.0
632.126,1115.7
632.654,1095.6
633.182,1180.6
633.71,1144.3
634.237,1058.3
634.765,1002.3
635.293,993.1
635.82,983.3
636.348,980.4
636.875,977.8
637.403,978.8
637.93,978.2
638.458,973.5
638.985,971.1
639.512,973.9
640.039,974.9
640.566,972.4
641.093,972.8
641.62,970.9
642.147,970.2
642.674,971.2
643.201,971.5
643.728,966.5
644.255,964.1
644.781,965.6
645.308,961.0
645.835,960.7
646.361,957.0
646.888,960.6
647.414,957.0
647.941,961.1
648.467,957.0
648.993,956.2
649.52,955.7
650.046,953.0
650.572,949.8
651.098,952.1
651.625,957.2
652.151,958.3
652.677,955.1
653.203,951.1
653.729,958.0
654.255,949.8
654.78,951.2
655.306,949.1
655.832,949.0
656.358,950.5
656.884,952.3
657.409,953.0
657.935,947.6
658.461,948.3
658.986,947.9
659.512,948.8
660.037,944.9
660.563,947.7
661.088,943.6
661.614,944.8
662.139,943.9
662.664,946.5
663.058,943.0

File: VLFR_08-PLA_nobio_Raman_9c88f778.csv
nm,Intensity
526.508,830.0
527.055,830.5
527.602,830.267
528.149,830.2
528.695,829.8
529.241,829.667
529.787,830.767
530.334,830.133
530.879,830.1
531.425,829.667
531.971,832.7
532.516,830.067
533.062,830.167
533.607,830.8
534.152,926.533
534.697,909.933
535.242,893.6
535.786,886.667
536.331,884.767
536.876,884.067
537.42,877.867
537.964,880.1
538.508,874.033
539.052,874.7
539.596,873.167
540.14,870.1
540.683,876.4
541.227,875.9
541.77,875.1
542.313,871.4
542.856,872.033
543.399,880.5
543.942,884.7
544.485,875.3
545.027,872.2
545.57,870.7
546.112,870.0
546.654,870.8
547.196,870.867
547.738,872.233
548.28,873.1
548.822,872.467
549.363,874.8
549.905,873.5
550.446,874.533
550.988,875.4
551.529,876.233
552.07,878.4
552.611,878.067
553.152,878.767
553.692,878.133
554.233,881.333
554.773,877.9
555.314,875.667
555.854,875.333
556.394,875.133
556.934,875.9
557.474,883.867
558.014,927.033
558.553,891.267
559.093,883.8
559.632,882.0
560.172,880.733
560.711,878.933
561.25,880.167
561.789,881.033
562.328,881.3
562.867,885.7
563.406,899.167
563.944,890.8
564.483,886.5
565.021,895.133
565.559,896.1
566.098,907.467
566.636,895.667
567.174,885.833
567.711,886.9
568.249,890.8
568.787,891.433
569.324,890.9
569.862,890.233
570.399,889.133
570.936,890.867
571.474,897.733
572.011,899.3
572.548,896.067
573.084,897.333
573.621,899.833
574.158,896.5
574.694,902.267
575.231,893.0
575.767,891.467
576.303,899.7
576.84,923.733
577.376,902.233
577.912,892.667
578.447,891.9
578.983,893.633
579.519,893.967
580.054,892.167
580.59,890.767
581.125,894.233
581.661,893.4
582.196,892.267
582.731,892.467
583.266,893.067
583.801,896.133
584.336,894.133
584.87,895.167
585.405,893.8
585.94,894.4
586.474,899.7
587.008,913.1
587.543,922.033
588.077,903.8
588.611,896.533
589.145,893.567
589.679,894.333
590.213,893.367
590.747,892.533
591.28,895.4
591.814,894.6
592.347,895.033
592.881,894.0
593.414,894.233
593.947,892.167
594.48,893.0
595.014,894.633
595.547,894.8
596.079,895.767
596.612,896.633
597.145,894.033
597.678,896.567
598.21,896.2
598.743,895.233
599.275,897.7
599.807,896.4
600.34,898.2
600.872,897.0
601.404,897.0
601.936,896.8
602.468,895.633
603.0,897.1
603.532,898.367
604.063,897.4
604.595,897.933
605.126,898.4
605.658,897.433
606.189,898.9
606.721,898.633
607.252,899.033
607.783,901.333
608.314,901.1
608.845,899.5
609.376,901.667
609.907,901.333
610.438,901.267
610.968,901.6
611.499,901.833
612.03,903.4
612.56,904.267
613.091,906.833
613.621,907.333
614.151,908.133
614.681,907.133
615.212,906.333
615.742,908.033
616.272,906.2
616.802,906.7
617.332,910.5
617.861,907.6
618.391,908.8
618.921,907.767
619.45,909.9
619.98,910.167
620.509,911.3
621.039,909.533
621.568,908.233
622.097,909.867
622.627,913.9
623.156,915.4
623.685,915.833
624.214,912.633
624.743,909.1
625.272,911.333
625.801,909.333
626.33,908.767
626.858,912.1
627.387,910.8
627.916,912.3
628.444,938.233
628.973,936.767
629.501,934.0
630.029,936.2
630.558,957.1
631.086,1094.6
631.614,1005.33
632.142,957.433
632.67,946.033
633.198,985.4
633.726,968.133
634.254,933.0
634.782,913.1
635.31,907.567
635.838,904.9
636.365,903.967
636.893,905.0
637.421,901.233
637.948,901.067
638.476,900.367
639.003,901.0
639.531,898.3
640.058,900.633
640.585,899.167
641.113,901.4
641.64,898.333
642.167,897.4
642.694,898.733
643.221,897.733
643.748,894.933
644.275,893.367
644.802,894.633
645.329,892.5
645.856,893.8
646.382,894.133
646.909,891.533
647.436,891.167
647.962,889.6
648.489,891.567
649.016,891.2
649.542,890.667
650.069,890.033
650.595,889.667
651.121,887.433
651.648,888.733
652.174,887.333
652.7,885.733
653.227,888.3
653.753,889.267
654.279,886.4
654.805,887.567
655.331,887.433
655.857,886.3
656.383,886.533
656.909,884.9
657.435,885.167
657.961,884.933
658.487,884.267
659.013,883.333
659.538,884.933
660.064,883.8
660.59,884.367
661.116,883.567
661.641,881.833
662.167,883.433
662.692,881.967
663.087,880.667