Folder: MPX_specDB/spectra (part 93)

File: VLFR_07-PET_bio_Raman_01ef9eac.csv
nm,Intensity
791.75,12332.8
792.846,11456.8
793.942,11124.7
795.037,10802.7
796.133,10737.2
797.228,10823.5
798.324,10716.8
799.419,10762.0
800.514,10501.8
801.61,10643.8
802.705,10688.8
803.8,10399.8
804.894,10405.2
805.989,10351.0
807.084,10195.5
808.178,10039.6
809.273,9946.9
810.367,9896.95
811.461,9851.3
812.556,9756.1
813.65,9709.7
814.744,9444.8
815.837,9476.3
816.931,9369.25
818.025,9188.55
819.118,9122.6
820.212,9062.45
821.305,9014.65
822.398,8860.85
823.491,8698.3
824.585,8813.4
825.677,8948.2
826.77,8621.3
827.863,8416.1
828.956,8400.1
830.048,8396.95
831.14,8403.35
832.233,8311.75
833.325,8318.85
834.417,8190.35
835.509,8112.25
836.601,8174.5
837.692,8098.7
838.784,8272.1
839.876,8081.45
840.967,8475.5
842.058,8082.45
843.149,8042.95
844.24,7893.8
845.331,7688.65
846.422,7610.05
847.513,7603.15
848.604,7502.7
849.694,7481.8
850.784,7377.95
851.875,7430.65
852.965,7352.85
854.055,7302.4
855.145,7259.25
856.235,7138.4
857.324,7229.45
858.414,7299.5
859.503,7338.85
860.593,7149.85
861.682,7001.1
862.771,6993.0
863.86,6930.7
864.949,6934.8
866.038,6850.95
867.126,6773.4
868.215,6705.2
869.303,6784.2
870.391,6834.65
871.479,6937.65
872.567,7146.1
873.655,6885.85
874.743,6702.95
875.831,6556.85
876.918,6513.4
878.006,6475.5
879.093,6452.4
880.18,6445.0
881.267,6398.1
882.354,6354.0
883.441,6308.85
884.527,6313.95
885.614,6342.5
886.7,6150.1
887.786,6209.5
888.872,6079.7
889.958,6091.65
891.044,6083.45
892.13,6029.05
893.216,5945.0
894.301,5938.85
895.386,5855.05
896.472,5940.5
897.557,6426.35
898.642,6472.85
899.726,5919.0
900.811,5696.1
901.896,5650.6
902.98,5656.0
904.064,5623.75
905.148,5581.5
906.232,5866.9
907.316,6162.25
908.4,5869.1
909.484,5537.45
910.567,5377.05
911.65,5309.3
912.734,5295.95
913.817,5240.6
914.9,5201.1
915.982,5133.7
917.065,5138.7
918.147,5088.8
919.23,5050.6
920.312,5004.2
921.394,4977.6
922.476,4934.75
923.558,4898.05
924.639,4901.85
925.721,4863.3
926.802,4833.55
927.884,4749.1
928.965,4742.65
930.046,4671.3
931.126,4670.05
932.207,4637.65
933.288,4601.5
934.368,4573.85
935.448,4547.4
936.528,4526.2
937.608,4466.9
938.688,4461.55
939.767,4462.55
940.847,4432.4
941.926,4406.05
943.005,4369.25
944.084,4369.95
945.163,4368.25
946.242,4328.65
947.321,4287.85
948.399,4280.85
949.477,4267.0
950.556,4237.15
951.634,4232.25
952.711,4212.9
953.789,4197.1
954.867,4184.0
955.944,4171.0
957.021,4141.95
958.098,4133.8
959.175,4119.4
960.252,4100.25
961.328,4106.55
962.405,4076.95
963.481,4074.35
964.557,4053.25
965.633,4050.5
966.709,4052.7
967.785,4027.6
968.86,4015.9
969.936,4008.0
971.011,4004.6
972.086,3985.1
973.161,3978.0
974.235,3966.7
975.31,3964.9
976.384,3953.7
977.459,3932.15
978.533,3934.6
979.607,3937.05
980.68,3928.5
981.754,3911.6
982.827,3907.15
983.901,3904.25
984.974,3896.85
986.047,3895.5
987.119,3881.25
988.192,3871.0
989.264,3873.35
990.337,3865.55
991.409,3856.65
992.481,3845.7
993.553,3847.65
994.624,3844.25
995.696,3831.95
996.767,3828.15
997.838,3823.25
998.909,3813.1
999.98,3811.95
1001.05,3816.55
1002.12,3806.75
1003.19,3803.2
1004.26,3799.1
1005.33,3791.8
1006.4,3787.85
1007.47,3785.3
1008.54,3782.0
1009.61,3773.05
1010.68,3776.75
1011.75,3773.35
1012.82,3769.25
1013.88,3767.7
1014.95,3770.35
1016.02,3763.8
1017.09,3756.4
1018.16,3758.55
1019.22,3759.2
1020.29,3757.85
1021.36,3763.4
1022.43,3767.6
1023.49,3761.45
1024.56,3751.5
1025.63,3746.2
1026.69,3740.15
1027.76,3736.25
1028.83,3733.2
1029.89,3731.05
1030.96,3727.05
1032.02,3728.4
1033.09,3731.95
1034.15,3734.9
1035.22,3733.8
1036.28,3726.4
1037.35,3722.0
1038.41,3717.15
1039.48,3716.9
1040.54,3715.3
1041.6,3713.0
1042.67,3712.45
1043.73,3710.35
1044.79,3709.9
1045.86,3708.7
1046.92,3708.45
1047.98,3708.75
1049.05,3707.05
1050.11,3705.3
1051.17,3707.05
1052.23,3707.3
1053.29,3705.95
1054.36,3704.95
1055.42,3704.35
1056.48,3706.3
1057.54,3702.6
1058.6,3702.45
1059.66,3703.4
1060.72,3703.45
1061.78,3701.85
1062.84,3701.5
1063.9,3702.2
1064.96,3702.0
1066.02,3701.7
1067.08,3701.0
1067.88,3700.55

File: VLFR_07-PET_bio_Raman_2af643b3.csv
nm,Intensity
791.75,7353.45
792.846,7135.5
793.942,7193.2
795.037,7243.65
796.133,7109.8
797.228,7134.5
798.324,7038.0
799.419,7012.4
800.514,7155.0
801.61,7124.25
802.705,7046.35
803.8,7032.5
804.894,7006.75
805.989,7017.05
807.084,7060.2
808.178,6988.55
809.273,7103.55
810.367,6918.45
811.461,6999.4
812.556,6930.2
813.65,6951.05
814.744,6944.25
815.837,6817.1
816.931,6875.4
818.025,6941.5
819.118,6812.25
820.212,6762.5
821.305,6833.95
822.398,6683.6
823.491,6747.95
824.585,6805.9
825.677,6735.7
826.77,6744.9
827.863,6715.4
828.956,6715.05
830.048,6732.85
831.14,6687.4
832.233,6768.4
833.325,6621.95
834.417,6588.8
835.509,6715.2
836.601,6663.0
837.692,6658.0
838.784,6642.85
839.876,6573.5
840.967,6641.6
842.058,6649.95
843.149,6573.05
844.24,6568.45
845.331,6634.15
846.422,6557.1
847.513,6489.45
848.604,6493.8
849.694,6473.4
850.784,6478.75
851.875,6493.65
852.965,6504.65
854.055,6457.25
855.145,6456.75
856.235,6417.55
857.324,6452.65
858.414,6660.15
859.503,6440.95
860.593,6466.75
861.682,6442.6
862.771,6296.05
863.86,6452.55
864.949,6326.1
866.038,6457.65
867.126,6277.15
868.215,6258.9
869.303,6347.65
870.391,6279.8
871.479,6252.7
872.567,6366.55
873.655,6429.25
874.743,6421.5
875.831,6230.5
876.918,6256.2
878.006,6208.65
879.093,6200.75
880.18,6231.45
881.267,6130.95
882.354,6100.7
883.441,6296.45
884.527,6084.6
885.614,6160.8
886.7,6065.0
887.786,6240.8
888.872,6106.25
889.958,6106.2
891.044,6154.95
892.13,6142.5
893.216,6025.95
894.301,6000.3
895.386,6157.2
896.472,5853.05
897.557,5938.7
898.642,5991.6
899.726,5931.65
900.811,5888.85
901.896,5871.6
902.98,5970.0
904.064,5837.1
905.148,5954.05
906.232,5879.9
907.316,5865.15
908.4,5874.25
909.484,5771.95
910.567,5720.3
911.65,5694.65
912.734,5836.15
913.817,5700.45
914.9,5664.0
915.982,5736.65
917.065,5569.3
918.147,5606.3
919.23,5609.15
920.312,5700.75
921.394,5598.7
922.476,5569.4
923.558,5489.3
924.639,5395.3
925.721,5404.35
926.802,5550.5
927.884,5357.7
928.965,5300.2
930.046,5371.5
931.126,5272.9
932.207,5369.7
933.288,5321.5
934.368,5248.45
935.448,5208.45
936.528,5267.85
937.608,5216.55
938.688,5114.2
939.767,5229.2
940.847,5163.4
941.926,5101.05
943.005,4989.9
944.084,5053.9
945.163,5061.8
946.242,4980.55
947.321,5001.95
948.399,5019.8
949.477,4967.65
950.556,4938.95
951.634,4969.45
952.711,4910.8
953.789,4856.7
954.867,4920.5
955.944,4874.15
957.021,4721.15
958.098,4839.85
959.175,4833.9
960.252,4747.5
961.328,4719.5
962.405,4760.1
963.481,4766.3
964.557,4750.25
965.633,4667.0
966.709,4598.05
967.785,4593.3
968.86,4643.9
969.936,4612.75
971.011,4571.5
972.086,4570.8
973.161,4517.55
974.235,4541.75
975.31,4464.55
976.384,4478.2
977.459,4495.85
978.533,4400.7
979.607,4480.4
980.68,4457.6
981.754,4480.0
982.827,4395.5
983.901,4369.8
984.974,4358.6
986.047,4315.15
987.119,4350.9
988.192,4300.3
989.264,4327.05
990.337,4284.35
991.409,4269.15
992.481,4245.65
993.553,4300.6
994.624,4189.65
995.696,4244.1
996.767,4219.15
997.838,4230.25
998.909,4171.7
999.98,4192.75
1001.05,4179.1
1002.12,4164.1
1003.19,4151.4
1004.26,4107.0
1005.33,4116.3
1006.4,4090.25
1007.47,4082.4
1008.54,4121.4
1009.61,4049.2
1010.68,4072.15
1011.75,4051.45
1012.82,4061.8
1013.88,4018.75
1014.95,4022.25
1016.02,4025.3
1017.09,3984.7
1018.16,4003.65
1019.22,3979.05
1020.29,3977.25
1021.36,3974.4
1022.43,3946.75
1023.49,3940.15
1024.56,3942.75
1025.63,3941.45
1026.69,3927.15
1027.76,3923.2
1028.83,3889.7
1029.89,3894.8
1030.96,3879.9
1032.02,3902.65
1033.09,3873.8
1034.15,3866.95
1035.22,3875.6
1036.28,3865.9
1037.35,3861.2
1038.41,3858.0
1039.48,3846.95
1040.54,3852.35
1041.6,3840.85
1042.67,3831.05
1043.73,3835.3
1044.79,3822.9
1045.86,3819.8
1046.92,3816.5
1047.98,3817.0
1049.05,3804.05
1050.11,3813.15
1051.17,3808.95
1052.23,3808.8
1053.29,3802.1
1054.36,3803.75
1055.42,3798.5
1056.48,3798.85
1057.54,3800.0
1058.6,3793.9
1059.66,3793.35
1060.72,3789.15
1061.78,3788.7
1062.84,3785.2
1063.9,3788.45
1064.96,3779.45
1066.02,3782.15
1067.08,3782.05
1067.88,3780.05

File: VLFR_07-PET_bio_Raman_2d23cffb.csv
nm,Intensity
791.75,11295.6
792.846,10596.3
793.942,10319.7
795.037,10256.9
796.133,10095.8
797.228,10039.2
798.324,10071.2
799.419,10031.1
800.514,9940.65
801.61,10027.0
802.705,9990.15
803.8,9722.3
804.894,9865.45
805.989,9717.7
807.084,9576.5
808.178,9555.9
809.273,9496.0
810.367,9403.1
811.461,9284.1
812.556,9174.1
813.65,9203.4
814.744,8998.65
815.837,8897.4
816.931,8900.6
818.025,8763.15
819.118,8650.95
820.212,8719.55
821.305,8511.85
822.398,8450.15
823.491,8454.55
824.585,8415.15
825.677,8429.7
826.77,8221.0
827.863,8122.95
828.956,8022.75
830.048,8041.5
831.14,7980.2
832.233,7811.6
833.325,7824.15
834.417,7761.75
835.509,7758.4
836.601,7657.95
837.692,7739.35
838.784,7645.3
839.876,7596.95
840.967,7707.3
842.058,7644.35
843.149,7440.45
844.24,7378.85
845.331,7236.35
846.422,7196.85
847.513,7152.05
848.604,7054.4
849.694,6993.05
850.784,7002.85
851.875,7006.65
852.965,6903.0
854.055,6909.35
855.145,6755.7
856.235,6742.35
857.324,6765.2
858.414,6777.85
859.503,6830.0
860.593,6782.15
861.682,6570.9
862.771,6552.7
863.86,6626.25
864.949,6504.55
866.038,6482.35
867.126,6403.85
868.215,6414.95
869.303,6239.75
870.391,6437.35
871.479,6438.0
872.567,6559.5
873.655,6502.75
874.743,6322.5
875.831,6259.45
876.918,6179.95
878.006,6164.1
879.093,6071.3
880.18,6054.6
881.267,6000.2
882.354,6091.35
883.441,5982.7
884.527,5968.4
885.614,5984.1
886.7,5841.95
887.786,5851.5
888.872,5831.7
889.958,5733.9
891.044,5722.5
892.13,5711.1
893.216,5631.4
894.301,5671.15
895.386,5588.7
896.472,5559.9
897.557,5809.8
898.642,5900.55
899.726,5654.6
900.811,5415.05
901.896,5351.3
902.98,5368.55
904.064,5359.25
905.148,5328.95
906.232,5422.6
907.316,5552.1
908.4,5470.8
909.484,5308.45
910.567,5192.7
911.65,5105.6
912.734,5065.45
913.817,5049.5
914.9,5005.3
915.982,4947.0
917.065,4964.65
918.147,4866.55
919.23,4893.15
920.312,4853.2
921.394,4817.55
922.476,4777.8
923.558,4773.55
924.639,4715.85
925.721,4713.6
926.802,4662.25
927.884,4639.55
928.965,4643.65
930.046,4557.4
931.126,4530.4
932.207,4530.6
933.288,4513.3
934.368,4474.05
935.448,4432.2
936.528,4427.95
937.608,4385.75
938.688,4384.75
939.767,4363.4
940.847,4337.75
941.926,4310.95
943.005,4303.0
944.084,4279.8
945.163,4263.95
946.242,4235.0
947.321,4237.45
948.399,4215.45
949.477,4200.25
950.556,4192.6
951.634,4162.4
952.711,4171.05
953.789,4137.05
954.867,4139.4
955.944,4105.8
957.021,4103.2
958.098,4091.0
959.175,4085.55
960.252,4064.25
961.328,4058.75
962.405,4046.1
963.481,4037.95
964.557,4027.55
965.633,4025.0
966.709,4016.65
967.785,3999.9
968.86,3998.6
969.936,3985.1
971.011,3979.8
972.086,3969.6
973.161,3952.25
974.235,3953.3
975.31,3949.85
976.384,3944.65
977.459,3937.4
978.533,3934.0
979.607,3917.75
980.68,3912.6
981.754,3905.4
982.827,3900.35
983.901,3897.15
984.974,3896.85
986.047,3892.3
987.119,3887.85
988.192,3879.1
989.264,3871.7
990.337,3866.9
991.409,3862.15
992.481,3857.9
993.553,3852.75
994.624,3853.85
995.696,3846.4
996.767,3838.8
997.838,3840.55
998.909,3833.45
999.98,3832.25
1001.05,3828.55
1002.12,3823.2
1003.19,3823.8
1004.26,3815.4
1005.33,3814.85
1006.4,3812.9
1007.47,3806.1
1008.54,3804.65
1009.61,3798.85
1010.68,3803.55
1011.75,3799.1
1012.82,3793.05
1013.88,3794.2
1014.95,3789.55
1016.02,3788.0
1017.09,3784.35
1018.16,3784.4
1019.22,3784.75
1020.29,3784.1
1021.36,3782.3
1022.43,3786.05
1023.49,3779.9
1024.56,3777.15
1025.63,3776.8
1026.69,3771.0
1027.76,3769.2
1028.83,3766.05
1029.89,3762.75
1030.96,3762.4
1032.02,3761.45
1033.09,3761.15
1034.15,3763.35
1035.22,3765.05
1036.28,3761.35
1037.35,3758.85
1038.41,3756.15
1039.48,3753.95
1040.54,3753.3
1041.6,3752.95
1042.67,3752.9
1043.73,3750.55
1044.79,3751.05
1045.86,3749.55
1046.92,3750.05
1047.98,3748.3
1049.05,3747.15
1050.11,3747.85
1051.17,3746.8
1052.23,3746.7
1053.29,3746.05
1054.36,3745.35
1055.42,3745.1
1056.48,3745.45
1057.54,3745.1
1058.6,3743.9
1059.66,3744.75
1060.72,3745.05
1061.78,3741.95
1062.84,3743.75
1063.9,3743.05
1064.96,3742.35
1066.02,3742.25
1067.08,3743.0
1067.88,3741.85

File: VLFR_07-PET_bio_Raman_2e038444.csv
nm,Intensity
791.377,4207.2
792.477,4196.9
793.576,4195.5
794.676,4199.6
795.775,4210.1
796.874,4190.9
797.973,4184.1
799.072,4182.7
800.171,4207.9
801.27,4168.6
802.368,4141.8
803.467,4141.6
804.565,4146.7
805.664,4146.9
806.762,4139.0
807.86,4135.3
808.958,4125.9
810.056,4111.1
811.153,4114.8
812.251,4132.5
813.349,4161.7
814.446,4119.8
815.543,4090.8
816.64,4079.0
817.737,4072.7
818.834,4068.7
819.931,4067.8
821.028,4063.2
822.125,4059.0
823.221,4099.2
824.317,4082.8
825.414,4056.5
826.51,4041.3
827.606,4040.4
828.702,4023.2
829.797,4012.4
830.893,4005.7
831.988,4004.4
833.084,3995.1
834.179,3993.8
835.274,3988.2
836.369,3982.1
837.464,3979.6
838.559,3980.3
839.654,3972.7
840.748,3966.4
841.843,3967.9
842.937,3964.5
844.031,3956.7
845.125,3957.3
846.219,3955.4
847.313,3950.5
848.407,3949.7
849.5,3953.5
850.593,3960.8
851.687,4288.1
852.78,4128.0
853.873,3952.4
854.966,3930.3
856.059,3937.0
857.151,3937.3
858.244,3956.2
859.336,3950.4
860.428,3927.8
861.52,3928.6
862.612,3926.2
863.704,3923.6
864.796,3913.3
865.888,3906.4
866.979,3902.7
868.07,3905.7
869.162,3901.4
870.253,3895.7
871.344,3894.2
872.434,3894.2
873.525,3900.5
874.615,3893.1
875.706,3890.4
876.796,3886.0
877.886,3890.4
878.976,3878.9
880.066,3883.3
881.156,3880.3
882.245,3874.7
883.335,3868.9
884.424,3872.9
885.513,3870.7
886.602,3867.9
887.691,3867.7
888.78,3864.0
889.868,3860.3
890.957,3863.6
892.045,3860.1
893.133,3855.1
894.221,3846.5
895.309,3850.0
896.397,3851.4
897.484,3843.6
898.571,3846.9
899.659,3849.8
900.746,3842.2
901.833,3844.0
902.92,3840.2
904.006,3835.4
905.093,3832.8
906.179,3829.7
907.266,3832.0
908.352,3831.5
909.438,3827.5
910.523,3825.0
911.609,3820.9
912.695,3817.8
913.78,3815.0
914.865,3817.3
915.95,3818.0
917.035,3811.1
918.12,3807.8
919.204,3805.8
920.289,3807.1
921.373,3803.7
922.457,3803.5
923.541,3800.6
924.625,3800.5
925.709,3801.1
926.792,3796.3
927.876,3798.3
928.959,3792.5
930.042,3796.0
931.125,3791.8
932.208,3792.0
933.29,3787.0
934.373,3793.3
935.455,3789.6
936.537,3787.1
937.619,3784.8
938.701,3784.2
939.782,3785.3
940.864,3784.0
941.945,3785.0
943.026,3781.7
944.107,3781.6
945.188,3779.5
946.269,3780.2
947.349,3776.7
948.43,3775.1
949.51,3774.9
950.59,3778.7
951.67,3775.4
952.75,3776.0
953.829,3771.2
954.909,3772.3
955.988,3770.4
957.067,3771.2
958.146,3769.8
959.224,3768.9
960.303,3769.1
961.381,3769.1
962.459,3766.8
963.537,3768.2
964.615,3766.8
965.693,3769.1
966.771,3765.4
967.848,3766.4
968.925,3765.6
970.002,3766.1
971.079,3763.4
972.156,3763.2
973.232,3764.1
974.309,3764.5
975.385,3764.3
976.461,3762.9
977.537,3760.9
978.612,3763.1
979.688,3766.0
980.763,3759.8
981.838,3759.4
982.913,3762.8
983.988,3761.3
985.063,3760.9
986.137,3760.2
987.211,3758.3
988.285,3760.2
989.359,3759.5
990.433,3759.1
991.506,3761.1
992.58,3759.3
993.653,3759.6
994.726,3758.5
995.799,3757.3
996.872,3759.1
997.944,3758.1
999.016,3759.3
1000.09,3758.1
1001.16,3757.5
1002.23,3757.0
1003.3,3758.2
1004.38,3756.2
1005.45,3758.0
1006.52,3756.6
1007.59,3756.7
1008.66,3757.4
1009.73,3758.2
1010.8,3756.5
1011.87,3756.0
1012.94,3755.7
1014.01,3758.4
1015.08,3756.2
1016.15,3755.6
1017.22,3755.7
1018.29,3756.6
1019.36,3756.7
1020.42,3757.2
1021.49,3756.7
1022.56,3755.8
1023.63,3755.7
1024.7,3755.5
1025.76,3754.4
1026.83,3755.1
1027.9,3754.2
1028.97,3754.7
1030.03,3754.3
1031.1,3753.0
1032.17,3754.6
1033.23,3754.1
1034.3,3754.7
1035.36,3755.1
1036.43,3754.9
1037.5,3755.4
1038.56,3754.1
1039.63,3754.3
1040.69,3753.4
1041.76,3755.6
1042.82,3753.2
1043.89,3752.5
1044.95,3754.7
1046.01,3752.2
1047.08,3755.5
1048.14,3754.9
1049.2,3753.2
1050.27,3754.4
1051.33,3753.6
1052.39,3756.0
1053.46,3754.5
1054.52,3753.3
1055.58,3754.3
1056.64,3752.5
1057.7,3752.9
1058.77,3754.0
1059.83,3755.9
1060.89,3753.4
1061.95,3754.2
1063.01,3753.6
1064.07,3753.8
1065.13,3753.6
1066.19,3754.1
1067.25,3754.1
1068.05,3755.0

File: VLFR_07-PET_bio_Raman_3aaf484a.csv
nm,Intensity
791.588,11780.3
792.685,11057.6
793.781,10749.3
794.878,10591.0
795.975,10628.6
797.071,10562.1
798.168,10574.7
799.264,10594.6
800.36,10524.0
801.456,10571.1
802.552,10642.0
803.648,10430.7
804.744,10216.1
805.84,10204.3
806.936,10043.6
808.031,9926.9
809.127,9803.1
810.222,9737.2
811.317,9592.0
812.412,9474.6
813.507,9347.9
814.602,9261.2
815.697,9272.3
816.792,9084.6
817.887,9024.0
818.981,8989.4
820.076,8967.0
821.17,8890.8
822.265,8750.7
823.359,8613.6
824.453,8624.3
825.547,8664.8
826.641,8569.3
827.735,8408.5
828.828,8308.1
829.922,8350.6
831.016,8235.5
832.109,8161.8
833.202,8046.6
834.295,7988.1
835.388,7904.5
836.481,7904.5
837.574,7933.2
838.667,7877.6
839.76,7795.5
840.852,7828.8
841.945,7835.4
843.037,7623.9
844.129,7582.8
845.221,7449.1
846.314,7288.5
847.405,7301.4
848.497,7207.1
849.589,7204.5
850.68,7132.3
851.772,7071.9
852.863,7046.7
853.955,7031.7
855.046,6994.8
856.137,6893.5
857.228,6937.9
858.318,6883.2
859.409,7027.0
860.5,6930.1
861.59,6803.4
862.681,6694.4
863.771,6670.3
864.861,6721.1
865.951,6646.4
867.041,6567.0
868.131,6549.1
869.22,6549.5
870.31,6601.9
871.399,6640.6
872.488,6683.4
873.578,6751.7
874.667,6601.2
875.756,6487.0
876.845,6388.2
877.933,6327.0
879.022,6367.1
880.11,6209.3
881.199,6212.4
882.287,6265.9
883.375,6201.9
884.463,6200.1
885.551,6145.9
886.639,6138.4
887.726,6088.4
888.814,6004.3
889.901,5976.5
890.988,5969.6
892.075,5921.6
893.162,5913.6
894.249,5804.5
895.336,5807.2
896.423,5761.4
897.509,5934.2
898.595,6124.7
899.682,5808.1
900.768,5597.6
901.854,5516.9
902.94,5516.7
904.025,5514.7
905.111,5429.1
906.196,5498.7
907.282,5627.4
908.367,5632.4
909.452,5458.6
910.537,5267.0
911.622,5206.6
912.706,5138.6
913.791,5144.9
914.875,5083.1
915.959,5031.7
917.044,4999.3
918.128,4984.5
919.211,4933.9
920.295,4915.0
921.379,4887.6
922.462,4855.7
923.546,4811.8
924.629,4808.4
925.712,4724.0
926.795,4711.5
927.877,4671.5
928.96,4655.8
930.043,4609.3
931.125,4605.2
932.207,4534.8
933.289,4504.0
934.371,4483.8
935.453,4479.3
936.535,4448.0
937.616,4425.3
938.697,4415.3
939.779,4402.2
940.86,4388.1
941.941,4366.5
943.022,4319.2
944.102,4304.5
945.183,4301.0
946.263,4283.8
947.343,4264.8
948.423,4234.0
949.503,4232.4
950.583,4205.4
951.663,4205.8
952.742,4190.4
953.822,4174.3
954.901,4158.3
955.98,4152.8
957.059,4124.8
958.137,4112.0
959.216,4121.0
960.294,4096.5
961.373,4081.8
962.451,4086.0
963.529,4070.4
964.607,4060.5
965.684,4058.2
966.762,4039.5
967.839,4038.4
968.917,4023.7
969.994,4027.1
971.071,4009.1
972.147,4008.8
973.224,4001.5
974.3,3983.4
975.377,3976.0
976.453,3976.6
977.529,3963.6
978.605,3954.2
979.68,3946.4
980.756,3942.3
981.831,3939.0
982.907,3930.5
983.982,3920.5
985.057,3921.4
986.131,3920.6
987.206,3913.0
988.28,3903.4
989.355,3905.2
990.429,3896.7
991.503,3887.5
992.576,3885.3
993.65,3883.3
994.723,3879.5
995.797,3876.3
996.87,3874.5
997.943,3862.4
999.016,3854.4
1000.09,3849.4
1001.16,3849.4
1002.23,3850.4
1003.31,3845.4
1004.38,3840.9
1005.45,3837.1
1006.52,3832.8
1007.59,3825.1
1008.66,3828.6
1009.73,3821.6
1010.81,3822.3
1011.88,3820.4
1012.95,3815.4
1014.02,3811.7
1015.09,3813.1
1016.16,3813.9
1017.23,3810.2
1018.3,3803.0
1019.37,3801.5
1020.44,3803.3
1021.51,3807.0
1022.58,3800.4
1023.64,3799.6
1024.71,3797.7
1025.78,3789.2
1026.85,3794.1
1027.92,3788.7
1028.99,3784.5
1030.05,3784.3
1031.12,3782.9
1032.19,3780.7
1033.26,3781.6
1034.32,3781.9
1035.39,3781.8
1036.46,3780.4
1037.52,3775.1
1038.59,3774.4
1039.66,3771.7
1040.72,3772.2
1041.79,3774.0
1042.86,3769.9
1043.92,3769.6
1044.99,3767.9
1046.05,3767.0
1047.12,3764.7
1048.18,3768.2
1049.25,3765.0
1050.31,3766.9
1051.37,3764.6
1052.44,3765.8
1053.5,3762.8
1054.57,3764.7
1055.63,3765.1
1056.69,3761.5
1057.76,3760.2
1058.82,3763.2
1059.88,3763.6
1060.95,3763.9
1062.01,3761.6
1063.07,3760.5
1064.13,3763.2
1065.19,3760.7
1066.26,3762.2
1067.32,3760.9
1068.11,3759.0

File: VLFR_07-PET_bio_Raman_3b6282a1.csv
nm,Intensity
791.588,9442.5
792.685,9001.4
793.781,8762.3
794.878,8500.4
795.975,8521.6
797.071,8466.0
798.168,8478.1
799.264,8411.8
800.36,8350.0
801.456,8415.9
802.552,8469.2
803.648,8344.8
804.744,8259.7
805.84,8218.3
806.936,8127.7
808.031,8109.2
809.127,8064.6
810.222,8034.8
811.317,7986.0
812.412,7832.8
813.507,7860.9
814.602,7716.9
815.697,7715.7
816.792,7629.6
817.887,7553.7
818.981,7512.5
820.076,7536.1
821.17,7480.3
822.265,7308.3
823.359,7317.1
824.453,7307.8
825.547,7335.2
826.641,7233.7
827.735,7062.9
828.828,7097.9
829.922,7056.4
831.016,7042.2
832.109,6931.8
833.202,6853.7
834.295,6847.8
835.388,6757.7
836.481,6811.0
837.574,6790.8
838.667,6652.5
839.76,6725.5
840.852,6762.0
841.945,6758.1
843.037,6590.2
844.129,6528.2
845.221,6419.6
846.314,6351.3
847.405,6351.7
848.497,6285.9
849.589,6189.2
850.68,6213.3
851.772,6188.2
852.863,6182.7
853.955,6092.2
855.046,6086.0
856.137,6063.0
857.228,5997.9
858.318,6018.1
859.409,6043.1
860.5,6024.3
861.59,5970.9
862.681,5893.4
863.771,5887.9
864.861,5855.5
865.951,5784.0
867.041,5728.0
868.131,5693.2
869.22,5719.4
870.31,5712.9
871.399,5744.8
872.488,5852.9
873.578,5772.0
874.667,5719.8
875.756,5642.2
876.845,5580.5
877.933,5569.8
879.022,5476.5
880.11,5452.6
881.199,5423.0
882.287,5438.4
883.375,5403.6
884.463,5403.2
885.551,5352.9
886.639,5394.8
887.726,5336.5
888.814,5261.7
889.901,5295.8
890.988,5237.1
892.075,5235.4
893.162,5169.9
894.249,5135.0
895.336,5136.7
896.423,5111.0
897.509,5212.6
898.595,5349.8
899.682,5171.6
900.768,5013.9
901.854,4965.1
902.94,4927.4
904.025,4930.3
905.111,4933.0
906.196,4954.8
907.282,5037.9
908.367,5060.1
909.452,4913.4
910.537,4800.0
911.622,4750.3
912.706,4728.1
913.791,4717.6
914.875,4696.3
915.959,4648.9
917.044,4622.8
918.128,4598.6
919.211,4613.5
920.295,4561.2
921.379,4561.5
922.462,4510.1
923.546,4508.1
924.629,4464.6
925.712,4451.1
926.795,4421.8
927.877,4403.6
928.96,4373.9
930.043,4362.7
931.125,4332.8
932.207,4322.5
933.289,4266.4
934.371,4287.9
935.453,4258.0
936.535,4252.8
937.616,4225.8
938.697,4206.3
939.779,4204.0
940.86,4176.7
941.941,4169.9
943.022,4150.9
944.102,4147.6
945.183,4136.5
946.263,4110.8
947.343,4103.5
948.423,4100.3
949.503,4079.9
950.583,4067.6
951.663,4058.5
952.742,4057.9
953.822,4026.9
954.901,4026.7
955.98,4020.3
957.059,4017.5
958.137,4001.6
959.216,3994.7
960.294,3987.6
961.373,3988.0
962.451,3978.7
963.529,3960.8
964.607,3955.5
965.684,3948.1
966.762,3944.1
967.839,3938.0
968.917,3937.9
969.994,3920.9
971.071,3921.9
972.147,3914.6
973.224,3917.1
974.3,3907.3
975.377,3895.8
976.453,3887.6
977.529,3882.3
978.605,3888.3
979.68,3880.6
980.756,3874.7
981.831,3869.6
982.907,3867.5
983.982,3865.1
985.057,3854.5
986.131,3858.9
987.206,3849.2
988.28,3846.2
989.355,3845.8
990.429,3846.4
991.503,3836.4
992.576,3836.4
993.65,3831.2
994.723,3826.6
995.797,3826.6
996.87,3825.1
997.943,3816.4
999.016,3823.8
1000.09,3819.2
1001.16,3812.8
1002.23,3813.7
1003.31,3804.0
1004.38,3806.7
1005.45,3803.9
1006.52,3797.5
1007.59,3798.8
1008.66,3797.1
1009.73,3796.7
1010.81,3792.3
1011.88,3791.2
1012.95,3790.8
1014.02,3790.1
1015.09,3785.9
1016.16,3783.8
1017.23,3783.9
1018.3,3781.3
1019.37,3778.5
1020.44,3784.3
1021.51,3781.5
1022.58,3780.7
1023.64,3779.8
1024.71,3777.1
1025.78,3777.5
1026.85,3771.9
1027.92,3770.5
1028.99,3769.4
1030.05,3766.1
1031.12,3765.7
1032.19,3765.3
1033.26,3766.5
1034.32,3766.1
1035.39,3766.7
1036.46,3763.9
1037.52,3765.0
1038.59,3762.0
1039.66,3761.8
1040.72,3761.0
1041.79,3759.4
1042.86,3760.6
1043.92,3758.8
1044.99,3757.7
1046.05,3757.2
1047.12,3757.9
1048.18,3755.2
1049.25,3754.9
1050.31,3754.7
1051.37,3755.8
1052.44,3754.4
1053.5,3756.1
1054.57,3753.6
1055.63,3755.6
1056.69,3752.9
1057.76,3754.7
1058.82,3753.7
1059.88,3752.4
1060.95,3754.4
1062.01,3754.0
1063.07,3753.3
1064.13,3752.4
1065.19,3751.7
1066.26,3752.7
1067.32,3753.9
1068.11,3753.4