Folder: MPX_specDB/spectra (part 116)

File: VLFR_07-PET_nobio_Raman_755c3207.csv
nm,Intensity
791.377,11011.0
792.477,10023.4
793.576,9444.58
794.676,9048.58
795.775,8991.16
796.874,8869.0
797.973,8881.76
799.072,8799.28
800.171,8737.56
801.27,8766.7
802.368,8829.36
803.467,8544.8
804.565,8472.16
805.664,8341.94
806.762,8245.98
807.86,8191.0
808.958,8173.64
810.056,8058.56
811.153,8039.86
812.251,7970.92
813.349,7903.22
814.446,7844.96
815.543,7734.44
816.64,7635.48
817.737,7554.92
818.834,7583.68
819.931,7525.36
821.028,7505.52
822.125,7414.76
823.221,7263.08
824.317,7212.26
825.414,7330.94
826.51,7288.04
827.606,7066.82
828.702,6968.84
829.797,6952.08
830.893,7134.42
831.988,6849.8
833.084,6840.7
834.179,6773.16
835.274,6700.44
836.369,6727.4
837.464,6783.78
838.559,6742.4
839.654,6709.22
840.748,6857.28
841.843,6896.1
842.937,6643.38
844.031,6531.52
845.125,6424.24
846.219,6306.58
847.313,6247.74
848.407,6232.58
849.5,6242.22
850.593,6191.28
851.687,6172.8
852.78,6186.72
853.873,6156.12
854.966,6164.72
856.059,6064.74
857.151,5969.9
858.244,6127.38
859.336,6138.7
860.428,6194.78
861.52,6064.76
862.612,5941.06
863.704,5932.04
864.796,5948.36
865.888,5850.08
866.979,5807.74
868.07,5717.36
869.162,5740.96
870.253,5808.88
871.344,5899.74
872.434,6020.48
873.525,6028.8
874.615,5882.58
875.706,5693.4
876.796,5609.06
877.886,5563.46
878.976,5548.94
880.066,5496.22
881.156,5496.82
882.245,5509.16
883.335,5475.5
884.424,5431.0
885.513,5429.16
886.602,5362.98
887.691,5345.72
888.78,5324.78
889.868,5246.98
890.957,5251.28
892.045,5250.76
893.133,5186.36
894.221,5143.58
895.309,5116.92
896.397,5099.56
897.484,5270.82
898.571,5726.54
899.659,5415.4
900.746,4997.3
901.833,4957.64
902.92,4875.16
904.006,4932.16
905.093,4876.24
906.179,4952.5
907.266,5256.84
908.352,5305.16
909.438,5022.1
910.523,4840.38
911.609,4735.22
912.695,4696.34
913.78,4679.86
914.865,4629.76
915.95,4612.76
917.035,4610.94
918.12,4608.12
919.204,4565.16
920.289,4539.7
921.373,4526.5
922.457,4484.46
923.541,4481.76
924.625,4452.46
925.709,4435.26
926.792,4412.5
927.876,4408.52
928.959,4364.24
930.042,4317.24
931.125,4334.52
932.208,4302.34
933.29,4280.14
934.373,4268.24
935.455,4269.82
936.537,4230.7
937.619,4203.9
938.701,4207.26
939.782,4183.18
940.864,4179.52
941.945,4163.12
943.026,4160.12
944.107,4136.4
945.188,4121.72
946.269,4113.8
947.349,4089.74
948.43,4083.62
949.51,4073.86
950.59,4063.88
951.67,4061.86
952.75,4045.16
953.829,4033.68
954.909,4022.86
955.988,4018.96
957.067,4002.72
958.146,3997.6
959.224,3994.16
960.303,3979.9
961.381,3967.0
962.459,3969.34
963.537,3956.54
964.615,3943.66
965.693,3944.24
966.771,3942.66
967.848,3933.28
968.925,3924.88
970.002,3914.8
971.079,3913.28
972.156,3902.38
973.232,3906.14
974.309,3897.7
975.385,3883.74
976.461,3882.72
977.537,3878.74
978.612,3873.28
979.688,3865.86
980.763,3865.66
981.838,3859.84
982.913,3852.28
983.988,3852.38
985.063,3844.6
986.137,3844.0
987.211,3838.68
988.285,3835.88
989.359,3834.36
990.433,3824.56
991.506,3821.8
992.58,3819.88
993.653,3815.24
994.726,3809.12
995.799,3810.28
996.872,3803.14
997.944,3800.54
999.016,3800.74
1000.09,3798.28
1001.16,3791.34
1002.23,3787.68
1003.3,3788.56
1004.38,3784.44
1005.45,3782.86
1006.52,3780.44
1007.59,3778.24
1008.66,3774.12
1009.73,3771.44
1010.8,3770.64
1011.87,3770.84
1012.94,3768.0
1014.01,3765.42
1015.08,3766.48
1016.15,3764.2
1017.22,3762.48
1018.29,3761.0
1019.36,3758.64
1020.42,3757.94
1021.49,3762.98
1022.56,3766.16
1023.63,3763.2
1024.7,3759.04
1025.76,3755.84
1026.83,3752.14
1027.9,3749.82
1028.97,3744.86
1030.03,3744.52
1031.1,3742.18
1032.17,3741.7
1033.23,3742.56
1034.3,3745.32
1035.36,3746.64
1036.43,3745.54
1037.5,3741.58
1038.56,3736.84
1039.63,3735.74
1040.69,3733.22
1041.76,3733.8
1042.82,3732.6
1043.89,3731.68
1044.95,3731.28
1046.01,3729.78
1047.08,3730.1
1048.14,3729.0
1049.2,3727.88
1050.27,3728.2
1051.33,3728.92
1052.39,3729.32
1053.46,3727.18
1054.52,3727.58
1055.58,3728.14
1056.64,3727.06
1057.7,3726.22
1058.77,3725.92
1059.83,3726.54
1060.89,3726.56
1061.95,3724.74
1063.01,3724.8
1064.07,3726.08
1065.13,3725.52
1066.19,3724.64
1067.25,3724.56
1068.05,3724.0

File: VLFR_07-PET_nobio_Raman_812ffefc.csv
cm-1,Intensity
109.24,7332.6
126.699,6954.5
144.108,6751.85
161.468,6600.3
178.779,6537.75
196.04,6564.85
213.253,6481.2
230.417,6500.35
247.532,6466.35
264.599,6504.75
281.618,6401.15
298.59,6359.65
315.513,6277.1
332.389,6290.1
349.218,6262.55
365.999,6190.8
382.734,6167.3
399.422,6114.3
416.064,6093.9
432.659,5998.6
449.208,5969.3
465.711,5946.3
482.168,5918.65
498.579,5887.75
514.946,5819.0
531.267,5799.95
547.542,5782.0
563.773,5774.7
579.96,5697.5
596.102,5662.0
612.199,5675.45
628.252,5754.4
644.261,5621.0
660.227,5547.55
676.149,5523.2
692.027,5510.85
707.862,5509.95
723.654,5500.0
739.403,5427.55
755.109,5430.4
770.773,5392.8
786.394,5389.95
801.973,5426.25
817.509,5407.85
833.004,5384.35
848.457,5524.7
863.868,5405.15
879.238,5372.7
894.567,5301.85
909.854,5248.6
925.1,5183.65
940.306,5176.35
955.471,5182.1
970.595,5130.75
985.679,5106.3
1000.72,5103.75
1015.73,5108.05
1030.69,5091.2
1045.61,5070.85
1060.5,5025.6
1075.34,5042.9
1090.15,5090.15
1104.92,5105.7
1119.64,5061.7
1134.33,4984.75
1148.98,4979.3
1163.6,4976.1
1178.17,4968.55
1192.7,4892.5
1207.2,4897.5
1221.66,4887.4
1236.08,4908.35
1250.46,4918.25
1264.81,4980.35
1279.12,5080.85
1293.39,5004.0
1307.62,4902.35
1321.82,4844.95
1335.98,4834.85
1350.11,4786.2
1364.19,4774.1
1378.24,4755.75
1392.26,4757.4
1406.24,4743.2
1420.18,4733.65
1434.08,4727.95
1447.96,4754.8
1461.79,4692.65
1475.59,4647.6
1489.35,4646.7
1503.08,4629.15
1516.78,4637.35
1530.44,4609.45
1544.06,4582.45
1557.65,4570.7
1571.2,4552.7
1584.72,4553.75
1598.21,4751.45
1611.66,4855.45
1625.08,4608.1
1638.46,4468.7
1651.81,4460.7
1665.13,4453.4
1678.41,4423.25
1691.66,4444.5
1704.88,4529.45
1718.06,4649.25
1731.21,4616.55
1744.32,4438.55
1757.41,4357.25
1770.46,4326.45
1783.48,4311.2
1796.46,4282.1
1809.42,4270.85
1822.34,4267.7
1835.23,4267.95
1848.08,4246.8
1860.91,4243.1
1873.7,4223.1
1886.46,4204.7
1899.19,4200.2
1911.89,4177.3
1924.56,4157.85
1937.19,4153.55
1949.8,4139.55
1962.37,4119.05
1974.91,4104.65
1987.42,4091.1
1999.9,4079.95
2012.36,4067.35
2024.78,4055.95
2037.16,4041.45
2049.52,4038.6
2061.85,4021.15
2074.15,4010.7
2086.42,4018.95
2098.66,3998.5
2110.87,3990.8
2123.05,3979.95
2135.2,3978.5
2147.32,3973.6
2159.41,3962.7
2171.47,3950.85
2183.51,3937.2
2195.51,3949.8
2207.49,3935.75
2219.43,3922.95
2231.35,3920.25
2243.24,3912.85
2255.1,3912.95
2266.93,3905.0
2278.73,3901.1
2290.51,3888.6
2302.26,3888.8
2313.97,3888.85
2325.67,3879.6
2337.33,3868.65
2348.96,3870.8
2360.57,3867.25
2372.15,3865.7
2383.7,3860.45
2395.23,3858.2
2406.73,3854.95
2418.2,3853.1
2429.64,3849.1
2441.06,3846.2
2452.45,3838.9
2463.81,3832.25
2475.15,3833.9
2486.46,3829.15
2497.74,3826.25
2509.0,3826.75
2520.23,3827.05
2531.43,3818.1
2542.61,3817.05
2553.76,3813.4
2564.88,3813.05
2575.98,3807.25
2587.06,3809.75
2598.1,3804.25
2609.13,3805.2
2620.12,3804.2
2631.09,3800.5
2642.04,3796.55
2652.96,3792.3
2663.85,3791.95
2674.72,3788.45
2685.57,3789.8
2696.39,3785.55
2707.18,3784.5
2717.95,3781.7
2728.69,3781.05
2739.41,3778.6
2750.11,3774.7
2760.78,3773.75
2771.43,3771.75
2782.05,3771.7
2792.65,3770.7
2803.22,3772.1
2813.77,3767.15
2824.3,3765.65
2834.8,3765.65
2845.27,3761.15
2855.73,3761.45
2866.16,3761.8
2876.56,3760.3
2886.95,3759.4
2897.3,3759.5
2907.64,3759.3
2917.95,3757.8
2928.24,3757.05
2938.51,3756.9
2948.75,3759.35
2958.97,3761.15
2969.17,3758.15
2979.34,3755.0
2989.49,3753.55
2999.62,3752.2
3009.72,3748.65
3019.81,3747.25
3029.87,3745.5
3039.9,3745.5
3049.92,3745.4
3059.91,3747.05
3069.88,3747.5
3079.83,3749.4
3089.76,3748.0
3099.66,3743.5
3109.54,3742.85
3119.4,3741.55
3129.24,3741.95
3139.06,3740.35
3148.85,3740.7
3158.62,3739.45
3168.38,3738.1
3178.11,3738.6
3187.81,3737.65
3197.5,3737.9
3207.17,3736.5
3216.81,3738.2
3226.44,3736.2
3236.04,3735.3
3245.62,3736.7
3255.18,3734.9
3264.72,3736.4
3274.24,3736.95
3283.73,3736.35
3293.21,3736.05
3302.67,3735.6
3312.1,3735.45
3321.52,3735.6
3330.91,3735.2
3340.29,3736.1
3349.64,3735.75
3358.97,3735.7
3368.29,3734.05
3375.26,3734.2

File: VLFR_07-PET_nobio_Raman_897ab508.csv
cm-1,Intensity
109.24,8512.25
126.699,7930.75
144.108,7593.25
161.468,7425.4
178.779,7384.75
196.04,7344.85
213.253,7325.6
230.417,7321.2
247.532,7285.35
264.599,7288.05
281.618,7190.9
298.59,7117.5
315.513,7062.9
332.389,7053.2
349.218,6926.2
365.999,6863.55
382.734,6778.35
399.422,6830.75
416.064,6786.5
432.659,6687.7
449.208,6616.4
465.711,6533.2
482.168,6517.6
498.579,6436.4
514.946,6391.0
531.267,6412.9
547.542,6333.55
563.773,6276.95
579.96,6228.15
596.102,6161.1
612.199,6173.4
628.252,6314.9
644.261,6118.95
660.227,6031.0
676.149,5962.2
692.027,6016.05
707.862,5998.4
723.654,5905.65
739.403,5878.85
755.109,5857.8
770.773,5786.9
786.394,5839.65
801.973,5851.25
817.509,5830.5
833.004,5810.35
848.457,5971.2
863.868,5889.85
879.238,5808.7
894.567,5661.05
909.854,5630.9
925.1,5521.9
940.306,5543.2
955.471,5480.55
970.595,5459.95
985.679,5454.75
1000.72,5450.85
1015.73,5396.1
1030.69,5426.85
1045.61,5339.3
1060.5,5314.8
1075.34,5340.25
1090.15,5372.25
1104.92,5418.15
1119.64,5386.75
1134.33,5251.8
1148.98,5223.8
1163.6,5256.65
1178.17,5241.65
1192.7,5109.8
1207.2,5137.75
1221.66,5129.9
1236.08,5147.75
1250.46,5167.95
1264.81,5256.6
1279.12,5341.9
1293.39,5287.05
1307.62,5152.35
1321.82,5076.85
1335.98,5026.3
1350.11,5032.75
1364.19,4986.35
1378.24,4954.6
1392.26,4956.85
1406.24,4936.95
1420.18,4928.05
1434.08,4933.05
1447.96,4924.55
1461.79,4867.45
1475.59,4823.8
1489.35,4859.9
1503.08,4790.9
1516.78,4808.25
1530.44,4755.85
1544.06,4764.45
1557.65,4731.85
1571.2,4728.95
1584.72,4683.45
1598.21,4947.75
1611.66,5131.3
1625.08,4811.05
1638.46,4600.95
1651.81,4594.55
1665.13,4574.7
1678.41,4562.4
1691.66,4599.7
1704.88,4710.75
1718.06,4857.6
1731.21,4829.35
1744.32,4610.5
1757.41,4460.5
1770.46,4446.65
1783.48,4402.15
1796.46,4420.45
1809.42,4365.85
1822.34,4367.45
1835.23,4375.65
1848.08,4323.7
1860.91,4323.85
1873.7,4302.35
1886.46,4297.9
1899.19,4266.25
1911.89,4284.05
1924.56,4234.4
1937.19,4223.05
1949.8,4218.8
1962.37,4180.25
1974.91,4182.95
1987.42,4159.55
1999.9,4124.55
2012.36,4125.0
2024.78,4123.4
2037.16,4090.05
2049.52,4086.3
2061.85,4061.9
2074.15,4058.0
2086.42,4064.6
2098.66,4042.65
2110.87,4036.25
2123.05,4029.55
2135.2,4010.25
2147.32,4003.8
2159.41,4001.95
2171.47,3990.05
2183.51,3984.0
2195.51,3970.65
2207.49,3967.6
2219.43,3961.35
2231.35,3949.0
2243.24,3944.55
2255.1,3931.35
2266.93,3925.4
2278.73,3921.05
2290.51,3912.45
2302.26,3913.6
2313.97,3907.45
2325.67,3900.0
2337.33,3900.0
2348.96,3892.65
2360.57,3875.55
2372.15,3885.25
2383.7,3876.35
2395.23,3872.35
2406.73,3867.3
2418.2,3868.6
2429.64,3864.7
2441.06,3859.3
2452.45,3849.45
2463.81,3846.9
2475.15,3843.7
2486.46,3838.65
2497.74,3837.15
2509.0,3831.0
2520.23,3829.55
2531.43,3830.1
2542.61,3825.3
2553.76,3823.7
2564.88,3819.65
2575.98,3816.55
2587.06,3815.5
2598.1,3815.15
2609.13,3809.6
2620.12,3810.3
2631.09,3808.55
2642.04,3802.2
2652.96,3801.5
2663.85,3800.65
2674.72,3800.0
2685.57,3792.65
2696.39,3789.7
2707.18,3788.3
2717.95,3789.4
2728.69,3786.85
2739.41,3783.9
2750.11,3782.25
2760.78,3782.75
2771.43,3775.65
2782.05,3776.35
2792.65,3773.75
2803.22,3771.75
2813.77,3772.6
2824.3,3770.25
2834.8,3767.65
2845.27,3765.6
2855.73,3763.85
2866.16,3764.15
2876.56,3763.7
2886.95,3764.7
2897.3,3762.4
2907.64,3761.5
2917.95,3758.55
2928.24,3758.6
2938.51,3761.05
2948.75,3763.0
2958.97,3763.25
2969.17,3762.5
2979.34,3760.3
2989.49,3757.7
2999.62,3752.75
3009.72,3753.1
3019.81,3751.2
3029.87,3747.7
3039.9,3748.85
3049.92,3748.45
3059.91,3750.85
3069.88,3750.4
3079.83,3750.5
3089.76,3748.85
3099.66,3746.2
3109.54,3744.85
3119.4,3744.0
3129.24,3742.25
3139.06,3741.9
3148.85,3741.7
3158.62,3738.65
3168.38,3739.75
3178.11,3739.15
3187.81,3737.8
3197.5,3738.3
3207.17,3737.45
3216.81,3737.9
3226.44,3738.5
3236.04,3738.95
3245.62,3737.15
3255.18,3737.9
3264.72,3737.95
3274.24,3736.35
3283.73,3736.95
3293.21,3736.25
3302.67,3736.75
3312.1,3735.4
3321.52,3736.1
3330.91,3735.2
3340.29,3735.45
3349.64,3737.15
3358.97,3736.15
3368.29,3735.15
3375.26,3736.15

File: VLFR_07-PET_nobio_Raman_960a0e49.csv
nm,Intensity
791.588,6192.5
792.685,6033.7
793.781,5935.2
794.878,5904.7
795.975,5832.7
797.071,5852.2
798.168,5834.7
799.264,5838.4
800.36,5817.1
801.456,5757.8
802.552,5782.8
803.648,5734.0
804.744,5716.6
805.84,5691.5
806.936,5669.4
808.031,5655.4
809.127,5590.4
810.222,5570.1
811.317,5584.5
812.412,5496.3
813.507,5492.8
814.602,5469.1
815.697,5425.3
816.792,5404.4
817.887,5376.5
818.981,5337.4
820.076,5339.1
821.17,5331.3
822.265,5286.0
823.359,5276.2
824.453,5246.8
825.547,5254.5
826.641,5246.5
827.735,5174.3
828.828,5147.1
829.922,5167.2
831.016,5136.7
832.109,5115.6
833.202,5090.1
834.295,5057.3
835.388,5036.1
836.481,5035.0
837.574,5031.2
838.667,4998.8
839.76,5006.0
840.852,4996.0
841.945,4985.5
843.037,4964.3
844.129,4935.7
845.221,4905.9
846.314,4878.1
847.405,4884.1
848.497,4864.8
849.589,4840.0
850.681,4818.7
851.772,4802.9
852.863,4810.2
853.955,4780.9
855.046,4742.9
856.137,4771.9
857.228,4749.6
858.318,4740.6
859.409,4749.1
860.5,4733.1
861.59,4688.0
862.681,4696.7
863.771,4695.9
864.861,4664.9
865.951,4651.2
867.041,4649.2
868.131,4610.4
869.22,4637.8
870.31,4623.8
871.399,4621.6
872.488,4630.6
873.578,4610.7
874.667,4594.0
875.756,4583.2
876.845,4578.2
877.933,4533.6
879.022,4522.1
880.11,4515.9
881.199,4505.8
882.287,4509.1
883.375,4499.7
884.463,4484.2
885.551,4492.0
886.639,4460.3
887.726,4432.4
888.814,4439.2
889.901,4415.3
890.988,4426.9
892.075,4402.3
893.162,4397.1
894.249,4361.4
895.336,4340.0
896.423,4338.9
897.509,4363.1
898.595,4393.6
899.682,4331.5
900.768,4283.6
901.854,4282.5
902.94,4272.5
904.025,4257.0
905.111,4265.3
906.196,4242.7
907.282,4266.3
908.367,4240.2
909.452,4222.7
910.537,4190.7
911.622,4175.0
912.706,4159.9
913.791,4149.9
914.875,4133.1
915.959,4129.9
917.044,4123.6
918.128,4102.4
919.211,4107.8
920.295,4107.8
921.379,4083.7
922.462,4067.8
923.546,4065.7
924.629,4065.2
925.712,4048.1
926.795,4045.0
927.877,4029.6
928.96,4021.0
930.043,4006.2
931.125,3998.4
932.207,3986.1
933.289,3982.4
934.371,3972.1
935.453,3966.7
936.535,3959.9
937.616,3956.2
938.697,3948.0
939.779,3936.7
940.86,3942.9
941.941,3934.4
943.022,3927.1
944.102,3918.1
945.183,3915.4
946.263,3911.6
947.343,3907.7
948.423,3895.5
949.503,3900.2
950.583,3890.4
951.663,3883.7
952.742,3883.4
953.822,3876.4
954.901,3873.8
955.98,3872.5
957.059,3864.4
958.137,3865.4
959.216,3861.8
960.294,3854.4
961.373,3854.6
962.451,3852.8
963.529,3851.4
964.607,3849.5
965.684,3843.3
966.762,3840.7
967.839,3840.5
968.917,3837.3
969.994,3836.3
971.071,3833.9
972.147,3827.8
973.224,3827.0
974.3,3822.7
975.377,3823.7
976.453,3820.9
977.529,3817.7
978.605,3814.8
979.68,3813.7
980.756,3811.9
981.831,3812.5
982.907,3815.8
983.982,3809.0
985.057,3806.4
986.131,3804.3
987.206,3805.1
988.28,3805.1
989.355,3801.6
990.429,3798.5
991.503,3800.7
992.576,3795.6
993.65,3794.1
994.723,3793.2
995.797,3793.3
996.87,3789.0
997.943,3790.9
999.016,3786.9
1000.09,3789.7
1001.16,3785.6
1002.23,3784.6
1003.31,3784.6
1004.38,3784.5
1005.45,3782.0
1006.52,3779.4
1007.59,3783.2
1008.66,3781.0
1009.73,3779.6
1010.81,3778.8
1011.88,3777.1
1012.95,3774.6
1014.02,3774.2
1015.09,3776.7
1016.16,3774.2
1017.23,3773.2
1018.3,3772.1
1019.37,3771.0
1020.44,3771.2
1021.51,3771.7
1022.58,3770.2
1023.64,3769.7
1024.71,3768.8
1025.78,3767.3
1026.85,3766.1
1027.92,3765.9
1028.99,3762.9
1030.05,3765.7
1031.12,3764.5
1032.19,3764.4
1033.26,3763.3
1034.32,3764.7
1035.39,3764.7
1036.46,3761.1
1037.52,3762.4
1038.59,3763.8
1039.66,3760.9
1040.72,3761.7
1041.79,3761.4
1042.86,3759.7
1043.92,3762.9
1044.99,3758.3
1046.05,3758.8
1047.12,3762.6
1048.18,3760.9
1049.25,3759.6
1050.31,3757.4
1051.37,3758.8
1052.44,3760.1
1053.5,3759.0
1054.57,3757.4
1055.63,3757.8
1056.69,3757.9
1057.76,3757.9
1058.82,3757.9
1059.88,3758.0
1060.95,3756.9
1062.01,3759.2
1063.07,3756.9
1064.13,3759.0
1065.19,3756.6
1066.26,3758.9
1067.32,3758.0
1068.11,3756.5

File: VLFR_07-PET_nobio_Raman_992c91b9.csv
nm,Intensity
791.377,11227.4
792.477,10124.1
793.576,9572.08
794.676,9190.0
795.775,9007.3
796.874,8908.58
797.973,8912.94
799.072,8791.76
800.171,8785.46
801.27,8840.86
802.368,8752.26
803.467,8576.16
804.565,8335.8
805.664,8328.28
806.762,8254.9
807.86,8170.8
808.958,8031.54
810.056,8077.82
811.153,7960.56
812.251,7847.58
813.349,7800.6
814.446,7705.88
815.543,7613.9
816.64,7492.1
817.737,7462.92
818.834,7455.24
819.931,7397.28
821.028,7281.46
822.125,7255.16
823.221,7163.9
824.317,7140.24
825.414,7306.02
826.51,7140.52
827.606,6998.58
828.702,6973.98
829.797,6909.92
830.893,7087.48
831.988,6862.28
833.084,6784.94
834.179,6789.84
835.274,6708.3
836.369,6711.56
837.464,6836.36
838.559,6835.76
839.654,6722.52
840.748,6910.78
841.843,6982.86
842.937,6696.42
844.031,6611.5
845.125,6442.82
846.219,6344.38
847.313,6314.2
848.407,6259.6
849.5,6219.28
850.593,6148.02
851.687,6180.18
852.78,6205.3
853.873,6124.68
854.966,6110.16
856.059,6013.68
857.151,6002.9
858.244,6083.26
859.336,6205.5
860.428,6142.34
861.52,6064.06
862.612,5892.96
863.704,5882.62
864.796,5896.68
865.888,5798.74
866.979,5732.68
868.07,5706.0
869.162,5718.92
870.253,5745.38
871.344,5924.3
872.434,6058.16
873.525,6112.36
874.615,5837.94
875.706,5629.74
876.796,5605.22
877.886,5538.52
878.976,5520.42
880.066,5531.98
881.156,5493.06
882.245,5494.36
883.335,5493.58
884.424,5399.66
885.513,5476.14
886.602,5375.7
887.691,5310.3
888.78,5300.42
889.868,5285.76
890.957,5216.96
892.045,5266.62
893.133,5200.22
894.221,5184.22
895.309,5168.7
896.397,5119.88
897.484,5355.38
898.571,5968.4
899.659,5482.16
900.746,5032.14
901.833,5007.06
902.92,4924.66
904.006,4952.54
905.093,4955.26
906.179,5054.98
907.266,5440.08
908.352,5429.82
909.438,5113.58
910.523,4854.1
911.609,4775.98
912.695,4743.46
913.78,4687.24
914.865,4676.6
915.95,4636.48
917.035,4633.3
918.12,4601.2
919.204,4598.16
920.289,4540.38
921.373,4517.46
922.457,4508.06
923.541,4488.48
924.625,4474.6
925.709,4437.58
926.792,4421.24
927.876,4410.56
928.959,4356.5
930.042,4361.82
931.125,4344.38
932.208,4308.76
933.29,4311.26
934.373,4281.16
935.455,4278.98
936.537,4249.76
937.619,4215.1
938.701,4225.06
939.782,4205.1
940.864,4186.36
941.945,4185.0
943.026,4163.58
944.107,4137.48
945.188,4135.7
946.269,4124.26
947.349,4100.86
948.43,4091.54
949.51,4087.14
950.59,4084.46
951.67,4061.66
952.75,4061.34
953.829,4038.98
954.909,4019.08
955.988,4028.96
957.067,4013.8
958.146,4008.9
959.224,3994.16
960.303,3993.66
961.381,3980.4
962.459,3975.82
963.537,3962.1
964.615,3967.24
965.693,3954.14
966.771,3942.34
967.848,3943.96
968.925,3936.82
970.002,3929.04
971.079,3921.74
972.156,3916.88
973.232,3905.96
974.309,3906.78
975.385,3903.78
976.461,3884.2
977.537,3882.96
978.612,3882.52
979.688,3874.9
980.763,3870.4
981.838,3869.7
982.913,3864.02
983.988,3858.18
985.063,3854.32
986.137,3856.4
987.211,3851.98
988.285,3846.2
989.359,3841.12
990.433,3834.28
991.506,3833.42
992.58,3828.7
993.653,3822.32
994.726,3821.1
995.799,3817.58
996.872,3815.12
997.944,3809.7
999.016,3811.84
1000.09,3805.28
1001.16,3806.16
1002.23,3801.06
1003.3,3797.88
1004.38,3798.94
1005.45,3795.86
1006.52,3792.3
1007.59,3786.68
1008.66,3786.28
1009.73,3785.32
1010.8,3781.68
1011.87,3778.2
1012.94,3777.96
1014.01,3779.7
1015.08,3776.12
1016.15,3775.6
1017.22,3775.28
1018.29,3772.34
1019.36,3771.22
1020.42,3773.48
1021.49,3775.8
1022.56,3778.26
1023.63,3780.6
1024.7,3774.18
1025.76,3768.76
1026.83,3762.52
1027.9,3760.88
1028.97,3756.88
1030.03,3754.66
1031.1,3754.02
1032.17,3752.82
1033.23,3754.3
1034.3,3758.28
1035.36,3759.76
1036.43,3757.04
1037.5,3752.8
1038.56,3747.22
1039.63,3746.44
1040.69,3743.94
1041.76,3743.96
1042.82,3743.22
1043.89,3742.26
1044.95,3740.9
1046.01,3739.76
1047.08,3740.92
1048.14,3740.06
1049.2,3739.4
1050.27,3738.94
1051.33,3739.16
1052.39,3738.9
1053.46,3737.72
1054.52,3738.78
1055.58,3738.04
1056.64,3737.54
1057.7,3736.54
1058.77,3736.82
1059.83,3736.92
1060.89,3736.9
1061.95,3735.94
1063.01,3736.9
1064.07,3736.7
1065.13,3735.58
1066.19,3735.72
1067.25,3736.08
1068.05,3734.68

File: VLFR_07-PET_nobio_Raman_1668c9e5.csv
nm,Intensity
791.75,14536.7
792.846,13462.2
793.942,13139.4
795.037,12919.8
796.133,12582.0
797.228,12657.5
798.324,12572.0
799.419,12432.2
800.514,12471.0
801.61,12522.5
802.705,12212.0
803.8,11867.8
804.894,11865.5
805.989,11815.6
807.084,11589.4
808.178,11453.6
809.273,11336.7
810.367,11329.3
811.461,11353.7
812.556,11240.5
813.65,11084.1
814.744,10874.5
815.837,10942.7
816.931,10735.0
818.025,10765.3
819.118,10661.1
820.212,10546.1
821.305,10513.8
822.398,10375.5
823.491,10272.8
824.585,10182.8
825.677,10456.2
826.77,9939.05
827.863,9932.8
828.956,9888.75
830.048,9820.3
831.14,9748.95
832.233,9627.2
833.325,9359.25
834.417,9264.5
835.509,9269.1
836.601,9391.0
837.692,9311.75
838.784,9152.2
839.876,9122.7
840.967,9463.85
842.058,9103.15
843.149,8925.75
844.24,8842.0
845.331,8577.15
846.422,8464.3
847.513,8454.35
848.604,8366.4
849.694,8359.4
850.784,8368.3
851.875,8300.25
852.965,8269.85
854.055,8220.8
855.145,8114.95
856.235,8058.4
857.324,8152.55
858.414,8183.15
859.503,8283.35
860.593,8067.2
861.682,7919.1
862.771,7744.45
863.86,7951.1
864.949,7796.05
866.038,7709.7
867.126,7614.6
868.215,7543.4
869.303,7531.65
870.391,7680.8
871.479,7867.95
872.567,7955.1
873.655,7879.15
874.743,7428.1
875.831,7276.65
876.918,7260.0
878.006,7197.45
879.093,7135.35
880.18,7041.85
881.267,7068.2
882.354,6942.85
883.441,6943.6
884.527,6934.4
885.614,6934.55
886.7,6698.35
887.786,6722.05
888.872,6590.6
889.958,6611.3
891.044,6661.9
892.13,6499.85
893.216,6416.15
894.301,6383.75
895.386,6319.25
896.472,6351.45
897.557,6983.3
898.642,6987.55
899.726,6294.25
900.811,6043.3
901.896,5976.1
902.98,5906.15
904.064,6009.0
905.148,5991.45
906.232,6151.75
907.316,6526.2
908.4,6166.4
909.484,5817.05
910.567,5667.65
911.65,5580.7
912.734,5543.4
913.817,5457.35
914.9,5396.4
915.982,5398.4
917.065,5369.6
918.147,5307.0
919.23,5288.55
920.312,5255.2
921.394,5175.6
922.476,5126.65
923.558,5128.65
924.639,5085.2
925.721,5028.45
926.802,5010.25
927.884,4965.1
928.965,4928.75
930.046,4902.15
931.126,4852.55
932.207,4839.85
933.288,4799.05
934.368,4740.8
935.448,4719.85
936.528,4701.85
937.608,4673.05
938.688,4626.15
939.767,4604.35
940.847,4611.25
941.926,4549.75
943.005,4532.1
944.084,4523.1
945.163,4475.55
946.242,4473.55
947.321,4459.05
948.399,4434.1
949.477,4399.65
950.556,4361.8
951.634,4362.3
952.711,4333.7
953.789,4305.05
954.867,4297.8
955.944,4272.8
957.021,4278.05
958.098,4253.2
959.175,4232.45
960.252,4213.9
961.328,4197.25
962.405,4185.4
963.481,4181.45
964.557,4139.75
965.633,4131.3
966.709,4122.25
967.785,4109.05
968.86,4104.45
969.936,4079.65
971.011,4066.35
972.086,4057.4
973.161,4040.3
974.235,4025.85
975.31,4033.95
976.384,4011.1
977.459,4002.25
978.533,3983.4
979.607,3978.6
980.68,3968.4
981.754,3967.5
982.827,3948.1
983.901,3939.85
984.974,3942.0
986.047,3927.05
987.119,3911.95
988.192,3911.5
989.264,3909.65
990.337,3901.15
991.409,3884.4
992.481,3878.95
993.553,3872.6
994.624,3863.0
995.696,3868.55
996.767,3856.1
997.838,3847.95
998.909,3838.6
999.98,3842.35
1001.05,3833.4
1002.12,3823.85
1003.19,3822.55
1004.26,3819.1
1005.33,3808.95
1006.4,3808.75
1007.47,3806.0
1008.54,3797.7
1009.61,3789.6
1010.68,3791.9
1011.75,3790.65
1012.82,3784.05
1013.88,3778.8
1014.95,3777.45
1016.02,3778.4
1017.09,3772.45
1018.16,3768.05
1019.22,3768.95
1020.29,3769.15
1021.36,3774.25
1022.43,3774.0
1023.49,3768.3
1024.56,3758.95
1025.63,3756.7
1026.69,3749.85
1027.76,3747.0
1028.83,3740.35
1029.89,3739.25
1030.96,3738.1
1032.02,3738.2
1033.09,3739.8
1034.15,3743.45
1035.22,3743.85
1036.28,3737.75
1037.35,3730.3
1038.41,3727.4
1039.48,3726.35
1040.54,3727.05
1041.6,3722.4
1042.67,3721.4
1043.73,3721.3
1044.79,3716.4
1045.86,3716.55
1046.92,3717.95
1047.98,3715.75
1049.05,3714.9
1050.11,3716.5
1051.17,3714.05
1052.23,3713.45
1053.29,3714.85
1054.36,3713.8
1055.42,3712.65
1056.48,3711.4
1057.54,3711.55
1058.6,3710.9
1059.66,3710.55
1060.72,3712.5
1061.78,3708.9
1062.84,3710.45
1063.9,3710.75
1064.96,3708.85
1066.02,3709.85
1067.08,3708.55
1067.88,3707.4