Folder: MPX_specDB/spectra (part 81)

File: VLFR_06-PET_bio_Raman_facab51f.csv
nm,Intensity
526.549,832.35
527.096,832.45
527.643,832.25
528.19,832.5
528.737,831.85
529.283,832.75
529.83,831.15
530.376,831.6
530.922,832.7
531.468,833.05
532.014,843.95
532.559,831.95
533.105,832.0
533.65,860.3
534.196,2598.15
534.741,2094.1
535.286,1615.45
535.83,1324.1
536.375,1156.0
536.92,1091.55
537.464,1062.65
538.008,1052.2
538.553,1061.75
539.097,1057.9
539.641,1081.9
540.184,1085.1
540.728,1034.7
541.271,1014.1
541.815,1008.6
542.358,1006.8
542.901,1012.65
543.444,1007.25
543.987,1022.15
544.53,1009.4
545.072,1013.45
545.615,1017.25
546.157,1013.35
546.699,1013.45
547.242,1012.85
547.784,1013.15
548.325,1012.5
548.867,1012.9
549.409,1011.9
549.95,1012.55
550.492,1052.3
551.033,1028.55
551.574,1016.15
552.115,1025.9
552.656,1033.1
553.197,1041.05
553.737,1021.8
554.278,1023.6
554.818,1021.6
555.358,1044.6
555.899,1106.5
556.439,1124.7
556.979,1132.6
557.518,1355.25
558.058,1158.35
558.598,1153.35
559.137,1078.35
559.677,1045.7
560.216,1046.55
560.755,1042.5
561.294,1049.7
561.833,1059.05
562.372,1076.25
562.91,1096.35
563.449,1092.55
563.987,1071.1
564.526,1096.5
565.064,1163.75
565.602,1252.3
566.14,1229.85
566.678,1109.4
567.216,1088.15
567.754,1213.05
568.291,1102.55
568.829,1096.6
569.366,1109.65
569.904,1144.65
570.441,1221.0
570.978,1410.95
571.515,1547.8
572.052,1316.1
572.589,1167.7
573.125,1138.7
573.662,1142.85
574.199,1183.8
574.735,1155.9
575.271,1209.6
575.807,1166.25
576.344,1209.8
576.88,1225.25
577.415,1175.25
577.951,1161.6
578.487,1169.65
579.023,1172.3
579.558,1173.35
580.094,1181.65
580.629,1188.7
581.164,1219.05
581.699,1371.8
582.234,3050.95
582.769,1272.4
583.304,1220.55
583.839,1220.65
584.374,1228.9
584.908,1254.7
585.443,1432.9
585.977,2159.6
586.511,1728.05
587.046,1308.5
587.58,1243.75
588.114,1230.05
588.648,1231.15
589.182,1230.9
589.716,1232.4
590.249,1227.6
590.783,1226.25
591.316,1233.85
591.85,1229.75
592.383,1228.9
592.917,1227.9
593.45,1227.85
593.983,1230.65
594.516,1229.8
595.049,1236.7
595.582,1237.3
596.115,1237.85
596.647,1241.05
597.18,1242.1
597.712,1235.35
598.245,1239.85
598.777,1246.35
599.31,1246.05
599.842,1240.25
600.374,1245.3
600.906,1240.55
601.438,1237.9
601.97,1240.0
602.502,1241.2
603.034,1241.85
603.565,1244.7
604.097,1248.75
604.628,1239.65
605.16,1240.0
605.691,1236.15
606.223,1231.0
606.754,1236.3
607.285,1236.3
607.816,1236.2
608.347,1242.0
608.878,1239.65
609.409,1235.1
609.94,1235.15
610.47,1241.55
611.001,1233.3
611.532,1244.15
612.062,1247.45
612.593,1251.25
613.123,1254.25
613.653,1260.35
614.184,1260.95
614.714,1267.7
615.244,1258.1
615.774,1260.15
616.304,1261.15
616.834,1270.3
617.364,1273.05
617.894,1282.6
618.423,1287.55
618.953,1280.5
619.482,1278.65
620.012,1273.3
620.541,1276.6
621.071,1268.6
621.6,1273.75
622.13,1281.6
622.659,1286.5
623.188,1285.6
623.717,1288.9
624.246,1299.45
624.775,1308.45
625.304,1308.65
625.833,1307.5
626.362,1310.55
626.89,1308.8
627.419,1312.55
627.948,1323.95
628.476,1345.05
629.005,1377.9
629.533,1372.2
630.061,1366.75
630.59,1371.9
631.118,1467.2
631.646,1638.45
632.175,1601.15
632.703,1493.05
633.231,1481.7
633.759,1446.15
634.287,1412.0
634.815,1387.05
635.342,1407.4
635.87,1498.8
636.398,1681.25
636.926,1627.7
637.453,1457.45
637.981,1417.65
638.509,1404.3
639.036,1408.25
639.563,1413.45
640.091,1413.3
640.618,1414.35
641.146,1412.95
641.673,1418.55
642.2,1433.05
642.727,1441.2
643.254,1425.15
643.781,1422.0
644.309,1418.55
644.836,1422.45
645.362,1421.75
645.889,1427.3
646.416,1431.0
646.943,1436.05
647.47,1443.3
647.997,1436.0
648.523,1433.65
649.05,1431.3
649.577,1436.9
650.103,1437.75
650.63,1437.55
651.156,1437.15
651.683,1441.6
652.209,1446.9
652.735,1442.8
653.262,1440.55
653.788,1450.35
654.314,1441.55
654.841,1444.4
655.367,1444.6
655.893,1447.65
656.419,1440.4
656.945,1444.15
657.471,1446.1
657.997,1442.55
658.523,1443.65
659.049,1445.0
659.575,1445.6
660.101,1442.65
660.627,1439.4
661.153,1438.2
661.679,1426.55
662.205,1429.7
662.731,1424.95
663.125,1426.9

File: VLFR_06-PET_bio_Raman_fd25e5cc.csv
nm,Intensity
528.65,1851.75
529.155,1849.85
529.66,1851.2
530.165,1850.8
530.67,1850.6
531.175,1851.75
531.68,1864.55
532.185,2589.8
532.69,1851.3
533.194,1850.35
533.699,1970.3
534.204,2330.1
534.708,2266.5
535.213,2242.65
535.717,2227.0
536.222,2192.3
536.726,2188.75
537.231,2192.9
537.735,2192.45
538.239,2194.4
538.743,2230.85
539.247,2219.65
539.751,2224.7
540.255,2238.55
540.759,2247.8
541.263,2251.85
541.767,2245.4
542.271,2248.35
542.775,2257.0
543.279,2263.65
543.782,2263.3
544.286,2275.0
544.789,2276.75
545.293,2288.9
545.796,2300.0
546.3,2283.65
546.803,2306.4
547.306,2289.55
547.81,2300.15
548.313,2293.15
548.816,2300.45
549.319,2309.2
549.822,2311.55
550.325,2307.6
550.828,2318.65
551.331,2318.3
551.834,2347.35
552.337,2334.2
552.839,2337.6
553.342,2320.55
553.844,2323.6
554.347,2350.85
554.849,2357.6
555.352,2362.8
555.854,2365.2
556.357,2372.2
556.859,2367.5
557.361,2401.05
557.863,2394.3
558.365,2382.55
558.867,2368.55
559.369,2374.2
559.871,2387.6
560.373,2394.55
560.875,2414.05
561.377,2394.4
561.878,2423.3
562.38,2410.35
562.881,2428.35
563.383,2424.5
563.884,2443.7
564.386,2434.9
564.887,2491.45
565.388,2487.5
565.89,2482.85
566.391,2476.45
566.892,2487.9
567.393,2493.05
567.894,2494.05
568.395,2494.65
568.896,2485.05
569.396,2500.55
569.897,2526.65
570.398,2527.25
570.898,2558.8
571.399,2612.4
571.9,2564.5
572.4,2566.5
572.9,2540.65
573.401,2560.35
573.901,2564.5
574.401,2552.65
574.901,2571.3
575.401,2577.45
575.901,2592.1
576.401,2607.85
576.901,2620.75
577.401,2593.9
577.901,2618.8
578.4,2601.45
578.9,2594.85
579.399,2639.55
579.899,2614.4
580.398,2659.55
580.898,2650.55
581.397,2667.4
581.896,2799.5
582.395,2764.9
582.895,2657.15
583.394,2683.5
583.893,2684.95
584.391,2680.95
584.89,2680.2
585.389,2716.95
585.888,2820.85
586.386,2752.35
586.885,2698.7
587.384,2682.75
587.882,2671.55
588.38,2689.65
588.879,2692.15
589.377,2679.6
589.875,2672.1
590.373,2662.15
590.871,2675.0
591.369,2698.75
591.867,2719.35
592.365,2702.9
592.863,2707.7
593.361,2690.9
593.858,2703.1
594.356,2688.75
594.853,2665.1
595.351,2717.6
595.848,2694.2
596.345,2713.8
596.843,2677.4
597.34,2719.3
597.837,2723.9
598.334,2701.25
598.831,2717.55
599.328,2699.8
599.824,2718.25
600.321,2726.45
600.818,2701.95
601.314,2719.3
601.811,2729.65
602.307,2724.1
602.804,2686.8
603.3,2719.85
603.796,2711.2
604.293,2696.7
604.789,2693.2
605.285,2690.35
605.781,2706.45
606.277,2725.85
606.772,2710.9
607.268,2698.2
607.764,2678.3
608.259,2717.2
608.755,2689.8
609.25,2684.25
609.746,2705.95
610.241,2699.2
610.736,2698.35
611.231,2681.7
611.727,2683.25
612.222,2681.9
612.716,2699.65
613.211,2675.2
613.706,2671.5
614.201,2682.7
614.695,2716.5
615.19,2702.85
615.684,2662.3
616.179,2690.9
616.673,2720.85
617.168,2665.75
617.662,2698.95
618.156,2707.65
618.65,2684.4
619.144,2681.4
619.638,2694.55
620.131,2689.6
620.625,2710.35
621.119,2698.2
621.612,2685.4
622.106,2702.4
622.599,2714.8
623.093,2650.45
623.586,2707.8
624.079,2702.75
624.572,2686.25
625.065,2712.25
625.558,2687.1
626.051,2701.9
626.544,2710.4
627.037,2706.15
627.529,2741.35
628.022,2695.0
628.514,2737.05
629.007,2715.05
629.499,2758.15
629.991,2721.4
630.483,2733.95
630.976,2749.85
631.468,2748.55
631.959,2764.5
632.451,2773.4
632.943,2793.15
633.435,2764.3
633.926,2775.05
634.418,2770.65
634.909,2759.65
635.401,2772.6
635.892,2759.5
636.383,2816.65
636.874,2831.75
637.365,2761.2
637.856,2770.9
638.347,2746.95
638.838,2730.8
639.329,2741.05
639.819,2743.4
640.31,2771.85
640.8,2742.25
641.291,2731.5
641.781,2746.65
642.271,2733.95
642.761,2718.45
643.251,2740.75
643.741,2719.6
644.231,2734.8
644.721,2710.05
645.211,2734.95
645.7,2742.7
646.19,2750.9
646.679,2722.35
647.169,2726.15
647.658,2711.05
648.147,2722.05
648.636,2702.4
649.125,2734.7
649.614,2692.75
650.103,2659.45
650.592,2683.95
651.08,2690.4
651.569,2647.35
652.058,2690.85
652.546,2643.15
653.034,2645.3
653.523,2643.4
654.011,2641.0
654.499,2604.35
654.987,2637.95
655.475,2595.7
655.963,2600.15
656.45,2576.3
656.938,2568.0
657.425,2569.05
657.913,2580.55
658.4,2547.9
658.888,2545.8
659.375,2544.2
659.862,2535.0
660.349,2523.25
660.836,2532.1
661.079,2498.5

File: VLFR_06-PET_bio_Raman_feba14cd.csv
nm,Intensity
526.493,829.15
527.039,829.05
527.586,828.7
528.133,828.7
528.679,829.55
529.225,829.3
529.771,829.15
530.317,829.25
530.863,828.45
531.409,829.75
531.955,830.4
532.5,829.75
533.046,828.4
533.591,829.25
534.136,940.3
534.681,909.65
535.226,908.3
535.771,896.25
536.315,878.25
536.86,870.0
537.404,867.55
537.948,874.45
538.493,867.65
539.037,861.9
539.58,861.45
540.124,862.0
540.668,863.2
541.211,864.5
541.755,863.1
542.298,862.25
542.841,864.6
543.384,866.8
543.927,869.2
544.47,869.05
545.013,871.85
545.555,869.75
546.098,869.9
546.64,871.65
547.182,872.75
547.724,872.15
548.266,873.6
548.808,873.9
549.35,875.05
549.892,876.95
550.433,878.55
550.974,880.85
551.516,881.05
552.057,877.8
552.598,873.55
553.139,872.45
553.68,872.25
554.22,872.3
554.761,871.6
555.301,872.75
555.842,873.4
556.382,871.05
556.922,874.5
557.462,875.95
558.002,875.05
558.542,877.0
559.082,876.25
559.621,876.55
560.161,877.95
560.7,877.45
561.239,877.15
561.778,879.6
562.317,879.95
562.856,878.4
563.395,879.5
563.934,878.4
564.472,881.65
565.011,881.0
565.549,881.75
566.088,882.8
566.626,881.9
567.164,878.95
567.702,882.0
568.24,882.9
568.777,882.8
569.315,885.2
569.853,884.3
570.39,884.35
570.927,887.6
571.465,887.3
572.002,885.8
572.539,884.45
573.076,884.15
573.612,887.05
574.149,887.15
574.686,889.1
575.222,888.8
575.759,887.55
576.295,887.85
576.831,890.8
577.367,889.65
577.903,888.5
578.439,888.45
578.975,891.9
579.511,891.2
580.046,891.65
580.582,892.9
581.117,891.45
581.653,892.4
582.188,899.65
582.723,896.3
583.258,910.05
583.793,895.4
584.328,894.75
584.863,895.15
585.398,898.55
585.932,898.35
586.467,899.8
587.001,897.2
587.535,897.3
588.07,896.4
588.604,897.25
589.138,897.4
589.672,895.55
590.206,896.75
590.739,897.1
591.273,898.4
591.807,898.35
592.34,897.15
592.873,898.15
593.407,897.85
593.94,895.95
594.473,895.85
595.006,898.75
595.539,899.8
596.072,898.65
596.605,900.8
597.138,899.85
597.67,900.35
598.203,901.5
598.735,905.65
599.268,901.5
599.8,902.05
600.332,900.0
600.865,901.05
601.397,902.6
601.929,901.9
602.46,900.95
602.992,903.25
603.524,903.4
604.056,905.2
604.587,904.0
605.119,903.2
605.65,903.8
606.182,902.3
606.713,898.45
607.244,901.8
607.775,900.45
608.306,904.8
608.837,902.55
609.368,900.95
609.899,903.75
610.43,900.95
610.961,899.5
611.491,900.65
612.022,903.55
612.552,902.9
613.083,905.05
613.613,907.0
614.143,906.15
614.673,906.95
615.203,903.15
615.734,903.35
616.263,905.2
616.793,903.75
617.323,903.15
617.853,907.2
618.383,907.15
618.912,905.55
619.442,904.1
619.971,907.75
620.501,904.65
621.03,906.15
621.56,905.4
622.089,905.75
622.618,905.45
623.147,907.7
623.676,908.6
624.205,907.6
624.734,908.25
625.263,909.75
625.792,906.7
626.321,907.6
626.849,906.5
627.378,907.05
627.906,906.45
628.435,908.9
628.963,906.15
629.492,908.1
630.02,909.45
630.548,906.35
631.077,910.65
631.605,909.7
632.133,910.35
632.661,907.85
633.189,909.8
633.717,908.8
634.245,909.6
634.773,908.3
635.3,908.85
635.828,908.55
636.356,910.05
636.883,913.85
637.411,908.6
637.938,910.65
638.466,909.55
638.993,913.35
639.521,913.0
640.048,909.55
640.575,912.25
641.103,913.65
641.63,913.8
642.157,914.05
642.684,916.6
643.211,917.4
643.738,916.8
644.265,917.2
644.792,914.4
645.319,916.5
645.845,919.45
646.372,920.0
646.899,923.85
647.425,928.95
647.952,936.75
648.479,940.15
649.005,957.05
649.532,972.0
650.058,990.75
650.585,1001.05
651.111,1009.5
651.637,1003.85
652.164,980.15
652.69,961.1
653.216,944.0
653.742,934.75
654.268,932.7
654.794,925.45
655.32,919.8
655.846,917.15
656.372,914.8
656.898,910.75
657.424,911.05
657.95,907.8
658.476,905.5
659.002,905.25
659.528,902.35
660.053,900.65
660.579,899.4
661.105,900.1
661.63,896.35
662.156,896.7
662.681,897.65
663.076,895.45

File: VLFR_06-PET_nobio_Raman_0b3ec2cd.csv
cm-1,Intensity
-123.878,1856.75
-105.821,1856.25
-87.8007,1856.7
-69.8161,1857.8
-51.8675,1857.55
-33.9547,1859.65
-16.0776,1878.85
1.76388,2926.75
19.5698,1860.65
37.3403,1864.9
55.0755,2745.75
72.7754,4573.65
90.4402,3950.4
108.07,3402.3
125.665,2875.9
143.225,2607.55
160.75,2502.55
178.241,2454.5
195.697,2451.5
213.119,2460.85
230.506,2451.75
247.859,2502.8
265.178,2575.3
282.463,2520.2
299.713,2454.9
316.93,2447.5
334.113,2425.3
351.263,2473.5
368.379,2477.65
385.461,2491.15
402.51,2497.7
419.526,2468.85
436.508,2518.95
453.458,2528.6
470.374,2539.6
487.257,2532.3
504.107,2549.6
520.925,2555.35
537.71,2564.6
554.462,2580.1
571.182,2596.8
587.87,2608.15
604.525,2636.1
621.148,2701.8
637.739,2869.85
654.297,2688.25
670.824,2682.05
687.319,2711.1
703.782,2865.3
720.213,2719.75
736.613,2771.5
752.981,2782.7
769.317,2811.55
785.623,2924.85
801.897,3005.95
818.139,3061.35
834.351,3138.0
850.532,3516.85
866.681,3375.75
882.8,3189.9
898.888,3098.4
914.945,2977.2
930.972,3042.55
946.968,3011.3
962.934,3074.95
978.869,3114.9
994.774,3150.45
1010.65,3201.15
1026.49,3241.6
1042.31,3211.65
1058.09,3210.9
1073.85,3271.1
1089.57,3418.9
1105.27,3591.85
1120.93,3755.1
1136.57,3422.5
1152.18,3331.6
1167.75,3419.95
1183.3,3509.05
1198.82,3377.55
1214.31,3351.7
1229.77,3389.5
1245.2,3532.45
1260.6,3757.45
1275.97,4150.95
1291.32,4529.75
1306.63,4048.6
1321.92,3743.95
1337.18,3558.75
1352.41,3616.8
1367.61,3618.7
1382.78,3625.8
1397.93,3698.7
1413.05,3856.9
1428.14,3718.55
1443.2,3862.05
1458.23,3853.5
1473.23,3833.15
1488.21,3761.05
1503.16,3764.7
1518.08,3752.25
1532.97,3805.75
1547.84,3847.6
1562.68,3914.2
1577.49,3970.8
1592.27,4125.3
1607.03,6001.95
1621.76,5639.55
1636.46,4045.2
1651.14,4053.9
1665.78,4016.65
1680.41,4073.8
1695.0,4116.65
1709.57,4662.2
1724.11,6216.6
1738.62,5546.85
1753.11,4357.35
1767.57,4159.7
1782.01,4151.2
1796.41,4198.1
1810.8,4204.85
1825.15,4217.05
1839.48,4182.85
1853.79,4169.25
1868.06,4136.2
1882.31,4262.65
1896.54,4276.65
1910.74,4264.7
1924.91,4268.6
1939.06,4262.05
1953.19,4350.65
1967.28,4266.6
1981.35,4338.0
1995.4,4315.15
2009.42,4317.15
2023.42,4348.5
2037.39,4410.45
2051.33,4385.6
2065.25,4395.95
2079.15,4387.7
2093.01,4398.7
2106.86,4422.05
2120.68,4409.8
2134.47,4379.9
2148.24,4392.05
2161.99,4433.7
2175.71,4383.5
2189.41,4470.95
2203.08,4472.7
2216.73,4439.85
2230.35,4425.9
2243.95,4384.95
2257.52,4442.75
2271.07,4408.6
2284.6,4450.9
2298.1,4364.9
2311.58,4469.65
2325.03,4414.6
2338.46,4392.5
2351.87,4517.1
2365.25,4489.2
2378.61,4433.35
2391.94,4437.7
2405.26,4475.05
2418.54,4482.3
2431.81,4463.35
2445.05,4508.85
2458.27,4467.95
2471.46,4475.8
2484.63,4415.5
2497.78,4479.85
2510.9,4433.5
2524.0,4515.4
2537.08,4438.25
2550.14,4503.25
2563.17,4480.3
2576.18,4500.1
2589.17,4479.95
2602.13,4535.25
2615.07,4540.0
2627.99,4561.5
2640.89,4565.45
2653.76,4504.95
2666.61,4540.15
2679.44,4487.4
2692.25,4527.1
2705.03,4600.3
2717.79,4535.1
2730.53,4522.3
2743.25,4617.05
2755.94,4604.0
2768.61,4659.3
2781.27,4689.7
2793.89,4665.25
2806.5,4604.05
2819.09,4679.75
2831.65,4652.25
2844.19,4663.5
2856.71,4724.2
2869.21,4801.45
2881.69,4852.4
2894.14,5020.8
2906.58,5000.35
2918.99,4959.65
2931.38,4896.95
2943.75,5160.0
2956.1,5724.35
2968.42,5795.2
2980.73,5432.3
2993.01,5378.65
3005.28,5351.9
3017.52,5263.4
3029.74,5175.75
3041.94,5135.05
3054.12,5201.25
3066.28,5441.85
3078.42,6163.0
3090.54,5937.45
3102.63,5430.55
3114.71,5355.4
3126.77,5240.35
3138.8,5240.8
3150.82,5226.75
3162.81,5218.55
3174.78,5146.75
3186.74,5202.75
3198.67,5284.9
3210.58,5237.8
3222.47,5352.95
3234.35,5386.05
3246.2,5327.5
3258.03,5353.55
3269.84,5408.95
3281.64,5349.75
3293.41,5379.8
3305.16,5265.2
3316.89,5215.55
3328.61,5387.1
3340.3,5291.75
3351.97,5253.35
3363.63,5258.2
3375.26,5313.2
3386.88,5313.25
3398.47,5247.2
3410.05,5251.4
3421.6,5247.25
3433.14,5291.2
3444.66,5370.55
3456.15,5339.95
3467.63,5207.5
3479.09,5225.05
3490.53,5180.7
3501.96,5180.05
3513.36,5120.15
3524.74,5038.15
3536.11,5100.3
3547.45,5013.0
3558.78,5113.75
3570.09,5055.45
3581.37,4966.65
3592.64,4951.95
3603.9,4931.6
3615.13,4993.1
3626.34,4795.75
3637.54,4769.55
3648.72,4775.25
3659.87,4753.25
3665.45,4753.15

File: VLFR_06-PET_nobio_Raman_0c0d2c93.csv
nm,Intensity
526.486,830.6
527.033,830.2
527.579,829.8
528.126,831.0
528.672,831.6
529.219,830.4
529.765,830.9
530.311,830.1
530.857,830.1
531.403,831.6
531.948,832.4
532.494,832.3
533.039,831.4
533.585,839.7
534.13,2149.2
534.675,1801.8
535.22,1426.6
535.764,1193.0
536.309,1059.4
536.854,998.3
537.398,979.8
537.942,964.7
538.486,971.2
539.03,968.1
539.574,985.6
540.118,990.9
540.662,947.7
541.205,936.2
541.749,928.3
542.292,932.4
542.835,928.1
543.378,928.7
543.921,937.9
544.464,934.0
545.006,938.7
545.549,934.9
546.091,942.7
546.634,936.5
547.176,941.3
547.718,944.3
548.26,946.0
548.802,947.7
549.343,946.8
549.885,951.3
550.426,967.0
550.968,986.8
551.509,960.2
552.05,961.3
552.591,969.1
553.132,995.2
553.673,974.3
554.214,976.8
554.754,975.7
555.295,985.1
555.835,1048.8
556.375,1051.8
556.915,1054.9
557.455,1200.1
557.995,1090.3
558.535,1080.2
559.075,1032.6
559.614,1007.1
560.154,1004.9
560.693,1006.1
561.232,1018.6
561.772,1020.9
562.311,1029.6
562.85,1043.9
563.388,1052.8
563.927,1037.1
564.466,1047.7
565.004,1091.0
565.543,1156.4
566.081,1177.7
566.619,1072.6
567.157,1058.4
567.695,1140.7
568.233,1065.0
568.771,1062.7
569.309,1070.1
569.846,1103.6
570.384,1136.7
570.921,1282.6
571.458,1417.4
571.995,1244.7
572.532,1122.8
573.069,1101.6
573.606,1097.7
574.143,1131.4
574.68,1110.4
575.216,1145.8
575.753,1128.4
576.289,1142.4
576.825,1170.3
577.361,1139.0
577.897,1118.7
578.433,1124.1
578.969,1125.1
579.505,1131.2
580.041,1131.9
580.576,1139.4
581.112,1167.2
581.647,1238.5
582.183,2469.2
582.718,1229.8
583.253,1175.8
583.788,1169.0
584.323,1178.7
584.858,1187.6
585.392,1289.0
585.927,1840.5
586.462,1613.2
586.996,1238.4
587.53,1198.1
588.065,1186.2
588.599,1184.7
589.133,1189.9
589.667,1185.8
590.201,1189.4
590.735,1188.1
591.268,1193.0
591.802,1195.3
592.335,1194.4
592.869,1196.8
593.402,1198.4
593.936,1197.7
594.469,1203.2
595.002,1207.9
595.535,1214.0
596.068,1213.1
596.601,1214.8
597.133,1216.2
597.666,1218.6
598.199,1217.1
598.731,1227.2
599.264,1228.2
599.796,1219.7
600.328,1224.3
600.86,1220.3
601.393,1221.6
601.925,1228.4
602.457,1232.3
602.988,1220.5
603.52,1236.6
604.052,1239.9
604.583,1231.0
605.115,1230.7
605.646,1221.7
606.178,1224.2
606.709,1219.0
607.24,1231.2
607.771,1231.2
608.302,1238.3
608.833,1239.1
609.364,1228.9
609.895,1246.2
610.426,1247.9
610.957,1239.6
611.487,1235.5
612.018,1245.6
612.548,1248.2
613.078,1261.5
613.609,1260.4
614.139,1261.4
614.669,1262.7
615.199,1262.9
615.729,1262.8
616.259,1269.2
616.789,1273.3
617.319,1281.2
617.849,1288.2
618.378,1287.3
618.908,1295.6
619.437,1287.4
619.967,1290.3
620.496,1283.6
621.025,1292.4
621.555,1285.1
622.084,1296.2
622.613,1300.1
623.142,1307.8
623.671,1310.3
624.2,1321.1
624.729,1328.3
625.258,1334.8
625.786,1337.5
626.315,1327.9
626.844,1330.8
627.372,1340.2
627.901,1348.2
628.429,1362.4
628.957,1398.2
629.486,1393.5
630.014,1386.1
630.542,1400.9
631.07,1450.8
631.598,1582.3
632.126,1583.5
632.654,1515.4
633.182,1494.2
633.71,1475.3
634.237,1444.4
634.765,1438.0
635.293,1451.2
635.82,1516.7
636.348,1630.2
636.875,1651.1
637.403,1514.2
637.93,1480.1
638.458,1471.7
638.985,1469.1
639.512,1480.4
640.039,1490.3
640.566,1489.4
641.093,1491.2
641.62,1498.5
642.147,1515.2
642.674,1510.5
643.201,1498.5
643.728,1498.7
644.255,1501.9
644.781,1502.9
645.308,1501.6
645.835,1510.1
646.361,1513.9
646.888,1530.5
647.414,1531.6
647.941,1530.3
648.467,1530.9
648.993,1532.4
649.52,1535.0
650.046,1528.8
650.572,1535.0
651.098,1528.7
651.625,1552.0
652.151,1550.8
652.677,1542.8
653.203,1548.8
653.729,1556.5
654.255,1552.7
654.78,1551.7
655.306,1558.6
655.832,1549.7
656.358,1563.2
656.884,1565.1
657.409,1555.2
657.935,1567.5
658.461,1575.2
658.986,1561.5
659.512,1563.0
660.037,1566.7
660.563,1565.6
661.088,1560.2
661.614,1543.1
662.139,1551.1
662.664,1548.4
663.058,1546.7

File: VLFR_06-PET_nobio_Raman_2ab89b78.csv
nm,Intensity
526.486,830.0
527.033,831.1
527.579,831.4
528.126,831.6
528.672,830.1
529.219,830.6
529.765,829.6
530.311,830.6
530.857,830.4
531.403,828.7
531.948,836.5
532.494,833.5
533.039,829.2
533.585,839.7
534.13,2315.0
534.675,1923.8
535.22,1516.5
535.764,1272.7
536.309,1112.5
536.854,1057.1
537.398,1033.4
537.942,1022.2
538.486,1033.4
539.03,1026.5
539.574,1040.4
540.118,1053.9
540.662,1009.7
541.205,992.2
541.749,987.3
542.292,987.4
542.835,994.7
543.378,999.0
543.921,1010.2
544.464,1002.2
545.006,1005.5
545.549,1013.2
546.091,1011.5
546.634,1010.4
547.176,1021.3
547.718,1020.8
548.26,1025.0
548.802,1028.8
549.343,1027.5
549.885,1031.6
550.426,1052.3
550.968,1068.6
551.509,1048.2
552.05,1052.1
552.591,1060.5
553.132,1088.6
553.673,1065.3
554.214,1067.9
554.754,1070.9
555.295,1087.0
555.835,1153.5
556.375,1155.7
556.915,1168.0
557.455,1321.5
557.995,1205.6
558.535,1197.2
559.075,1148.3
559.614,1118.4
560.154,1111.5
560.693,1124.6
561.232,1135.5
561.772,1147.8
562.311,1160.7
562.85,1171.2
563.388,1183.0
563.927,1175.1
564.466,1185.5
565.004,1232.6
565.543,1322.6
566.081,1324.4
566.619,1219.1
567.157,1195.9
567.695,1298.6
568.233,1214.7
568.771,1211.4
569.309,1224.2
569.846,1258.0
570.384,1312.8
570.921,1460.6
571.458,1617.5
571.995,1429.0
572.532,1298.9
573.069,1268.5
573.606,1274.2
574.143,1317.4
574.68,1297.6
575.216,1338.7
575.753,1312.6
576.289,1350.4
576.825,1365.7
577.361,1327.7
577.897,1315.4
578.433,1325.5
578.969,1321.8
579.505,1342.0
580.041,1342.1
580.576,1340.8
581.112,1386.6
581.647,1476.7
582.183,2851.2
582.718,1456.6
583.253,1393.4
583.788,1394.6
584.323,1405.7
584.858,1431.8
585.392,1540.8
585.927,2175.8
586.462,1910.4
586.996,1490.4
587.53,1441.2
588.065,1442.6
588.599,1442.3
589.133,1438.2
589.667,1442.5
590.201,1446.4
590.735,1443.8
591.268,1453.2
591.802,1456.3
592.335,1450.8
592.869,1460.0
593.402,1464.5
593.936,1468.0
594.469,1473.8
595.002,1469.9
595.535,1483.9
596.068,1482.1
596.601,1481.9
597.133,1484.5
597.666,1488.7
598.199,1489.4
598.731,1501.7
599.264,1507.9
599.796,1505.1
600.328,1510.8
600.86,1497.8
601.393,1513.6
601.925,1508.6
602.457,1509.6
602.988,1512.6
603.52,1524.2
604.052,1521.9
604.583,1519.6
605.115,1512.4
605.646,1511.1
606.178,1506.5
606.709,1515.8
607.24,1511.4
607.771,1523.7
608.302,1518.6
608.833,1512.9
609.364,1528.7
609.895,1529.1
610.426,1536.9
610.957,1528.6
611.487,1544.4
612.018,1537.0
612.548,1556.9
613.078,1563.7
613.609,1570.5
614.139,1574.9
614.669,1572.9
615.199,1584.5
615.729,1577.5
616.259,1588.5
616.789,1590.4
617.319,1602.9
617.849,1616.9
618.378,1615.1
618.908,1615.0
619.437,1610.1
619.967,1605.1
620.496,1608.5
621.025,1614.5
621.555,1602.5
622.084,1628.4
622.613,1630.1
623.142,1640.8
623.671,1660.4
624.2,1659.7
624.729,1674.3
625.258,1681.9
625.786,1678.4
626.315,1673.6
626.844,1686.8
627.372,1706.4
627.901,1700.2
628.429,1729.6
628.957,1767.1
629.486,1781.2
630.014,1760.3
630.542,1771.2
631.07,1861.4
631.598,2023.2
632.126,2016.0
632.654,1934.0
633.182,1895.9
633.71,1892.6
634.237,1857.2
634.765,1856.0
635.293,1881.1
635.82,1947.9
636.348,2099.1
636.875,2139.9
637.403,1943.2
637.93,1917.5
638.458,1920.0
638.985,1914.2
639.512,1928.4
640.039,1935.7
640.566,1941.8
641.093,1947.7
641.62,1962.7
642.147,1964.8
642.674,1990.6
643.201,1961.9
643.728,1972.0
644.255,1969.3
644.781,1984.8
645.308,1968.4
645.835,1990.9
646.361,2008.4
646.888,2009.6
647.414,2028.1
647.941,2023.8
648.467,2025.8
648.993,2013.1
649.52,2020.9
650.046,2025.1
650.572,2020.5
651.098,2027.9
651.625,2047.1
652.151,2027.9
652.677,2052.9
653.203,2051.1
653.729,2060.6
654.255,2071.1
654.78,2059.3
655.306,2061.6
655.832,2063.0
656.358,2049.4
656.884,2061.5
657.409,2075.4
657.935,2066.0
658.461,2071.8
658.986,2062.2
659.512,2076.3
660.037,2071.3
660.563,2073.1
661.088,2066.7
661.614,2042.9
662.139,2037.6
662.664,2055.8
663.058,2038.8