Folder: MPX_specDB/spectra (part 47)

File: VLFR_02-HDPE_bio_Raman_c1bb3e59.csv
nm,Intensity
528.629,1854.6
529.134,1852.45
529.639,1853.15
530.145,1852.35
530.65,1852.8
531.155,1852.85
531.66,1874.3
532.165,2554.1
532.67,1854.45
533.175,1853.45
533.68,1857.7
534.185,1871.4
534.69,1876.15
535.195,1872.15
535.699,1872.75
536.204,1871.4
536.709,1872.2
537.213,1874.05
537.718,1875.1
538.222,1873.45
538.727,1877.25
539.231,1876.3
539.735,1878.4
540.239,1878.55
540.744,1876.7
541.248,1878.7
541.752,1876.55
542.256,1882.1
542.76,1877.45
543.264,1878.75
543.768,1877.6
544.271,1881.6
544.775,1878.4
545.279,1882.45
545.783,1878.15
546.286,1878.7
546.79,1882.4
547.293,1881.6
547.797,1881.8
548.3,1881.5
548.803,1884.95
549.306,1885.35
549.81,1884.35
550.313,1889.55
550.816,1885.05
551.319,1885.4
551.822,1887.9
552.325,1886.35
552.828,1887.4
553.33,1887.55
553.833,1887.25
554.336,1888.85
554.838,1891.3
555.341,1890.3
555.843,1891.9
556.346,1894.45
556.848,1892.6
557.35,1891.8
557.853,1893.15
558.355,1890.3
558.857,1893.15
559.359,1895.45
559.861,1895.25
560.363,1896.35
560.865,1895.15
561.367,1896.95
561.869,1895.85
562.37,1902.25
562.872,1895.7
563.374,1895.25
563.875,1896.95
564.376,1898.3
564.878,1895.75
565.379,1899.25
565.881,1902.1
566.382,1901.25
566.883,1899.0
567.384,1899.7
567.885,1901.3
568.386,1902.05
568.887,1900.9
569.388,1902.0
569.888,1903.75
570.389,1900.15
570.89,1901.25
571.39,1904.55
571.891,1903.15
572.391,1903.0
572.892,1904.9
573.392,1907.05
573.892,1901.9
574.393,1902.75
574.893,1905.2
575.393,1906.9
575.893,1907.75
576.393,1909.6
576.893,1903.05
577.392,1904.45
577.892,1907.25
578.392,1905.55
578.891,1904.05
579.391,1906.75
579.89,1910.95
580.39,1910.8
580.889,1908.25
581.388,1910.5
581.888,1910.0
582.387,1914.05
582.886,1906.9
583.385,1908.55
583.884,1911.2
584.383,1907.3
584.881,1910.15
585.38,1909.45
585.879,1910.2
586.377,1909.55
586.876,1911.2
587.374,1912.65
587.873,1908.75
588.371,1909.1
588.869,1912.45
589.368,1910.15
589.866,1910.9
590.364,1911.3
590.862,1911.35
591.36,1913.2
591.857,1908.65
592.355,1911.9
592.853,1906.15
593.35,1908.5
593.848,1910.0
594.345,1913.9
594.843,1910.35
595.34,1912.15
595.837,1914.15
596.335,1914.7
596.832,1913.45
597.329,1912.2
597.826,1914.2
598.323,1914.0
598.819,1915.4
599.316,1915.95
599.813,1909.6
600.309,1919.95
600.806,1915.25
601.302,1912.4
601.799,1918.3
602.295,1916.0
602.791,1915.8
603.288,1913.6
603.784,1913.1
604.28,1914.8
604.776,1915.35
605.272,1913.65
605.767,1920.0
606.263,1912.7
606.759,1917.15
607.254,1919.0
607.75,1917.8
608.245,1916.3
608.74,1916.8
609.236,1914.2
609.731,1911.75
610.226,1911.4
610.721,1918.3
611.216,1919.15
611.711,1917.7
612.206,1913.65
612.7,1915.25
613.195,1909.0
613.69,1910.8
614.184,1912.8
614.679,1912.9
615.173,1912.75
615.667,1916.45
616.161,1910.3
616.656,1915.2
617.15,1913.15
617.644,1911.35
618.137,1910.8
618.631,1910.1
619.125,1912.9
619.619,1911.2
620.112,1911.65
620.606,1911.2
621.099,1911.15
621.592,1915.35
622.086,1910.45
622.579,1914.75
623.072,1913.2
623.565,1911.1
624.058,1910.3
624.551,1909.25
625.043,1908.55
625.536,1909.45
626.029,1912.45
626.521,1911.3
627.014,1915.25
627.506,1913.8
627.998,1915.85
628.49,1917.75
628.983,1909.75
629.475,1910.6
629.966,1910.05
630.458,1909.45
630.95,1908.5
631.442,1905.45
631.933,1908.45
632.425,1906.15
632.916,1905.15
633.408,1905.2
633.899,1905.1
634.39,1908.15
634.881,1909.4
635.372,1903.4
635.863,1901.65
636.354,1905.9
636.845,1903.5
637.336,1904.15
637.826,1899.4
638.317,1900.25
638.807,1900.1
639.298,1903.1
639.788,1904.5
640.278,1904.7
640.768,1897.1
641.258,1899.95
641.748,1900.25
642.238,1901.1
642.728,1900.0
643.217,1898.4
643.707,1897.65
644.197,1897.45
644.686,1904.3
645.175,1896.15
645.664,1895.2
646.154,1898.7
646.643,1895.9
647.132,1896.75
647.621,1896.45
648.109,1898.0
648.598,1900.25
649.087,1894.65
649.575,1897.5
650.064,1898.7
650.552,1896.85
651.04,1891.5
651.528,1891.45
652.017,1894.15
652.505,1895.55
652.992,1895.3
653.48,1891.0
653.968,1893.1
654.456,1890.85
654.943,1890.4
655.431,1893.25
655.918,1888.3
656.405,1889.45
656.893,1889.65
657.38,1889.45
657.867,1887.75
658.354,1882.1
658.84,1886.05
659.327,1885.5
659.814,1884.8
660.3,1884.1
660.787,1884.45
661.03,1883.9

File: VLFR_02-HDPE_bio_Raman_c3bc0a04.csv
nm,Intensity
526.547,831.65
527.095,831.25
527.642,830.4
528.189,832.15
528.736,832.35
529.283,831.8
529.829,831.65
530.376,832.75
530.922,832.25
531.468,831.25
532.014,842.7
532.56,832.65
533.106,832.95
533.651,833.15
534.196,895.85
534.742,885.9
535.287,878.9
535.832,876.25
536.376,873.4
536.921,872.95
537.465,873.4
538.01,871.8
538.554,872.4
539.098,869.8
539.642,868.25
540.186,864.3
540.729,863.15
541.273,862.8
541.816,864.55
542.36,869.45
542.903,865.4
543.446,864.85
543.988,865.45
544.531,865.5
545.074,870.65
545.616,882.0
546.158,869.35
546.701,865.3
547.243,867.4
547.785,866.3
548.326,867.4
548.868,869.55
549.41,869.45
549.951,876.85
550.492,870.75
551.034,867.35
551.575,868.65
552.116,867.5
552.656,866.3
553.197,866.75
553.738,868.3
554.278,868.25
554.819,868.75
555.359,867.05
555.899,867.35
556.439,867.2
556.979,865.45
557.519,868.35
558.058,867.3
558.598,868.0
559.137,867.25
559.677,867.9
560.216,868.0
560.755,870.45
561.294,882.2
561.833,906.3
562.371,870.15
562.91,872.7
563.449,874.0
563.987,879.35
564.525,874.5
565.064,873.9
565.602,872.8
566.14,881.65
566.678,873.45
567.216,870.6
567.753,871.35
568.291,871.9
568.828,872.05
569.366,874.2
569.903,872.65
570.44,872.1
570.977,871.4
571.514,880.3
572.051,873.85
572.588,871.6
573.125,873.0
573.661,873.35
574.198,875.8
574.734,873.25
575.271,873.8
575.807,875.1
576.343,882.35
576.879,879.4
577.415,877.95
577.951,875.7
578.486,877.5
579.022,878.1
579.557,877.0
580.093,877.35
580.628,876.75
581.164,879.4
581.699,879.9
582.234,877.35
582.769,880.25
583.304,881.95
583.838,882.85
584.373,884.4
584.908,880.45
585.442,879.55
585.977,882.55
586.511,883.25
587.045,883.7
587.58,884.5
588.114,884.2
588.648,884.8
589.182,885.9
589.715,885.85
590.249,885.5
590.783,887.4
591.316,888.3
591.85,887.7
592.383,887.65
592.917,889.55
593.45,886.8
593.983,890.5
594.516,891.9
595.049,892.35
595.582,891.3
596.115,891.45
596.648,894.4
597.18,894.4
597.713,894.55
598.245,899.55
598.778,900.65
599.31,900.0
599.842,898.75
600.375,898.35
600.907,900.95
601.439,899.75
601.971,899.8
602.503,901.75
603.034,899.95
603.566,899.3
604.098,896.8
604.629,897.25
605.161,897.65
605.692,892.65
606.224,891.7
606.755,892.4
607.286,888.65
607.817,890.55
608.348,890.9
608.879,891.0
609.41,890.05
609.941,887.05
610.472,887.0
611.002,885.9
611.533,886.75
612.063,886.95
612.594,888.15
613.124,886.95
613.655,889.9
614.185,886.95
614.715,882.55
615.245,885.75
615.775,884.35
616.305,885.0
616.835,883.3
617.365,884.5
617.895,884.25
618.425,884.8
618.954,884.15
619.484,883.9
620.013,881.75
620.543,882.85
621.072,880.7
621.602,884.6
622.131,886.3
622.66,884.0
623.189,882.35
623.718,882.4
624.247,881.2
624.776,881.1
625.305,882.2
625.834,881.15
626.363,883.0
626.891,904.1
627.42,931.25
627.949,909.45
628.477,932.25
629.006,913.45
629.534,904.9
630.062,896.7
630.591,896.15
631.119,887.55
631.647,883.6
632.175,881.65
632.703,878.55
633.231,880.45
633.759,879.1
634.287,879.7
634.815,878.7
635.343,877.1
635.871,878.2
636.398,880.95
636.926,880.4
637.454,881.5
637.981,879.85
638.509,879.9
639.036,879.5
639.564,882.9
640.091,883.8
640.618,884.25
641.146,886.1
641.673,889.6
642.2,889.4
642.727,892.1
643.254,891.7
643.781,895.7
644.308,894.15
644.835,893.55
645.362,895.7
645.889,896.1
646.416,897.55
646.942,899.5
647.469,902.55
647.996,904.15
648.522,908.05
649.049,906.5
649.576,911.0
650.102,914.05
650.629,910.8
651.155,911.35
651.682,909.35
652.208,904.5
652.734,902.5
653.261,900.35
653.787,893.95
654.313,895.0
654.839,890.65
655.365,887.9
655.892,886.65
656.418,884.4
656.944,884.2
657.47,881.8
657.996,880.85
658.522,877.5
659.048,876.05
659.574,874.55
660.099,875.6
660.625,869.75
661.151,871.45
661.677,869.15
662.203,870.75
662.728,866.8
663.123,865.35

File: VLFR_02-HDPE_bio_Raman_c6eaac63.csv
nm,Intensity
526.549,830.9
527.096,831.85
527.643,831.55
528.19,831.25
528.737,832.45
529.283,831.45
529.83,830.5
530.376,832.0
530.922,831.7
531.468,831.95
532.014,844.15
532.559,831.0
533.105,830.85
533.65,832.6
534.196,886.55
534.741,884.35
535.286,878.95
535.83,861.3
536.375,858.45
536.92,852.3
537.464,854.25
538.008,853.3
538.553,851.3
539.097,851.55
539.641,848.6
540.184,850.7
540.728,848.0
541.271,848.7
541.815,848.05
542.358,849.75
542.901,846.95
543.444,847.6
543.987,848.65
544.53,847.5
545.072,847.8
545.615,849.1
546.157,850.25
546.699,848.2
547.242,849.25
547.784,849.0
548.325,848.25
548.867,848.7
549.409,849.0
549.95,848.85
550.492,849.7
551.033,849.95
551.574,851.45
552.115,850.7
552.656,849.6
553.197,850.8
553.737,851.2
554.278,852.05
554.818,853.55
555.358,851.75
555.899,854.2
556.439,853.7
556.979,855.35
557.518,857.1
558.058,856.85
558.598,857.15
559.137,855.4
559.677,856.25
560.216,855.85
560.755,855.9
561.294,855.4
561.833,855.8
562.372,856.95
562.91,860.2
563.449,859.95
563.987,933.35
564.526,875.45
565.064,868.55
565.602,866.5
566.14,928.45
566.678,866.4
567.216,864.45
567.754,866.35
568.291,859.45
568.829,862.2
569.366,864.3
569.904,863.7
570.441,866.25
570.978,872.45
571.515,994.65
572.052,885.3
572.589,873.1
573.125,870.3
573.662,870.05
574.199,879.0
574.735,873.45
575.271,878.3
575.807,907.5
576.344,996.1
576.88,944.05
577.415,921.25
577.951,891.9
578.487,891.0
579.023,894.45
579.558,896.9
580.094,898.7
580.629,899.0
581.164,900.15
581.699,901.45
582.234,901.85
582.769,903.05
583.304,900.85
583.839,902.05
584.374,902.35
584.908,899.3
585.443,902.8
585.977,900.15
586.511,901.5
587.046,901.4
587.58,902.25
588.114,902.45
588.648,901.4
589.182,899.65
589.716,900.15
590.249,902.4
590.783,903.05
591.316,904.55
591.85,901.9
592.383,902.75
592.917,903.05
593.45,903.1
593.983,900.5
594.516,900.7
595.049,901.6
595.582,900.85
596.115,902.95
596.647,906.55
597.18,905.05
597.712,905.15
598.245,908.55
598.777,909.7
599.31,909.95
599.842,907.55
600.374,910.5
600.906,910.65
601.438,910.25
601.97,912.8
602.502,912.7
603.034,910.25
603.565,909.35
604.097,910.8
604.628,909.8
605.16,907.85
605.691,902.3
606.223,900.25
606.754,902.2
607.285,899.05
607.816,898.9
608.347,896.75
608.878,897.7
609.409,897.05
609.94,895.15
610.47,893.45
611.001,894.7
611.532,893.35
612.062,893.9
612.593,894.05
613.123,891.45
613.653,890.75
614.184,891.95
614.714,890.3
615.244,893.2
615.774,887.75
616.304,892.5
616.834,898.35
617.364,897.1
617.894,898.4
618.423,900.5
618.953,897.5
619.482,902.2
620.012,903.8
620.541,902.15
621.071,908.65
621.6,918.95
622.13,944.85
622.659,936.75
623.188,910.95
623.717,905.55
624.246,903.55
624.775,906.55
625.304,906.95
625.833,915.55
626.362,949.6
626.89,1213.4
627.419,1532.4
627.948,1267.95
628.476,1555.55
629.005,1234.7
629.533,1166.65
630.061,1082.9
630.59,1064.5
631.118,972.3
631.646,919.75
632.175,912.55
632.703,906.5
633.231,905.65
633.759,902.8
634.287,900.6
634.815,898.7
635.342,897.5
635.87,899.35
636.398,896.75
636.926,898.15
637.453,894.55
637.981,893.6
638.509,892.1
639.036,892.15
639.563,893.5
640.091,891.1
640.618,889.9
641.146,891.4
641.673,892.1
642.2,889.7
642.727,890.3
643.254,890.25
643.781,889.7
644.309,889.3
644.836,888.95
645.362,888.8
645.889,890.4
646.416,889.35
646.943,890.45
647.47,886.75
647.997,888.9
648.523,889.0
649.05,888.85
649.577,886.75
650.103,887.55
650.63,887.4
651.156,888.0
651.683,887.75
652.209,888.8
652.735,888.3
653.262,887.8
653.788,889.05
654.314,887.25
654.841,886.8
655.367,887.6
655.893,888.3
656.419,887.15
656.945,888.05
657.471,885.7
657.997,887.25
658.523,886.05
659.049,886.35
659.575,888.55
660.101,888.7
660.627,884.75
661.153,881.45
661.679,884.3
662.205,882.25
662.731,882.55
663.125,879.85

File: VLFR_02-HDPE_bio_Raman_c41e6d9c.csv
nm,Intensity
528.629,1849.35
529.134,1849.75
529.639,1850.2
530.145,1849.95
530.65,1851.2
531.155,1851.85
531.66,1872.15
532.165,2680.15
532.67,1851.5
533.175,1850.15
533.68,1856.2
534.185,1871.45
534.69,1874.25
535.195,1876.55
535.699,1875.15
536.204,1873.35
536.709,1874.85
537.213,1876.5
537.718,1877.05
538.222,1879.15
538.727,1880.65
539.231,1879.05
539.735,1881.75
540.239,1883.45
540.744,1881.55
541.248,1885.8
541.752,1883.9
542.256,1885.15
542.76,1879.9
543.264,1882.75
543.768,1879.7
544.271,1879.75
544.775,1881.55
545.279,1882.4
545.783,1882.3
546.286,1879.75
546.79,1882.55
547.293,1879.45
547.797,1880.05
548.3,1883.75
548.803,1883.75
549.306,1885.65
549.81,1884.0
550.313,1886.25
550.816,1885.1
551.319,1887.2
551.822,1885.9
552.325,1885.6
552.828,1888.9
553.33,1890.25
553.833,1890.05
554.336,1890.05
554.838,1887.2
555.341,1888.05
555.843,1893.75
556.346,1887.9
556.848,1891.95
557.35,1892.25
557.853,1888.05
558.355,1894.6
558.857,1895.95
559.359,1895.35
559.861,1895.35
560.363,1896.25
560.865,1895.25
561.367,1893.25
561.869,1896.35
562.37,1895.45
562.872,1900.15
563.374,1899.0
563.875,1899.35
564.376,1895.45
564.878,1899.6
565.379,1897.45
565.881,1900.75
566.382,1903.5
566.883,1898.4
567.384,1899.4
567.885,1901.8
568.386,1902.35
568.887,1904.7
569.388,1900.9
569.888,1902.25
570.389,1901.3
570.89,1903.5
571.39,1908.65
571.891,1903.1
572.391,1905.25
572.892,1902.35
573.392,1902.85
573.892,1909.7
574.393,1901.8
574.893,1902.9
575.393,1906.8
575.893,1911.5
576.393,1908.15
576.893,1909.4
577.392,1904.35
577.892,1907.95
578.392,1907.45
578.891,1905.15
579.391,1908.85
579.89,1908.5
580.39,1907.0
580.889,1908.3
581.388,1905.55
581.888,1907.65
582.387,1906.3
582.886,1906.75
583.385,1912.3
583.884,1907.9
584.383,1908.0
584.881,1906.65
585.38,1904.55
585.879,1906.3
586.377,1909.1
586.876,1905.6
587.374,1909.7
587.873,1907.35
588.371,1909.45
588.869,1909.3
589.368,1910.1
589.866,1906.4
590.364,1910.25
590.862,1910.3
591.36,1904.9
591.857,1908.85
592.355,1910.85
592.853,1909.15
593.35,1910.75
593.848,1912.4
594.345,1907.55
594.843,1908.8
595.34,1905.35
595.837,1917.15
596.335,1907.9
596.832,1912.0
597.329,1911.0
597.826,1912.85
598.323,1907.9
598.819,1910.25
599.316,1907.05
599.813,1915.45
600.309,1908.95
600.806,1911.3
601.302,1909.9
601.799,1915.35
602.295,1918.55
602.791,1913.45
603.288,1911.05
603.784,1913.35
604.28,1909.1
604.776,1908.1
605.272,1906.7
605.767,1907.5
606.263,1909.05
606.759,1911.55
607.254,1911.4
607.75,1907.15
608.245,1909.9
608.74,1909.45
609.236,1908.35
609.731,1914.25
610.226,1907.85
610.721,1913.65
611.216,1906.15
611.711,1909.15
612.206,1907.4
612.7,1912.2
613.195,1907.3
613.69,1907.15
614.184,1906.3
614.679,1909.6
615.173,1910.45
615.667,1904.9
616.161,1910.55
616.656,1904.0
617.15,1909.35
617.644,1905.3
618.137,1903.9
618.631,1906.6
619.125,1904.8
619.619,1909.7
620.112,1901.95
620.606,1905.7
621.099,1905.6
621.592,1906.85
622.086,1903.4
622.579,1907.15
623.072,1906.45
623.565,1908.95
624.058,1908.05
624.551,1904.7
625.043,1901.55
625.536,1903.15
626.029,1904.45
626.521,1905.4
627.014,1928.7
627.506,1919.75
627.998,1913.4
628.49,1926.6
628.983,1917.9
629.475,1909.25
629.966,1910.25
630.458,1907.0
630.95,1902.65
631.442,1897.1
631.933,1899.4
632.425,1898.5
632.916,1898.35
633.408,1904.0
633.899,1898.6
634.39,1896.8
634.881,1898.1
635.372,1901.9
635.863,1897.65
636.354,1895.2
636.845,1893.8
637.336,1894.45
637.826,1897.45
638.317,1894.45
638.807,1892.85
639.298,1894.7
639.788,1892.6
640.278,1894.2
640.768,1892.15
641.258,1894.3
641.748,1893.85
642.238,1893.55
642.728,1888.8
643.217,1889.15
643.707,1890.15
644.197,1889.65
644.686,1889.85
645.175,1891.35
645.664,1887.5
646.154,1893.05
646.643,1888.15
647.132,1892.4
647.621,1888.1
648.109,1888.8
648.598,1889.2
649.087,1886.05
649.575,1889.65
650.064,1886.45
650.552,1885.2
651.04,1883.75
651.528,1889.15
652.017,1887.2
652.505,1886.25
652.992,1886.85
653.48,1886.3
653.968,1886.0
654.456,1883.5
654.943,1884.65
655.431,1884.2
655.918,1881.5
656.405,1884.8
656.893,1879.35
657.38,1878.4
657.867,1882.8
658.354,1879.15
658.84,1878.95
659.327,1877.15
659.814,1878.4
660.3,1878.65
660.787,1875.25
661.03,1875.85

File: VLFR_02-HDPE_bio_Raman_c157b4cf.csv
nm,Intensity
526.547,832.4
527.095,831.85
527.642,832.25
528.189,832.1
528.736,831.0
529.283,831.25
529.829,832.6
530.376,832.25
530.922,831.45
531.468,832.55
532.014,839.95
532.56,833.1
533.106,831.8
533.651,832.55
534.196,892.05
534.742,891.7
535.287,888.1
535.832,878.9
536.376,873.7
536.921,872.25
537.465,871.0
538.01,870.0
538.554,868.7
539.098,867.75
539.642,865.5
540.186,864.9
540.729,867.95
541.273,866.4
541.816,866.75
542.36,867.45
542.903,869.3
543.446,866.45
543.988,869.95
544.531,868.8
545.074,869.35
545.616,869.55
546.158,869.85
546.701,870.2
547.243,869.3
547.785,868.0
548.326,870.55
548.868,871.7
549.41,869.95
549.951,869.6
550.492,870.5
551.034,870.45
551.575,871.95
552.116,870.3
552.656,872.45
553.197,870.1
553.738,872.0
554.278,874.75
554.819,872.7
555.359,874.35
555.899,873.3
556.439,876.75
556.979,874.85
557.519,878.2
558.058,880.4
558.598,879.9
559.137,879.75
559.677,881.25
560.216,882.8
560.755,883.65
561.294,885.15
561.833,887.8
562.371,891.4
562.91,892.1
563.449,896.75
563.987,954.35
564.525,906.9
565.064,908.45
565.602,905.7
566.14,963.95
566.678,911.5
567.216,910.1
567.753,914.4
568.291,914.8
568.828,919.1
569.366,923.15
569.903,927.8
570.44,935.4
570.977,940.65
571.514,1047.7
572.051,958.9
572.588,957.95
573.125,966.5
573.661,972.15
574.198,994.8
574.734,999.7
575.271,1015.25
575.807,1055.8
576.343,1137.6
576.879,1114.6
577.415,1123.45
577.951,1128.2
578.486,1149.75
579.022,1182.6
579.557,1207.45
580.093,1237.1
580.628,1256.0
581.164,1284.95
581.699,1309.85
582.234,1341.7
582.769,1375.7
583.304,1400.0
583.838,1432.8
584.373,1462.1
584.908,1492.15
585.442,1532.7
585.977,1577.65
586.511,1632.5
587.045,1677.7
587.58,1724.6
588.114,1773.75
588.648,1818.5
589.182,1886.2
589.715,1922.55
590.249,1981.4
590.783,2039.0
591.316,2084.0
591.85,2139.0
592.383,2165.0
592.917,2185.3
593.45,2216.85
593.983,2238.2
594.516,2274.4
595.049,2299.95
595.582,2320.55
596.115,2344.3
596.648,2376.0
597.18,2384.4
597.713,2409.5
598.245,2433.45
598.778,2458.25
599.31,2455.45
599.842,2470.1
600.375,2457.35
600.907,2447.55
601.439,2430.7
601.971,2404.3
602.503,2390.6
603.034,2361.65
603.566,2328.5
604.098,2270.25
604.629,2227.3
605.161,2162.2
605.692,2094.4
606.224,2047.5
606.755,2002.85
607.286,1964.45
607.817,1925.6
608.348,1887.5
608.879,1861.4
609.41,1820.7
609.941,1793.65
610.472,1767.85
611.002,1740.55
611.533,1720.05
612.063,1702.4
612.594,1692.65
613.124,1680.35
613.655,1662.25
614.185,1643.4
614.715,1624.7
615.245,1595.75
615.775,1572.5
616.305,1558.15
616.835,1556.7
617.365,1548.5
617.895,1535.0
618.425,1523.5
618.954,1514.5
619.484,1501.85
620.013,1482.45
620.543,1475.85
621.072,1465.3
621.602,1470.5
622.131,1473.95
622.66,1462.45
623.189,1439.9
623.718,1424.55
624.247,1415.15
624.776,1410.0
625.305,1413.25
625.834,1401.9
626.363,1432.4
626.891,1661.35
627.42,1924.6
627.949,1699.4
628.477,1937.8
629.006,1693.0
629.534,1631.1
630.062,1557.65
630.591,1543.95
631.119,1461.0
631.647,1427.8
632.175,1423.7
632.703,1417.0
633.231,1426.55
633.759,1424.75
634.287,1435.25
634.815,1435.6
635.343,1443.15
635.871,1458.7
636.398,1461.35
636.926,1477.25
637.454,1488.25
637.981,1488.8
638.509,1491.8
639.036,1511.35
639.564,1515.05
640.091,1527.05
640.618,1536.4
641.146,1553.25
641.673,1560.9
642.2,1572.05
642.727,1584.5
643.254,1579.8
643.781,1595.7
644.308,1596.5
644.835,1602.45
645.362,1607.6
645.889,1615.6
646.416,1619.8
646.942,1619.8
647.469,1618.0
647.996,1619.8
648.522,1616.8
649.049,1606.5
649.576,1613.3
650.102,1607.35
650.629,1605.35
651.155,1601.45
651.682,1607.1
652.208,1612.15
652.734,1612.75
653.261,1605.0
653.787,1597.45
654.313,1602.25
654.839,1593.15
655.365,1587.35
655.892,1572.6
656.418,1564.1
656.944,1549.75
657.47,1541.75
657.996,1521.55
658.522,1514.3
659.048,1500.0
659.574,1478.45
660.099,1462.3
660.625,1434.75
661.151,1410.2
661.677,1400.15
662.203,1377.45
662.728,1359.85
663.123,1335.4

File: VLFR_02-HDPE_bio_Raman_c933d7a3.csv
nm,Intensity
528.626,1868.6
529.132,1870.3
529.637,1869.5
530.143,1869.7
530.648,1869.7
531.153,1873.3
531.658,1907.3
532.164,3677.8
532.669,1871.8
533.174,1871.0
533.679,1934.1
534.184,2137.4
534.689,2144.8
535.194,2155.7
535.699,2129.6
536.203,2123.5
536.708,2044.7
537.213,2090.9
537.717,2041.5
538.222,2083.1
538.726,2025.5
539.231,2011.1
539.735,2003.5
540.239,1995.7
540.744,2012.9
541.248,2013.9
541.752,2011.6
542.256,2014.8
542.76,2007.8
543.264,2012.5
543.768,2072.2
544.272,2193.5
544.776,2025.9
545.28,2028.5
545.784,2033.6
546.287,2233.0
546.791,2135.4
547.294,2042.7
547.798,2025.1
548.301,2038.5
548.805,2038.0
549.308,2075.1
549.811,2090.4
550.315,2168.3
550.818,2042.9
551.321,2030.7
551.824,2062.7
552.327,2029.1
552.83,2019.9
553.333,2041.6
553.835,2042.4
554.338,2044.3
554.841,2051.5
555.343,2040.8
555.846,2045.7
556.349,2054.0
556.851,2055.6
557.353,2072.4
557.856,2058.2
558.358,2087.2
558.86,2070.1
559.362,2076.5
559.864,2063.5
560.366,2063.8
560.868,2084.3
561.37,2110.6
561.872,2257.4
562.374,4197.3
562.876,2168.2
563.377,2123.3
563.879,2441.1
564.38,2212.1
564.882,2175.0
565.383,2146.6
565.885,2321.2
566.386,2487.6
566.887,2159.2
567.388,2185.0
567.889,2110.5
568.391,2098.4
568.892,2099.1
569.392,2104.3
569.893,2107.6
570.394,2122.5
570.895,2141.6
571.395,2640.1
571.896,2285.8
572.397,2147.5
572.897,2126.0
573.397,2112.9
573.898,2145.8
574.398,2106.8
574.898,2129.4
575.398,2310.2
575.898,2335.1
576.398,2647.9
576.898,2462.8
577.398,2305.6
577.898,2159.4
578.398,2137.3
578.897,2128.5
579.397,2132.4
579.896,2150.9
580.396,2140.4
580.895,2135.1
581.395,2149.3
581.894,2151.9
582.393,2147.7
582.892,2161.3
583.391,2156.8
583.89,2171.9
584.389,2170.5
584.888,2169.6
585.387,2201.2
585.886,2183.9
586.384,2206.9
586.883,2216.1
587.381,2237.5
587.88,2240.1
588.378,2248.5
588.876,2251.6
589.375,2257.9
589.873,2267.6
590.371,2288.7
590.869,2300.7
591.367,2324.8
591.865,2350.8
592.363,2338.6
592.86,2350.4
593.358,2378.9
593.856,2360.1
594.353,2373.8
594.851,2406.1
595.348,2404.9
595.845,2432.9
596.342,2459.0
596.84,2450.7
597.337,2463.4
597.834,2466.6
598.331,2493.2
598.828,2507.1
599.324,2517.3
599.821,2539.5
600.318,2551.3
600.814,2552.7
601.311,2558.6
601.807,2579.1
602.304,2596.3
602.8,2603.1
603.296,2619.4
603.792,2630.4
604.288,2623.1
604.784,2634.7
605.28,2641.6
605.776,2634.3
606.272,2643.7
606.767,2678.8
607.263,2628.1
607.759,2655.3
608.254,2675.4
608.749,2653.5
609.245,2661.6
609.74,2670.7
610.235,2689.5
610.73,2691.5
611.225,2702.5
611.72,2684.8
612.215,2715.3
612.71,2656.4
613.204,2699.5
613.699,2674.3
614.194,2661.6
614.688,2673.5
615.182,2668.9
615.677,2670.9
616.171,2652.0
616.665,2691.2
617.159,2690.3
617.653,2670.4
618.147,2687.2
618.641,2651.9
619.135,2678.1
619.628,2675.7
620.122,2612.2
620.615,2651.3
621.109,2696.4
621.602,2725.6
622.095,2811.6
622.589,2734.1
623.082,2618.9
623.575,2553.9
624.068,2548.2
624.561,2563.9
625.053,2536.0
625.546,2550.4
626.039,2619.4
626.531,3090.1
627.024,5337.8
627.516,5071.3
628.008,4313.5
628.501,6278.7
628.993,4332.7
629.485,3801.0
629.977,3431.2
630.469,3324.8
630.96,2890.8
631.452,2536.1
631.944,2453.8
632.435,2408.5
632.927,2375.9
633.418,2367.9
633.91,2357.0
634.401,2329.2
634.892,2327.1
635.383,2309.4
635.874,2311.0
636.365,2293.3
636.856,2286.3
637.346,2272.9
637.837,2269.4
638.327,2263.1
638.818,2251.7
639.308,2238.3
639.799,2239.7
640.289,2256.4
640.779,2239.8
641.269,2225.6
641.759,2233.3
642.249,2232.0
642.738,2252.8
643.228,2223.8
643.718,2214.5
644.207,2249.3
644.697,2215.3
645.186,2234.7
645.675,2232.5
646.164,2230.4
646.653,2235.0
647.142,2239.9
647.631,2221.6
648.12,2247.2
648.609,2247.0
649.098,2291.8
649.586,2381.5
650.075,2414.5
650.563,2331.1
651.051,2258.0
651.539,2229.7
652.027,2221.3
652.515,2217.1
653.003,2204.1
653.491,2190.5
653.979,2202.7
654.467,2173.3
654.954,2172.9
655.442,2163.9
655.929,2145.4
656.416,2154.5
656.904,2138.8
657.391,2148.4
657.878,2130.9
658.365,2135.8
658.851,2131.9
659.338,2118.5
659.825,2125.5
660.311,2115.4
660.798,2109.2
661.041,2122.3