Folder: MPX_specDB/spectra (part 117)

File: VLFR_07-PET_nobio_Raman_3635a252.csv
cm-1,Intensity
109.24,8701.75
126.699,8181.8
144.108,7900.65
161.468,7680.25
178.779,7670.45
196.04,7601.75
213.253,7619.0
230.417,7553.5
247.532,7567.5
264.599,7502.35
281.618,7509.4
298.59,7420.05
315.513,7356.4
332.389,7242.75
349.218,7242.35
365.999,7192.3
382.734,7163.5
399.422,7018.6
416.064,6984.4
432.659,6963.25
449.208,6829.0
465.711,6777.8
482.168,6781.65
498.579,6689.65
514.946,6566.8
531.267,6545.8
547.542,6526.15
563.773,6506.5
579.96,6359.95
596.102,6466.4
612.199,6349.05
628.252,6496.8
644.261,6357.95
660.227,6220.05
676.149,6164.95
692.027,6204.85
707.862,6201.45
723.654,6081.85
739.403,6055.3
755.109,6005.35
770.773,6029.5
786.394,6048.15
801.973,6035.2
817.509,6046.6
833.004,6016.8
848.457,6111.65
863.868,6019.75
879.238,5942.05
894.567,5842.8
909.854,5735.2
925.1,5720.95
940.306,5684.2
955.471,5607.1
970.595,5666.25
985.679,5577.45
1000.72,5536.2
1015.73,5557.0
1030.69,5506.15
1045.61,5463.95
1060.5,5458.2
1075.34,5441.55
1090.15,5501.0
1104.92,5503.6
1119.64,5475.35
1134.33,5342.75
1148.98,5332.35
1163.6,5306.55
1178.17,5298.5
1192.7,5221.15
1207.2,5213.6
1221.66,5177.25
1236.08,5228.9
1250.46,5208.05
1264.81,5282.0
1279.12,5384.45
1293.39,5288.9
1307.62,5176.4
1321.82,5090.9
1335.98,5090.2
1350.11,5007.95
1364.19,5046.1
1378.24,4990.6
1392.26,4987.7
1406.24,4975.0
1420.18,4957.35
1434.08,4933.0
1447.96,4933.8
1461.79,4894.85
1475.59,4862.95
1489.35,4878.05
1503.08,4810.45
1516.78,4841.75
1530.44,4777.85
1544.06,4744.1
1557.65,4730.4
1571.2,4703.65
1584.72,4718.55
1598.21,4897.05
1611.66,4999.85
1625.08,4780.6
1638.46,4609.5
1651.81,4590.7
1665.13,4576.15
1678.41,4587.8
1691.66,4546.25
1704.88,4637.55
1718.06,4787.2
1731.21,4709.25
1744.32,4553.65
1757.41,4490.15
1770.46,4435.8
1783.48,4425.1
1796.46,4383.1
1809.42,4366.8
1822.34,4370.7
1835.23,4326.2
1848.08,4341.25
1860.91,4326.05
1873.7,4307.3
1886.46,4289.25
1899.19,4271.6
1911.89,4253.25
1924.56,4244.7
1937.19,4223.4
1949.8,4212.6
1962.37,4177.95
1974.91,4167.8
1987.42,4149.9
1999.9,4135.4
2012.36,4111.4
2024.78,4109.75
2037.16,4099.8
2049.52,4081.75
2061.85,4070.75
2074.15,4041.9
2086.42,4057.55
2098.66,4033.65
2110.87,4040.8
2123.05,4013.4
2135.2,4008.9
2147.32,3995.0
2159.41,3995.25
2171.47,3990.0
2183.51,3973.05
2195.51,3969.05
2207.49,3963.8
2219.43,3959.15
2231.35,3949.2
2243.24,3937.4
2255.1,3931.4
2266.93,3925.2
2278.73,3919.15
2290.51,3912.85
2302.26,3912.5
2313.97,3903.1
2325.67,3899.8
2337.33,3884.45
2348.96,3892.0
2360.57,3879.55
2372.15,3878.15
2383.7,3877.95
2395.23,3868.05
2406.73,3871.7
2418.2,3866.25
2429.64,3860.65
2441.06,3859.15
2452.45,3852.55
2463.81,3846.75
2475.15,3844.1
2486.46,3837.9
2497.74,3838.15
2509.0,3829.55
2520.23,3828.4
2531.43,3831.65
2542.61,3827.05
2553.76,3824.85
2564.88,3819.2
2575.98,3821.9
2587.06,3815.05
2598.1,3814.1
2609.13,3814.9
2620.12,3807.5
2631.09,3807.8
2642.04,3800.65
2652.96,3798.1
2663.85,3799.9
2674.72,3797.85
2685.57,3796.9
2696.39,3790.65
2707.18,3787.9
2717.95,3788.55
2728.69,3786.05
2739.41,3785.15
2750.11,3782.1
2760.78,3780.35
2771.43,3778.4
2782.05,3776.85
2792.65,3775.9
2803.22,3770.65
2813.77,3771.8
2824.3,3769.55
2834.8,3766.55
2845.27,3767.75
2855.73,3764.1
2866.16,3764.2
2876.56,3764.45
2886.95,3761.05
2897.3,3763.45
2907.64,3761.15
2917.95,3760.6
2928.24,3759.1
2938.51,3758.6
2948.75,3763.4
2958.97,3760.7
2969.17,3760.65
2979.34,3759.0
2989.49,3755.05
2999.62,3752.6
3009.72,3752.25
3019.81,3751.6
3029.87,3747.7
3039.9,3749.15
3049.92,3748.05
3059.91,3746.9
3069.88,3750.75
3079.83,3748.5
3089.76,3748.4
3099.66,3746.6
3109.54,3743.4
3119.4,3742.5
3129.24,3744.2
3139.06,3741.8
3148.85,3741.95
3158.62,3740.75
3168.38,3740.35
3178.11,3740.25
3187.81,3740.45
3197.5,3738.35
3207.17,3739.25
3216.81,3739.2
3226.44,3738.75
3236.04,3738.95
3245.62,3736.8
3255.18,3738.15
3264.72,3737.95
3274.24,3738.05
3283.73,3737.15
3293.21,3737.8
3302.67,3737.4
3312.1,3736.5
3321.52,3736.65
3330.91,3736.75
3340.29,3736.5
3349.64,3738.7
3358.97,3736.25
3368.29,3736.45
3375.26,3734.7

File: VLFR_07-PET_nobio_Raman_4070d58e.csv
nm,Intensity
791.377,11885.3
792.477,10962.3
793.576,10090.0
794.676,9808.52
795.775,9523.96
796.874,9481.38
797.973,9544.98
799.072,9425.82
800.171,9397.84
801.27,9381.24
802.368,9300.36
803.467,9033.26
804.565,8897.48
805.664,8862.56
806.762,8850.78
807.86,8731.9
808.958,8644.8
810.056,8643.98
811.153,8519.98
812.251,8495.16
813.349,8397.5
814.446,8387.76
815.543,8212.14
816.64,8225.44
817.737,8129.28
818.834,8064.62
819.931,7998.02
821.028,8074.68
822.125,7945.0
823.221,7836.98
824.317,7762.82
825.414,7913.06
826.51,7813.44
827.606,7645.4
828.702,7551.5
829.797,7523.42
830.893,7591.9
831.988,7441.98
833.084,7317.42
834.179,7291.3
835.274,7166.56
836.369,7316.52
837.464,7258.36
838.559,7239.12
839.654,7258.98
840.748,7440.1
841.843,7454.7
842.937,7267.78
844.031,7042.8
845.125,6745.78
846.219,6774.08
847.313,6859.7
848.407,6737.32
849.5,6664.6
850.593,6640.06
851.687,6610.26
852.78,6613.6
853.873,6546.94
854.966,6594.14
856.059,6483.0
857.151,6398.54
858.244,6577.08
859.336,6602.14
860.428,6569.4
861.52,6402.64
862.612,6253.02
863.704,6322.18
864.796,6287.84
865.888,6127.2
866.979,6126.58
868.07,6085.7
869.162,6085.78
870.253,6094.72
871.344,6284.82
872.434,6456.6
873.525,6415.88
874.615,6197.26
875.706,5983.74
876.796,5920.2
877.886,5786.94
878.976,5711.92
880.066,5832.72
881.156,5734.54
882.245,5820.32
883.335,5675.62
884.424,5658.4
885.513,5689.4
886.602,5625.84
887.691,5538.3
888.78,5500.26
889.868,5454.06
890.957,5432.36
892.045,5412.16
893.133,5403.38
894.221,5359.28
895.309,5275.12
896.397,5319.7
897.484,5578.7
898.571,6139.28
899.659,5600.58
900.746,5185.18
901.833,5132.4
902.92,5071.62
904.006,5103.0
905.093,5064.86
906.179,5180.82
907.266,5582.84
908.352,5507.48
909.438,5199.14
910.523,4958.92
911.609,4870.02
912.695,4842.26
913.78,4810.66
914.865,4757.34
915.95,4756.1
917.035,4735.3
918.12,4707.34
919.204,4687.94
920.289,4675.24
921.373,4629.82
922.457,4623.36
923.541,4574.4
924.625,4570.4
925.709,4538.0
926.792,4536.02
927.876,4493.36
928.959,4480.46
930.042,4434.64
931.125,4412.74
932.208,4390.02
933.29,4404.2
934.373,4350.8
935.455,4352.0
936.537,4317.58
937.619,4323.08
938.701,4289.22
939.782,4282.48
940.864,4281.92
941.945,4238.46
943.026,4233.02
944.107,4235.84
945.188,4200.74
946.269,4189.24
947.349,4169.56
948.43,4167.24
949.51,4147.62
950.59,4123.66
951.67,4124.58
952.75,4111.42
953.829,4108.76
954.909,4094.82
955.988,4069.14
957.067,4070.66
958.146,4051.44
959.224,4049.12
960.303,4027.04
961.381,4025.52
962.459,4014.76
963.537,4004.76
964.615,4005.14
965.693,3993.94
966.771,3991.02
967.848,3978.48
968.925,3965.18
970.002,3959.92
971.079,3955.12
972.156,3947.54
973.232,3933.84
974.309,3936.26
975.385,3921.16
976.461,3916.32
977.537,3920.94
978.612,3901.66
979.688,3898.84
980.763,3891.08
981.838,3888.12
982.913,3885.46
983.988,3875.98
985.063,3874.56
986.137,3870.96
987.211,3862.48
988.285,3865.44
989.359,3855.82
990.433,3846.4
991.506,3842.48
992.58,3837.72
993.653,3838.98
994.726,3830.34
995.799,3832.8
996.872,3828.88
997.944,3821.38
999.016,3817.78
1000.09,3815.02
1001.16,3809.26
1002.23,3812.28
1003.3,3801.74
1004.38,3800.88
1005.45,3802.08
1006.52,3796.64
1007.59,3793.2
1008.66,3788.46
1009.73,3787.56
1010.8,3783.84
1011.87,3782.92
1012.94,3780.86
1014.01,3783.48
1015.08,3777.2
1016.15,3779.12
1017.22,3776.48
1018.29,3774.36
1019.36,3773.5
1020.42,3773.88
1021.49,3778.98
1022.56,3781.1
1023.63,3778.62
1024.7,3772.62
1025.76,3768.6
1026.83,3762.0
1027.9,3760.54
1028.97,3758.12
1030.03,3755.7
1031.1,3753.28
1032.17,3752.66
1033.23,3754.5
1034.3,3757.06
1035.36,3759.7
1036.43,3757.8
1037.5,3751.7
1038.56,3746.94
1039.63,3745.22
1040.69,3743.34
1041.76,3742.6
1042.82,3741.9
1043.89,3741.84
1044.95,3740.56
1046.01,3738.5
1047.08,3739.26
1048.14,3738.06
1049.2,3738.02
1050.27,3738.42
1051.33,3738.22
1052.39,3738.58
1053.46,3738.08
1054.52,3737.14
1055.58,3738.06
1056.64,3736.76
1057.7,3734.8
1058.77,3735.64
1059.83,3735.5
1060.89,3735.5
1061.95,3735.12
1063.01,3735.1
1064.07,3735.16
1065.13,3734.88
1066.19,3734.7
1067.25,3734.24
1068.05,3734.04

File: VLFR_07-PET_nobio_Raman_04420fce.csv
nm,Intensity
791.588,11910.9
792.685,10878.5
793.781,10183.8
794.878,9875.8
795.975,9742.8
797.071,9699.1
798.168,9579.8
799.264,9668.3
800.36,9513.4
801.456,9531.6
802.552,9550.7
803.648,9255.4
804.744,9206.0
805.84,9111.7
806.936,9067.4
808.031,9032.4
809.127,8898.9
810.222,8847.3
811.317,8815.7
812.412,8680.1
813.507,8686.9
814.602,8605.8
815.697,8504.5
816.792,8423.7
817.887,8435.7
818.981,8335.7
820.076,8232.7
821.17,8110.7
822.265,8096.9
823.359,8072.0
824.453,7924.3
825.547,8175.9
826.641,7864.9
827.735,7775.9
828.828,7750.7
829.922,7715.3
831.016,7754.7
832.109,7561.2
833.202,7525.3
834.295,7486.1
835.388,7403.9
836.481,7488.8
837.574,7517.3
838.667,7487.9
839.76,7431.9
840.852,7708.9
841.945,7706.1
843.037,7363.5
844.129,7314.8
845.221,7032.1
846.314,6947.0
847.405,6890.1
848.497,6855.4
849.589,6777.5
850.681,6836.0
851.772,6816.2
852.863,6816.2
853.955,6777.2
855.046,6655.7
856.137,6642.6
857.228,6624.2
858.318,6723.7
859.409,6818.1
860.5,6715.8
861.59,6538.0
862.681,6492.9
863.771,6426.6
864.861,6518.6
865.951,6359.8
867.041,6298.3
868.131,6245.0
869.22,6299.8
870.31,6348.0
871.399,6449.8
872.488,6743.6
873.578,6615.9
874.667,6403.1
875.756,6180.2
876.845,6138.7
877.933,6054.0
879.022,6065.1
880.11,5991.0
881.199,5995.2
882.287,6006.1
883.375,5947.1
884.463,5904.9
885.551,5969.2
886.639,5816.9
887.726,5778.3
888.814,5762.6
889.901,5688.4
890.988,5742.4
892.075,5748.2
893.162,5601.1
894.249,5594.3
895.336,5543.4
896.423,5543.4
897.509,5969.3
898.595,6407.8
899.682,5910.6
900.768,5433.6
901.854,5352.8
902.94,5331.7
904.025,5315.3
905.111,5337.3
906.196,5488.8
907.282,5810.3
908.367,5867.9
909.452,5470.9
910.537,5185.1
911.622,5076.3
912.706,5028.1
913.791,5005.0
914.875,4967.1
915.959,4941.7
917.044,4899.9
918.128,4913.7
919.211,4890.6
920.295,4814.7
921.379,4804.9
922.462,4785.0
923.546,4740.6
924.629,4714.9
925.712,4676.9
926.795,4683.4
927.877,4670.4
928.96,4603.4
930.043,4586.0
931.125,4575.4
932.207,4557.8
933.289,4509.1
934.371,4491.9
935.453,4459.8
936.535,4453.2
937.616,4420.3
938.697,4402.7
939.779,4393.1
940.86,4386.2
941.941,4367.5
943.022,4328.2
944.102,4313.8
945.183,4288.5
946.263,4276.9
947.343,4264.1
948.423,4241.9
949.503,4252.9
950.583,4221.9
951.663,4209.0
952.742,4186.9
953.822,4172.3
954.901,4151.0
955.98,4149.3
957.059,4133.8
958.137,4136.2
959.216,4117.6
960.294,4099.1
961.373,4092.7
962.451,4091.2
963.529,4077.5
964.607,4069.9
965.684,4055.5
966.762,4037.1
967.839,4036.4
968.917,4015.3
969.994,4018.8
971.071,4017.8
972.147,3992.7
973.224,3992.6
974.3,3986.1
975.377,3973.9
976.453,3967.3
977.529,3962.2
978.605,3953.5
979.68,3941.7
980.756,3939.7
981.831,3934.8
982.907,3927.0
983.982,3923.5
985.057,3923.8
986.131,3916.4
987.206,3914.3
988.28,3899.3
989.355,3899.2
990.429,3890.6
991.503,3887.9
992.576,3884.5
993.65,3873.0
994.723,3866.6
995.797,3864.9
996.87,3866.7
997.943,3861.0
999.016,3857.8
1000.09,3857.6
1001.16,3850.0
1002.23,3846.2
1003.31,3840.8
1004.38,3839.4
1005.45,3834.7
1006.52,3831.8
1007.59,3831.2
1008.66,3825.3
1009.73,3821.6
1010.81,3818.5
1011.88,3820.9
1012.95,3821.0
1014.02,3814.8
1015.09,3813.7
1016.16,3817.3
1017.23,3811.1
1018.3,3808.7
1019.37,3808.8
1020.44,3807.5
1021.51,3817.8
1022.58,3814.1
1023.64,3811.9
1024.71,3807.8
1025.78,3804.5
1026.85,3799.5
1027.92,3794.5
1028.99,3791.2
1030.05,3787.4
1031.12,3787.9
1032.19,3783.4
1033.26,3788.3
1034.32,3790.4
1035.39,3791.0
1036.46,3788.5
1037.52,3785.8
1038.59,3779.1
1039.66,3776.2
1040.72,3775.5
1041.79,3772.9
1042.86,3772.8
1043.92,3773.4
1044.99,3770.5
1046.05,3770.6
1047.12,3770.5
1048.18,3769.7
1049.25,3770.7
1050.31,3769.7
1051.37,3771.0
1052.44,3768.6
1053.5,3769.1
1054.57,3767.6
1055.63,3767.2
1056.69,3766.2
1057.76,3765.6
1058.82,3768.8
1059.88,3767.3
1060.95,3766.4
1062.01,3766.1
1063.07,3766.4
1064.13,3767.1
1065.19,3765.9
1066.26,3765.5
1067.32,3765.2
1068.11,3764.3

File: VLFR_07-PET_nobio_Raman_5622b84f.csv
cm-1,Intensity
109.24,9276.45
126.699,8691.7
144.108,8385.6
161.468,8322.25
178.779,8148.75
196.04,8140.2
213.253,8193.45
230.417,8153.15
247.532,8059.7
264.599,8166.8
281.618,8040.45
298.59,7989.35
315.513,7961.55
332.389,7914.8
349.218,7859.25
365.999,7783.45
382.734,7632.55
399.422,7599.85
416.064,7581.4
432.659,7539.2
449.208,7360.75
465.711,7229.85
482.168,7170.5
498.579,7095.5
514.946,7092.85
531.267,7027.3
547.542,6892.45
563.773,6856.35
579.96,6762.7
596.102,6779.15
612.199,6666.25
628.252,6851.15
644.261,6653.75
660.227,6533.6
676.149,6495.85
692.027,6488.8
707.862,6535.4
723.654,6394.65
739.403,6333.05
755.109,6291.75
770.773,6237.35
786.394,6308.1
801.973,6286.05
817.509,6295.55
833.004,6215.75
848.457,6410.0
863.868,6300.25
879.238,6166.95
894.567,6030.15
909.854,5946.55
925.1,5908.9
940.306,5841.3
955.471,5796.55
970.595,5782.1
985.679,5759.75
1000.72,5787.85
1015.73,5739.7
1030.69,5718.45
1045.61,5627.7
1060.5,5597.55
1075.34,5636.65
1090.15,5663.35
1104.92,5658.9
1119.64,5598.15
1134.33,5523.5
1148.98,5445.1
1163.6,5489.6
1178.17,5489.6
1192.7,5372.45
1207.2,5351.25
1221.66,5347.0
1236.08,5331.4
1250.46,5389.15
1264.81,5479.15
1279.12,5518.5
1293.39,5464.0
1307.62,5348.55
1321.82,5268.1
1335.98,5229.75
1350.11,5185.3
1364.19,5178.85
1378.24,5103.0
1392.26,5154.55
1406.24,5114.75
1420.18,5087.3
1434.08,5094.3
1447.96,5117.5
1461.79,5032.75
1475.59,4967.25
1489.35,5010.6
1503.08,4963.4
1516.78,4958.2
1530.44,4924.75
1544.06,4910.8
1557.65,4872.75
1571.2,4829.9
1584.72,4844.6
1598.21,5067.3
1611.66,5205.65
1625.08,4912.5
1638.46,4737.2
1651.81,4704.7
1665.13,4685.7
1678.41,4694.6
1691.66,4706.0
1704.88,4787.35
1718.06,4928.3
1731.21,4903.5
1744.32,4698.6
1757.41,4564.6
1770.46,4545.65
1783.48,4499.95
1796.46,4501.05
1809.42,4449.1
1822.34,4461.3
1835.23,4432.55
1848.08,4418.1
1860.91,4417.35
1873.7,4376.65
1886.46,4370.75
1899.19,4329.5
1911.89,4322.7
1924.56,4300.65
1937.19,4286.25
1949.8,4274.05
1962.37,4244.2
1974.91,4237.4
1987.42,4203.65
1999.9,4177.05
2012.36,4168.55
2024.78,4162.0
2037.16,4134.05
2049.52,4130.5
2061.85,4114.2
2074.15,4114.4
2086.42,4090.1
2098.66,4080.0
2110.87,4071.45
2123.05,4066.5
2135.2,4048.85
2147.32,4037.9
2159.41,4026.75
2171.47,4009.9
2183.51,4001.9
2195.51,4000.95
2207.49,3990.3
2219.43,3992.75
2231.35,3976.5
2243.24,3972.3
2255.1,3961.25
2266.93,3953.7
2278.73,3940.35
2290.51,3945.35
2302.26,3934.1
2313.97,3926.95
2325.67,3924.6
2337.33,3919.1
2348.96,3913.2
2360.57,3903.15
2372.15,3898.4
2383.7,3897.85
2395.23,3891.0
2406.73,3889.25
2418.2,3888.05
2429.64,3879.3
2441.06,3876.45
2452.45,3865.65
2463.81,3865.45
2475.15,3858.5
2486.46,3853.75
2497.74,3852.0
2509.0,3849.45
2520.23,3841.4
2531.43,3843.7
2542.61,3841.4
2553.76,3837.45
2564.88,3832.45
2575.98,3833.25
2587.06,3830.05
2598.1,3824.05
2609.13,3820.95
2620.12,3818.3
2631.09,3816.8
2642.04,3813.55
2652.96,3811.7
2663.85,3804.4
2674.72,3803.2
2685.57,3804.6
2696.39,3800.75
2707.18,3796.35
2717.95,3796.1
2728.69,3790.5
2739.41,3794.15
2750.11,3785.8
2760.78,3785.1
2771.43,3788.45
2782.05,3783.35
2792.65,3780.2
2803.22,3780.5
2813.77,3780.05
2824.3,3775.05
2834.8,3775.1
2845.27,3772.05
2855.73,3771.15
2866.16,3769.4
2876.56,3769.35
2886.95,3767.5
2897.3,3767.25
2907.64,3766.05
2917.95,3763.45
2928.24,3763.85
2938.51,3764.65
2948.75,3765.5
2958.97,3765.5
2969.17,3765.05
2979.34,3760.8
2989.49,3759.35
2999.62,3756.2
3009.72,3754.45
3019.81,3752.0
3029.87,3751.3
3039.9,3750.8
3049.92,3751.85
3059.91,3751.4
3069.88,3752.9
3079.83,3752.75
3089.76,3751.9
3099.66,3748.05
3109.54,3745.0
3119.4,3744.35
3129.24,3745.05
3139.06,3742.9
3148.85,3743.55
3158.62,3743.75
3168.38,3742.7
3178.11,3741.6
3187.81,3741.8
3197.5,3741.15
3207.17,3740.2
3216.81,3738.9
3226.44,3739.9
3236.04,3739.6
3245.62,3739.4
3255.18,3738.25
3264.72,3739.9
3274.24,3738.65
3283.73,3740.0
3293.21,3738.35
3302.67,3739.15
3312.1,3739.65
3321.52,3738.85
3330.91,3739.25
3340.29,3738.4
3349.64,3737.1
3358.97,3737.25
3368.29,3737.55
3375.26,3736.35

File: VLFR_07-PET_nobio_Raman_6145b6c6.csv
nm,Intensity
782.722,3749.94
783.822,3757.26
784.922,5930.54
786.022,4042.92
787.122,3769.12
788.222,7298.22
789.321,14653.8
790.421,13274.7
791.52,11599.5
792.619,10471.6
793.718,9791.74
794.817,9477.68
795.916,9243.06
797.015,9181.98
798.114,9095.26
799.212,9119.22
800.311,9046.94
801.409,8943.66
802.507,8968.48
803.605,8682.52
804.703,8607.78
805.801,8437.68
806.899,8465.64
807.997,8300.58
809.094,8230.3
810.191,8189.48
811.289,8128.56
812.386,8019.86
813.483,7895.5
814.58,7934.62
815.677,7838.1
816.774,7689.96
817.87,7552.46
818.967,7639.78
820.063,7545.14
821.159,7577.3
822.255,7440.22
823.351,7338.3
824.447,7327.02
825.543,7445.68
826.639,7345.82
827.734,7139.56
828.83,7121.68
829.925,7096.56
831.02,7198.66
832.115,6977.68
833.21,6975.04
834.305,6823.82
835.4,6810.04
836.494,6857.6
837.589,6977.14
838.683,6834.34
839.777,6917.28
840.871,7046.46
841.965,7161.98
843.059,6867.48
844.152,6692.04
845.246,6489.64
846.339,6451.64
847.433,6352.86
848.526,6347.4
849.619,6288.12
850.712,6328.98
851.804,6379.9
852.897,6267.18
853.989,6252.06
855.082,6205.48
856.174,6188.34
857.266,6117.88
858.358,6246.86
859.45,6317.88
860.542,6286.1
861.633,6173.92
862.725,6008.18
863.816,6018.42
864.907,6064.22
865.998,5905.84
867.089,5833.2
868.18,5852.98
869.27,5876.96
870.361,5844.34
871.451,6010.9
872.541,6301.22
873.631,6247.34
874.721,6045.72
875.811,5801.26
876.901,5747.7
877.99,5644.54
879.08,5663.0
880.169,5586.98
881.258,5588.82
882.347,5625.16
883.436,5518.14
884.524,5566.58
885.613,5546.1
886.701,5512.32
887.79,5440.64
888.878,5359.14
889.966,5352.54
891.053,5334.14
892.141,5351.86
893.229,5279.98
894.316,5220.3
895.403,5241.02
896.49,5172.86
897.577,5423.86
898.664,6064.48
899.751,5545.4
900.837,5122.76
901.923,5006.0
903.01,5004.84
904.096,4980.82
905.181,5003.54
906.267,5093.04
907.353,5420.52
908.438,5534.64
909.523,5177.08
910.609,4898.12
911.694,4842.38
912.778,4755.46
913.863,4739.36
914.948,4720.78
916.032,4671.14
917.116,4663.28
918.2,4651.18
919.284,4632.36
920.368,4597.32
921.452,4578.7
922.535,4538.26
923.618,4565.96
924.701,4503.36
925.784,4484.34
926.867,4486.08
927.95,4427.82
929.032,4414.42
930.115,4389.04
931.197,4349.88
932.279,4362.44
933.361,4310.58
934.442,4312.62
935.524,4285.36
936.605,4269.32
937.687,4257.68
938.768,4240.28
939.849,4244.06
940.929,4223.3
942.01,4214.7
943.09,4183.94
944.171,4169.58
945.251,4177.7
946.331,4145.5
947.41,4134.62
948.49,4131.82
949.569,4118.98
950.649,4103.1
951.728,4103.42
952.807,4073.94
953.885,4082.48
954.964,4059.46
956.042,4061.58
957.121,4041.48
958.199,4042.98
959.277,4033.34
960.354,4027.6
961.432,4013.08
962.509,4011.3
963.587,3994.28
964.664,3985.74
965.741,3985.98
966.817,3972.9
967.894,3977.96
968.97,3973.76
970.047,3957.64
971.123,3959.62
972.198,3950.98
973.274,3946.94
974.35,3935.78
975.425,3927.04
976.5,3924.16
977.575,3922.62
978.65,3915.3
979.725,3909.32
980.799,3903.24
981.873,3897.82
982.947,3900.54
984.021,3894.36
985.095,3885.76
986.169,3884.22
987.242,3877.26
988.315,3874.28
989.388,3873.32
990.461,3864.94
991.534,3861.66
992.607,3855.94
993.679,3853.5
994.751,3851.5
995.823,3849.5
996.895,3842.92
997.966,3839.16
999.038,3833.94
1000.11,3832.84
1001.18,3828.26
1002.25,3825.58
1003.32,3825.94
1004.39,3820.4
1005.46,3818.68
1006.53,3814.16
1007.6,3811.74
1008.67,3811.96
1009.74,3805.16
1010.81,3805.26
1011.88,3801.82
1012.95,3799.96
1014.02,3801.78
1015.09,3799.46
1016.16,3796.64
1017.22,3794.62
1018.29,3792.9
1019.36,3791.38
1020.43,3791.86
1021.49,3797.64
1022.56,3799.94
1023.63,3799.96
1024.7,3794.64
1025.76,3789.04
1026.83,3785.12
1027.9,3780.9
1028.96,3777.52
1030.03,3775.58
1031.09,3772.06
1032.16,3771.9
1033.22,3773.76
1034.29,3776.36
1035.35,3779.34
1036.42,3777.16
1037.48,3771.96
1038.55,3767.84
1039.61,3764.22
1040.68,3763.1
1041.74,3761.72
1042.8,3761.26
1043.87,3760.84
1044.93,3760.4
1045.99,3759.62
1047.06,3759.12
1048.12,3758.76
1049.18,3757.4
1050.24,3756.58
1051.31,3757.74
1052.37,3757.58
1053.43,3756.42
1054.49,3755.26
1055.55,3755.52
1056.61,3755.38
1057.67,3754.2
1058.73,3754.16
1059.53,3754.24

File: VLFR_07-PET_nobio_Raman_6456be52.csv
nm,Intensity
791.75,12301.4
792.846,11518.5
793.942,10956.5
795.037,10678.0
796.133,10633.6
797.228,10583.3
798.324,10475.8
799.419,10413.5
800.514,10348.7
801.61,10358.1
802.705,10255.3
803.8,10089.3
804.894,10061.1
805.989,9769.9
807.084,9810.4
808.178,9651.85
809.273,9627.25
810.367,9550.2
811.461,9422.45
812.556,9335.8
813.65,9159.95
814.744,9120.3
815.837,9131.7
816.931,8912.85
818.025,8881.55
819.118,8697.2
820.212,8591.35
821.305,8615.5
822.398,8518.5
823.491,8401.35
824.585,8318.15
825.677,8548.55
826.77,8284.35
827.863,8086.75
828.956,8116.5
830.048,8129.55
831.14,8055.4
832.233,7930.15
833.325,7852.15
834.417,7762.35
835.509,7709.9
836.601,7810.0
837.692,7804.7
838.784,7652.1
839.876,7832.15
840.967,8043.45
842.058,7758.45
843.149,7576.65
844.24,7398.15
845.331,7243.4
846.422,7113.9
847.513,7211.25
848.604,7148.05
849.694,7026.0
850.784,7053.0
851.875,7061.65
852.965,6977.05
854.055,6939.35
855.145,6808.1
856.235,6741.45
857.324,6766.05
858.414,6888.0
859.503,6911.2
860.593,6852.6
861.682,6686.35
862.771,6631.55
863.86,6641.35
864.949,6578.2
866.038,6471.25
867.126,6368.5
868.215,6400.4
869.303,6436.65
870.391,6519.4
871.479,6564.15
872.567,6773.75
873.655,6636.15
874.743,6339.05
875.831,6225.0
876.918,6245.95
878.006,6129.35
879.093,6090.85
880.18,6085.6
881.267,6091.45
882.354,6068.75
883.441,6009.6
884.527,6049.2
885.614,5963.75
886.7,5936.35
887.786,5829.2
888.872,5845.85
889.958,5739.8
891.044,5851.1
892.13,5764.5
893.216,5656.8
894.301,5647.4
895.386,5623.45
896.472,5652.45
897.557,6314.6
898.642,6243.6
899.726,5649.15
900.811,5477.85
901.896,5427.25
902.98,5429.55
904.064,5342.95
905.148,5415.3
906.232,5699.4
907.316,5907.35
908.4,5702.35
909.484,5341.0
910.567,5162.8
911.65,5116.45
912.734,5077.3
913.817,5032.25
914.9,5004.8
915.982,4976.45
917.065,4942.3
918.147,4926.25
919.23,4873.8
920.312,4873.7
921.394,4814.25
922.476,4769.5
923.558,4753.7
924.639,4726.65
925.721,4710.55
926.802,4647.35
927.884,4624.3
928.965,4609.45
930.046,4590.2
931.126,4556.85
932.207,4522.25
933.288,4480.0
934.368,4510.35
935.448,4446.7
936.528,4431.25
937.608,4406.75
938.688,4385.65
939.767,4349.15
940.847,4361.4
941.926,4303.9
943.005,4304.75
944.084,4297.5
945.163,4260.1
946.242,4251.1
947.321,4222.0
948.399,4211.1
949.477,4184.65
950.556,4169.0
951.634,4152.8
952.711,4142.4
953.789,4130.1
954.867,4117.65
955.944,4097.6
957.021,4087.55
958.098,4077.0
959.175,4059.85
960.252,4042.6
961.328,4027.55
962.405,4031.85
963.481,4018.55
964.557,4005.9
965.633,3988.65
966.709,3990.5
967.785,3973.4
968.86,3956.05
969.936,3943.75
971.011,3953.0
972.086,3946.0
973.161,3923.85
974.235,3928.8
975.31,3923.95
976.384,3915.05
977.459,3896.5
978.533,3896.5
979.607,3888.9
980.68,3882.45
981.754,3871.9
982.827,3877.3
983.901,3868.75
984.974,3850.6
986.047,3854.55
987.119,3851.3
988.192,3851.6
989.264,3835.75
990.337,3829.8
991.409,3827.95
992.481,3821.4
993.553,3814.05
994.624,3816.15
995.696,3810.5
996.767,3803.3
997.838,3801.2
998.909,3796.0
999.98,3793.9
1001.05,3788.3
1002.12,3784.65
1003.19,3783.1
1004.26,3773.8
1005.33,3774.15
1006.4,3772.9
1007.47,3765.1
1008.54,3767.85
1009.61,3764.85
1010.68,3760.55
1011.75,3757.8
1012.82,3754.45
1013.88,3755.1
1014.95,3754.4
1016.02,3750.3
1017.09,3746.95
1018.16,3747.3
1019.22,3746.45
1020.29,3749.2
1021.36,3754.3
1022.43,3753.65
1023.49,3749.6
1024.56,3742.7
1025.63,3738.9
1026.69,3730.8
1027.76,3729.6
1028.83,3725.35
1029.89,3724.85
1030.96,3721.6
1032.02,3723.3
1033.09,3725.15
1034.15,3728.7
1035.22,3729.15
1036.28,3722.05
1037.35,3719.15
1038.41,3714.15
1039.48,3713.05
1040.54,3712.2
1041.6,3710.75
1042.67,3710.6
1043.73,3711.0
1044.79,3706.45
1045.86,3706.1
1046.92,3708.15
1047.98,3704.75
1049.05,3706.55
1050.11,3705.8
1051.17,3705.45
1052.23,3704.55
1053.29,3703.45
1054.36,3702.4
1055.42,3705.55
1056.48,3703.55
1057.54,3704.0
1058.6,3702.35
1059.66,3701.35
1060.72,3701.75
1061.78,3702.8
1062.84,3701.3
1063.9,3701.9
1064.96,3701.9
1066.02,3700.0
1067.08,3700.6
1067.88,3699.2