Folder: MPX_specDB/spectra (part 20)

File: VLFR_01-LDPE_nobio_Raman_5f95f680.csv
nm,Intensity
526.486,830.7
527.033,830.4
527.579,830.8
528.126,830.8
528.672,829.0
529.219,829.7
529.765,831.8
530.311,830.2
530.857,829.4
531.403,831.1
531.948,831.8
532.494,830.7
533.039,828.9
533.585,830.6
534.13,904.9
534.675,893.8
535.22,877.1
535.764,868.2
536.309,860.5
536.854,857.7
537.398,857.8
537.942,855.7
538.486,855.5
539.03,855.1
539.574,850.7
540.118,847.8
540.662,850.2
541.205,847.3
541.749,845.9
542.292,848.9
542.835,846.1
543.378,847.2
543.921,846.3
544.464,847.4
545.006,847.3
545.549,843.1
546.091,845.0
546.634,841.8
547.176,843.0
547.718,846.5
548.26,843.0
548.802,844.0
549.343,844.1
549.885,844.3
550.426,840.6
550.968,845.0
551.509,842.4
552.05,840.9
552.591,843.4
553.132,846.3
553.673,847.6
554.214,845.2
554.754,845.6
555.295,843.8
555.835,849.0
556.375,849.4
556.915,848.2
557.455,854.1
557.995,854.8
558.535,855.3
559.075,852.9
559.614,850.6
560.154,850.5
560.693,850.4
561.232,849.7
561.772,852.5
562.311,851.9
562.85,856.8
563.388,860.7
563.927,904.3
564.466,880.4
565.004,872.7
565.543,867.4
566.081,914.4
566.619,871.5
567.157,865.6
567.695,867.6
568.233,862.1
568.771,860.4
569.309,864.6
569.846,866.2
570.384,872.1
570.921,879.3
571.458,947.6
571.995,914.4
572.532,889.6
573.069,886.6
573.606,884.5
574.143,897.2
574.68,890.8
575.216,901.3
575.753,940.6
576.289,1036.2
576.825,997.2
577.361,978.3
577.897,946.1
578.433,953.3
578.969,967.2
579.505,969.7
580.041,989.2
580.576,1001.7
581.112,1011.0
581.647,1026.6
582.183,1039.6
582.718,1049.6
583.253,1063.4
583.788,1065.8
584.323,1067.9
584.858,1081.7
585.392,1081.8
585.927,1087.4
586.462,1097.5
586.996,1100.4
587.53,1107.3
588.065,1118.8
588.599,1120.2
589.133,1123.8
589.667,1131.2
590.201,1134.0
590.735,1137.5
591.268,1145.4
591.802,1142.1
592.335,1151.2
592.869,1158.3
593.402,1145.0
593.936,1159.9
594.469,1143.7
595.002,1151.1
595.535,1145.3
596.068,1157.9
596.601,1157.4
597.133,1165.4
597.666,1161.1
598.199,1167.5
598.731,1184.9
599.264,1179.5
599.796,1178.2
600.328,1183.0
600.86,1178.8
601.393,1183.8
601.925,1170.4
602.457,1170.3
602.988,1157.8
603.52,1156.5
604.052,1143.1
604.583,1126.0
605.115,1113.7
605.646,1107.5
606.178,1085.1
606.709,1078.9
607.24,1073.4
607.771,1054.7
608.302,1054.6
608.833,1049.8
609.364,1038.7
609.895,1029.0
610.426,1025.1
610.957,1019.0
611.487,1013.2
612.018,1010.3
612.548,1005.5
613.078,1000.5
613.609,1003.5
614.139,997.2
614.669,997.7
615.199,989.3
615.729,987.1
616.259,984.8
616.789,989.7
617.319,987.5
617.849,984.5
618.378,979.2
618.908,980.7
619.437,981.1
619.967,980.7
620.496,978.4
621.025,985.4
621.555,995.3
622.084,1018.1
622.613,1017.5
623.142,991.7
623.671,981.9
624.2,979.2
624.729,984.1
625.258,985.5
625.786,989.7
626.315,1017.4
626.844,1233.5
627.372,1737.5
627.901,1449.0
628.429,1618.0
628.957,1501.1
629.486,1390.6
630.014,1282.5
630.542,1255.1
631.07,1133.4
631.598,1054.4
632.126,1032.1
632.654,1016.8
633.182,1008.8
633.71,1006.6
634.237,1008.1
634.765,1004.3
635.293,1001.0
635.82,1008.7
636.348,1004.3
636.875,1005.0
637.403,1005.9
637.93,1002.7
638.458,1001.3
638.985,998.0
639.512,1002.9
640.039,1000.0
640.566,1004.8
641.093,1007.5
641.62,1005.2
642.147,1007.2
642.674,1003.0
643.201,997.2
643.728,1002.6
644.255,1003.2
644.781,1004.3
645.308,1005.0
645.835,998.7
646.361,999.0
646.888,997.7
647.414,997.5
647.941,997.7
648.467,999.3
648.993,995.5
649.52,990.5
650.046,993.7
650.572,985.4
651.098,989.5
651.625,993.8
652.151,984.8
652.677,988.6
653.203,985.0
653.729,989.9
654.255,987.8
654.78,983.0
655.306,983.2
655.832,980.2
656.358,977.7
656.884,978.3
657.409,980.0
657.935,972.5
658.461,970.3
658.986,962.4
659.512,960.1
660.037,960.0
660.563,956.4
661.088,946.9
661.614,943.7
662.139,937.3
662.664,937.7
663.058,930.4

File: VLFR_01-LDPE_nobio_Raman_6be11c50.csv
nm,Intensity
526.508,830.9
527.055,829.4
527.602,830.0
528.149,830.05
528.695,829.75
529.241,830.25
529.787,830.15
530.334,830.55
530.879,830.1
531.425,830.35
531.971,833.8
532.516,831.05
533.062,830.15
533.607,829.8
534.152,899.25
534.697,889.9
535.242,881.7
535.786,868.5
536.331,865.15
536.876,859.7
537.42,860.95
537.964,858.0
538.508,857.75
539.052,855.55
539.596,852.95
540.14,852.75
540.683,850.95
541.227,852.6
541.77,850.3
542.313,850.9
542.856,850.7
543.399,851.7
543.942,852.25
544.485,849.5
545.027,850.1
545.57,851.6
546.112,852.15
546.654,851.05
547.196,850.6
547.738,849.35
548.28,849.6
548.822,850.3
549.363,850.35
549.905,850.2
550.446,850.3
550.988,851.3
551.529,849.3
552.07,851.9
552.611,851.8
553.152,851.5
553.692,854.8
554.233,852.1
554.773,855.25
555.314,854.2
555.854,858.55
556.394,859.0
556.934,862.9
557.474,862.8
558.014,866.75
558.553,867.15
559.093,865.7
559.632,864.9
560.172,864.25
560.711,866.7
561.25,869.45
561.789,870.5
562.328,873.55
562.867,878.05
563.406,884.6
563.944,929.55
564.483,904.1
565.021,899.5
565.559,896.0
566.098,949.65
566.636,903.85
567.174,905.45
567.711,909.25
568.249,908.4
568.787,916.2
569.324,921.9
569.862,928.25
570.399,941.3
570.936,953.15
571.474,1036.5
572.011,996.15
572.548,989.35
573.084,1001.1
573.621,1015.15
574.158,1038.35
574.694,1056.45
575.231,1081.45
575.767,1141.85
576.303,1262.25
576.84,1252.95
577.376,1270.7
577.912,1290.7
578.447,1341.05
578.983,1398.8
579.519,1458.55
580.054,1515.9
580.59,1583.05
581.125,1631.65
581.661,1693.65
582.196,1746.85
582.731,1798.9
583.266,1839.7
583.801,1872.35
584.336,1891.55
584.87,1919.4
585.405,1938.25
585.94,1992.05
586.474,2031.6
587.008,2068.25
587.543,2119.4
588.077,2163.15
588.611,2211.65
589.145,2252.35
589.679,2310.65
590.213,2369.75
590.747,2419.25
591.28,2490.5
591.814,2518.85
592.347,2552.0
592.881,2557.3
593.414,2591.9
593.947,2601.8
594.48,2634.7
595.014,2674.35
595.547,2710.0
596.079,2749.5
596.612,2787.25
597.145,2828.75
597.678,2873.4
598.21,2928.2
598.743,2985.75
599.275,3017.0
599.807,3036.95
600.34,3044.1
600.872,3037.2
601.404,3017.2
601.936,2970.9
602.468,2933.3
603.0,2899.65
603.532,2840.95
604.063,2760.95
604.595,2684.45
605.126,2584.6
605.658,2486.95
606.189,2411.5
606.721,2326.6
607.252,2265.0
607.783,2203.5
608.314,2161.15
608.845,2112.55
609.376,2068.15
609.907,2018.8
610.438,1979.4
610.968,1949.65
611.499,1915.85
612.03,1893.95
612.56,1893.45
613.091,1867.1
613.621,1841.4
614.151,1811.1
614.681,1793.65
615.212,1759.8
615.742,1725.15
616.272,1706.55
616.802,1690.8
617.332,1674.55
617.861,1658.8
618.391,1637.7
618.921,1620.25
619.45,1609.45
619.98,1594.5
620.509,1578.05
621.039,1572.9
621.568,1570.45
622.097,1587.75
622.627,1580.65
623.156,1556.65
623.685,1546.85
624.214,1548.4
624.743,1539.55
625.272,1531.15
625.801,1534.1
626.33,1556.75
626.858,1715.9
627.387,2042.9
627.916,1842.1
628.444,2017.0
628.973,1879.95
629.501,1808.4
630.029,1738.55
630.558,1730.55
631.086,1635.4
631.614,1583.4
632.142,1578.35
632.67,1571.6
633.198,1574.6
633.726,1570.15
634.254,1576.9
634.782,1585.05
635.31,1588.8
635.838,1592.55
636.365,1598.5
636.893,1595.75
637.421,1592.45
637.948,1592.05
638.476,1605.55
639.003,1609.9
639.531,1609.45
640.058,1624.7
640.585,1633.45
641.113,1640.75
641.64,1651.6
642.167,1663.55
642.694,1657.2
643.221,1670.6
643.748,1672.25
644.275,1674.4
644.802,1676.35
645.329,1682.95
645.856,1682.35
646.382,1689.7
646.909,1697.45
647.436,1697.45
647.962,1701.0
648.489,1702.65
649.016,1697.4
649.542,1697.8
650.069,1694.95
650.595,1699.05
651.121,1694.6
651.648,1704.85
652.174,1713.3
652.7,1713.9
653.227,1721.0
653.753,1725.9
654.279,1723.0
654.805,1706.6
655.331,1708.05
655.857,1687.2
656.383,1674.15
656.909,1677.5
657.435,1650.2
657.961,1638.4
658.487,1615.45
659.013,1584.75
659.538,1560.2
660.064,1535.75
660.59,1504.55
661.116,1478.1
661.641,1448.8
662.167,1419.0
662.692,1401.25
663.087,1376.85

File: VLFR_01-LDPE_nobio_Raman_7a3e1d6b.csv
nm,Intensity
526.5,829.2
527.047,829.6
527.594,829.5
528.14,828.8
528.687,830.5
529.233,828.6
529.779,828.6
530.325,828.5
530.871,828.8
531.417,828.8
531.962,839.4
532.508,833.5
533.053,829.0
533.599,829.9
534.144,966.8
534.689,980.9
535.234,976.1
535.778,976.4
536.323,985.4
536.867,987.4
537.412,984.0
537.956,995.5
538.5,995.2
539.044,992.2
539.588,994.2
540.132,1001.1
540.675,999.0
541.219,1001.3
541.762,1007.3
542.305,1002.0
542.848,1012.5
543.391,1006.7
543.934,1008.5
544.477,1011.2
545.02,1010.8
545.562,1015.1
546.105,1021.0
546.647,1012.7
547.189,1017.7
547.731,1020.9
548.273,1022.6
548.815,1020.3
549.356,1024.8
549.898,1027.9
550.439,1024.8
550.981,1024.3
551.522,1028.7
552.063,1032.9
552.604,1027.5
553.145,1027.3
553.686,1029.1
554.226,1032.9
554.767,1038.6
555.307,1029.4
555.848,1029.8
556.388,1031.1
556.928,1029.1
557.468,1036.6
558.008,1031.0
558.547,1030.5
559.087,1031.8
559.626,1032.2
560.166,1039.8
560.705,1042.4
561.244,1043.4
561.783,1041.4
562.322,1037.3
562.861,1047.4
563.4,1050.3
563.939,1065.6
564.477,1058.3
565.015,1064.5
565.554,1065.3
566.092,1075.9
566.63,1065.0
567.168,1062.1
567.706,1065.8
568.244,1061.4
568.781,1068.1
569.319,1068.9
569.857,1071.4
570.394,1076.3
570.931,1076.0
571.468,1099.6
572.005,1093.2
572.542,1090.7
573.079,1092.8
573.616,1099.6
574.153,1105.8
574.689,1116.7
575.226,1117.3
575.762,1132.2
576.298,1154.0
576.834,1144.7
577.371,1148.7
577.907,1151.0
578.442,1168.2
578.978,1167.6
579.514,1176.0
580.049,1177.1
580.585,1186.2
581.12,1194.2
581.656,1206.1
582.191,1217.5
582.726,1223.7
583.261,1244.2
583.796,1255.4
584.331,1246.6
584.865,1261.1
585.4,1274.8
585.935,1284.1
586.469,1289.8
587.004,1300.4
587.538,1298.5
588.072,1311.5
588.606,1324.2
589.14,1320.9
589.674,1331.6
590.208,1341.8
590.742,1348.6
591.275,1359.9
591.809,1363.8
592.342,1371.9
592.876,1376.7
593.409,1369.7
593.942,1383.3
594.476,1391.8
595.009,1409.1
595.542,1409.5
596.075,1428.0
596.607,1430.0
597.14,1442.0
597.673,1450.4
598.205,1474.4
598.738,1488.5
599.27,1505.5
599.803,1501.1
600.335,1504.5
600.867,1495.8
601.399,1490.6
601.931,1501.7
602.463,1488.8
602.995,1482.1
603.527,1471.3
604.058,1464.8
604.59,1439.7
605.122,1425.7
605.653,1402.2
606.184,1383.7
606.716,1368.0
607.247,1372.9
607.778,1358.4
608.309,1359.5
608.84,1343.1
609.371,1330.9
609.902,1318.4
610.433,1311.7
610.964,1302.4
611.494,1306.8
612.025,1304.3
612.556,1309.5
613.086,1299.5
613.616,1302.6
614.147,1293.1
614.677,1291.0
615.207,1279.8
615.737,1282.4
616.267,1274.2
616.797,1264.3
617.327,1273.1
617.857,1262.5
618.387,1268.5
618.917,1257.1
619.446,1254.9
619.976,1260.9
620.505,1249.4
621.035,1249.3
621.564,1250.9
622.093,1251.0
622.623,1262.3
623.152,1254.2
623.681,1248.3
624.21,1253.9
624.739,1251.5
625.268,1249.8
625.797,1242.2
626.326,1253.8
626.855,1300.1
627.383,1396.8
627.912,1338.6
628.441,1367.4
628.969,1358.0
629.498,1344.7
630.026,1319.3
630.554,1321.6
631.083,1281.8
631.611,1263.6
632.139,1262.5
632.667,1255.7
633.195,1268.3
633.724,1256.6
634.252,1258.2
634.779,1259.9
635.307,1258.2
635.835,1257.6
636.363,1255.8
636.891,1268.4
637.418,1260.5
637.946,1256.3
638.474,1261.3
639.001,1261.5
639.529,1261.6
640.056,1263.6
640.583,1267.6
641.111,1265.6
641.638,1273.0
642.165,1260.1
642.692,1260.6
643.22,1269.5
643.747,1270.8
644.274,1261.0
644.801,1258.5
645.328,1263.7
645.854,1260.5
646.381,1260.5
646.908,1265.1
647.435,1270.7
647.962,1265.6
648.488,1263.7
649.015,1254.6
649.542,1259.4
650.068,1255.4
650.595,1253.2
651.121,1256.4
651.648,1258.5
652.174,1260.9
652.7,1263.3
653.227,1254.5
653.753,1257.8
654.279,1263.0
654.805,1256.8
655.331,1253.6
655.858,1247.7
656.384,1247.5
656.91,1250.1
657.436,1243.7
657.962,1240.0
658.488,1236.6
659.013,1231.1
659.539,1224.5
660.065,1219.5
660.591,1213.7
661.117,1204.0
661.642,1196.4
662.168,1182.3
662.694,1186.0
663.088,1178.0

File: VLFR_01-LDPE_nobio_Raman_7b3b49e6.csv
nm,Intensity
526.532,830.667
527.079,830.067
527.625,830.233
528.172,830.0
528.718,830.7
529.265,830.533
529.811,828.9
530.357,829.833
530.903,829.6
531.449,830.267
531.994,833.4
532.54,830.6
533.085,830.3
533.63,831.067
534.176,924.533
534.721,911.4
535.266,897.767
535.81,884.2
536.355,878.133
536.9,874.8
537.444,873.567
537.988,871.867
538.533,869.467
539.077,865.633
539.621,863.333
540.165,860.833
540.708,860.467
541.252,860.333
541.795,860.833
542.339,858.033
542.882,858.333
543.425,858.267
543.968,859.567
544.511,857.833
545.054,858.633
545.597,857.0
546.139,856.7
546.682,855.967
547.224,857.0
547.766,856.3
548.308,855.7
548.85,854.867
549.392,856.033
549.934,855.033
550.475,854.333
551.017,854.633
551.558,855.733
552.1,855.0
552.641,854.533
553.182,855.967
553.723,858.7
554.264,859.4
554.804,859.767
555.345,860.4
555.885,861.7
556.426,862.9
556.966,866.2
557.506,866.733
558.046,871.733
558.586,871.9
559.126,868.233
559.665,867.1
560.205,865.933
560.745,866.467
561.284,867.767
561.823,866.9
562.362,870.867
562.901,874.2
563.44,879.533
563.979,953.8
564.518,901.733
565.056,892.7
565.595,888.933
566.133,978.8
566.671,891.367
567.21,884.967
567.748,883.167
568.285,877.833
568.823,881.167
569.361,882.433
569.899,884.867
570.436,891.0
570.974,899.667
571.511,1041.03
572.048,935.267
572.585,908.8
573.122,901.233
573.659,906.0
574.196,915.833
574.733,911.967
575.269,921.667
575.806,971.267
576.342,1081.93
576.878,1025.37
577.414,989.4
577.951,963.067
578.486,967.867
579.022,977.967
579.558,986.433
580.094,997.0
580.629,1009.13
581.165,1016.7
581.7,1029.87
582.236,1047.27
582.771,1055.67
583.306,1064.67
583.841,1073.6
584.376,1082.6
584.911,1089.5
585.445,1097.3
585.98,1109.83
586.514,1120.77
587.049,1126.83
587.583,1141.4
588.117,1150.63
588.651,1158.73
589.186,1165.43
589.72,1184.17
590.253,1187.33
590.787,1200.07
591.321,1213.23
591.854,1217.57
592.388,1220.83
592.921,1228.17
593.455,1229.57
593.988,1235.33
594.521,1245.93
595.054,1252.13
595.587,1265.13
596.12,1269.03
596.653,1278.63
597.186,1289.87
597.718,1303.8
598.251,1313.37
598.783,1328.77
599.316,1334.4
599.848,1342.1
600.38,1343.17
600.912,1340.97
601.444,1335.4
601.976,1335.07
602.508,1320.8
603.04,1311.17
603.572,1291.5
604.103,1277.8
604.635,1264.17
605.167,1237.77
605.698,1217.57
606.229,1203.07
606.761,1182.93
607.292,1170.83
607.823,1162.13
608.354,1150.33
608.885,1141.8
609.416,1124.77
609.947,1119.0
610.477,1114.17
611.008,1107.17
611.539,1100.53
612.069,1092.93
612.6,1086.07
613.13,1084.9
613.66,1076.53
614.19,1075.27
614.721,1072.83
615.251,1063.43
615.781,1058.23
616.311,1053.57
616.841,1050.5
617.37,1052.17
617.9,1050.53
618.43,1044.03
618.96,1040.73
619.489,1039.63
620.019,1039.6
620.548,1041.0
621.077,1043.0
621.607,1052.9
622.136,1073.1
622.665,1067.63
623.194,1040.03
623.723,1035.07
624.252,1033.4
624.781,1034.43
625.31,1037.73
625.839,1045.73
626.368,1074.33
626.896,1351.9
627.425,1777.87
627.953,1489.63
628.482,1818.5
629.01,1584.2
629.539,1466.7
630.067,1361.23
630.596,1326.13
631.124,1170.4
631.652,1097.67
632.18,1068.67
632.708,1053.33
633.236,1050.37
633.764,1047.83
634.292,1044.1
634.82,1045.07
635.348,1046.37
635.876,1048.87
636.403,1049.07
636.931,1050.73
637.459,1047.13
637.986,1049.6
638.514,1051.27
639.041,1052.93
639.568,1056.03
640.096,1057.77
640.623,1057.6
641.15,1057.8
641.678,1061.03
642.205,1065.77
642.732,1068.43
643.259,1066.97
643.786,1065.87
644.313,1070.97
644.84,1067.6
645.367,1073.63
645.894,1069.63
646.421,1069.43
646.948,1069.6
647.474,1071.53
648.001,1071.73
648.528,1068.33
649.054,1071.47
649.581,1070.3
650.108,1069.83
650.634,1069.67
651.161,1070.3
651.687,1071.67
652.214,1071.03
652.74,1073.67
653.266,1071.27
653.793,1074.2
654.319,1069.43
654.845,1067.77
655.371,1066.67
655.897,1064.93
656.424,1059.37
656.95,1057.63
657.476,1052.6
658.002,1047.73
658.528,1046.53
659.054,1039.67
659.58,1033.13
660.106,1026.77
660.631,1018.93
661.157,1010.83
661.683,1004.2
662.209,995.333
662.735,991.8
663.129,986.767

File: VLFR_01-LDPE_nobio_Raman_7d762772.csv
nm,Intensity
526.532,830.24
527.079,830.33
527.625,829.79
528.172,830.74
528.718,830.04
529.265,830.1
529.811,829.79
530.357,830.6
530.903,830.08
531.449,829.86
531.994,834.63
532.54,830.24
533.085,830.3
533.63,831.67
534.176,941.95
534.721,945.61
535.266,936.44
535.81,939.12
536.355,955.95
536.9,934.18
537.444,932.12
537.988,932.06
538.533,933.02
539.077,934.4
539.621,934.89
540.165,935.08
540.708,941.03
541.252,953.02
541.795,963.52
542.339,962.18
542.882,970.98
543.425,966.21
543.968,961.7
544.511,966.73
545.054,974.93
545.597,976.01
546.139,965.05
546.682,965.36
547.224,972.94
547.766,965.65
548.308,966.59
548.85,971.31
549.392,974.83
549.934,975.28
550.475,972.61
551.017,975.87
551.558,972.1
552.1,972.05
552.641,971.57
553.182,972.35
553.723,975.29
554.264,976.36
554.804,977.21
555.345,976.82
555.885,979.09
556.426,979.08
556.966,981.08
557.506,981.51
558.046,984.3
558.586,990.25
559.126,991.74
559.665,989.17
560.205,988.16
560.745,993.41
561.284,998.12
561.823,1003.9
562.362,998.99
562.901,1004.25
563.44,1012.78
563.979,1027.68
564.518,1039.25
565.056,1123.97
565.595,1065.14
566.133,1063.95
566.671,1031.3
567.21,1018.27
567.748,1009.16
568.285,1006.63
568.823,1009.32
569.361,1016.76
569.899,1023.59
570.436,1026.88
570.974,1024.13
571.511,1029.45
572.048,1028.25
572.585,1040.91
573.122,1056.9
573.659,1039.98
574.196,1050.05
574.733,1050.8
575.269,1041.73
575.806,1039.35
576.342,1028.75
576.878,1028.16
577.414,1032.08
577.951,1021.99
578.486,1018.62
579.022,1020.2
579.558,1020.15
580.094,1018.16
580.629,1019.44
581.165,1029.65
581.7,1071.57
582.236,1043.83
582.771,1034.25
583.306,1020.59
583.841,1017.75
584.376,1016.73
584.911,1018.21
585.445,1020.05
585.98,1019.85
586.514,1019.72
587.049,1020.3
587.583,1019.82
588.117,1019.26
588.651,1017.25
589.186,1015.61
589.72,1016.75
590.253,1019.06
590.787,1021.73
591.321,1022.5
591.854,1021.56
592.388,1023.4
592.921,1024.27
593.455,1024.19
593.988,1025.01
594.521,1023.24
595.054,1024.96
595.587,1025.3
596.12,1029.78
596.653,1029.23
597.186,1030.23
597.718,1031.44
598.251,1035.67
598.783,1039.38
599.316,1041.83
599.848,1040.01
600.38,1040.53
600.912,1041.65
601.444,1040.44
601.976,1037.86
602.508,1039.19
603.04,1042.3
603.572,1043.34
604.103,1044.55
604.635,1045.97
605.167,1043.29
605.698,1045.07
606.229,1046.99
606.761,1048.44
607.292,1050.47
607.823,1053.27
608.354,1055.04
608.885,1053.22
609.416,1052.79
609.947,1053.09
610.477,1051.39
611.008,1053.68
611.539,1055.99
612.069,1058.86
612.6,1068.17
613.13,1072.2
613.66,1074.54
614.19,1077.7
614.721,1078.8
615.251,1080.94
615.781,1077.46
616.311,1077.67
616.841,1077.05
617.37,1074.82
617.9,1078.51
618.43,1079.55
618.96,1081.28
619.489,1084.91
620.019,1086.76
620.548,1089.77
621.077,1093.1
621.607,1098.58
622.136,1102.69
622.665,1106.46
623.194,1104.99
623.723,1101.98
624.252,1104.24
624.781,1101.32
625.31,1099.27
625.839,1105.49
626.368,1111.97
626.896,1126.57
627.425,1149.79
627.953,1168.43
628.482,1204.44
629.01,1235.85
629.539,1235.77
630.067,1208.57
630.596,1192.32
631.124,1189.88
631.652,1177.17
632.18,1163.92
632.708,1126.2
633.236,1110.3
633.764,1099.09
634.292,1092.93
634.82,1094.18
635.348,1094.57
635.876,1097.7
636.403,1102.7
636.931,1103.75
637.459,1107.33
637.986,1107.45
638.514,1112.09
639.041,1109.12
639.568,1108.17
640.096,1106.64
640.623,1104.24
641.15,1102.85
641.678,1101.85
642.205,1101.34
642.732,1102.23
643.259,1105.33
643.786,1110.8
644.313,1122.84
644.84,1133.52
645.367,1141.21
645.894,1143.06
646.421,1140.14
646.948,1146.38
647.474,1154.01
648.001,1152.22
648.528,1152.37
649.054,1144.74
649.581,1135.19
650.108,1132.03
650.634,1129.29
651.161,1125.77
651.687,1126.49
652.214,1128.2
652.74,1127.41
653.266,1124.53
653.793,1126.84
654.319,1127.08
654.845,1125.35
655.371,1124.95
655.897,1124.54
656.424,1119.66
656.95,1123.76
657.476,1122.75
658.002,1118.66
658.528,1119.03
659.054,1114.19
659.58,1113.9
660.106,1113.66
660.631,1114.56
661.157,1112.16
661.683,1112.28
662.209,1111.25
662.735,1116.22
663.129,1115.95

File: VLFR_01-LDPE_nobio_Raman_7da00427.csv
nm,Intensity
526.486,829.5
527.033,829.9
527.579,830.1
528.126,829.7
528.672,829.1
529.219,828.6
529.765,829.2
530.311,827.4
530.857,830.0
531.403,828.7
531.948,832.4
532.494,830.0
533.039,829.8
533.585,830.1
534.13,894.3
534.675,886.4
535.22,875.6
535.764,862.5
536.309,854.6
536.854,853.6
537.398,851.6
537.942,851.6
538.486,848.9
539.03,846.1
539.574,841.2
540.118,844.2
540.662,842.6
541.205,841.2
541.749,842.4
542.292,842.7
542.835,840.9
543.378,843.6
543.921,842.4
544.464,841.8
545.006,842.1
545.549,841.9
546.091,840.7
546.634,840.0
547.176,841.6
547.718,841.2
548.26,841.3
548.802,840.9
549.343,842.2
549.885,841.1
550.426,841.1
550.968,841.0
551.509,843.5
552.05,841.5
552.591,844.3
553.132,844.7
553.673,847.3
554.214,844.9
554.754,843.9
555.295,846.2
555.835,846.1
556.375,846.5
556.915,848.7
557.455,853.7
557.995,852.8
558.535,855.9
559.075,852.0
559.614,852.9
560.154,851.1
560.693,849.7
561.232,850.8
561.772,854.3
562.311,851.7
562.85,855.2
563.388,859.4
563.927,932.3
564.466,880.4
565.004,873.2
565.543,871.3
566.081,996.7
566.619,877.1
567.157,864.6
567.695,867.7
568.233,859.1
568.771,855.6
569.309,856.7
569.846,859.7
570.384,864.9
570.921,871.3
571.458,1002.3
571.995,892.4
572.532,873.2
573.069,864.6
573.606,865.9
574.143,882.8
574.68,870.6
575.216,878.4
575.753,964.6
576.289,1004.6
576.825,957.7
577.361,935.9
577.897,895.3
578.433,891.1
578.969,895.4
579.505,898.2
580.041,903.8
580.576,908.0
581.112,911.3
581.647,916.8
582.183,922.6
582.718,927.7
583.253,932.4
583.788,934.4
584.323,938.2
584.858,946.7
585.392,952.8
585.927,960.8
586.462,958.6
586.996,962.2
587.53,970.8
588.065,971.9
588.599,973.9
589.133,976.5
589.667,980.9
590.201,983.7
590.735,985.5
591.268,986.7
591.802,991.7
592.335,990.6
592.869,990.3
593.402,990.6
593.936,988.2
594.469,989.2
595.002,984.4
595.535,986.0
596.068,984.0
596.601,977.4
597.133,979.1
597.666,980.2
598.199,975.9
598.731,982.4
599.264,984.7
599.796,980.0
600.328,977.6
600.86,973.3
601.393,977.5
601.925,981.1
602.457,979.4
602.988,973.2
603.52,973.7
604.052,976.0
604.583,971.4
605.115,963.9
605.646,968.7
606.178,967.2
606.709,960.1
607.24,961.9
607.771,963.5
608.302,961.7
608.833,959.9
609.364,955.7
609.895,949.1
610.426,952.9
610.957,952.6
611.487,948.8
612.018,950.0
612.548,944.8
613.078,946.7
613.609,944.2
614.139,944.9
614.669,934.6
615.199,937.8
615.729,937.9
616.259,934.9
616.789,938.8
617.319,943.4
617.849,937.6
618.378,937.2
618.908,933.1
619.437,932.9
619.967,939.8
620.496,933.7
621.025,940.0
621.555,948.5
622.084,971.5
622.613,968.4
623.142,939.4
623.671,929.4
624.2,926.8
624.729,930.6
625.258,933.7
625.786,942.6
626.315,969.0
626.844,1202.7
627.372,1739.3
627.901,1367.4
628.429,1535.9
628.957,1446.0
629.486,1324.4
630.014,1199.9
630.542,1175.1
631.07,1040.7
631.598,955.4
632.126,940.5
632.654,930.6
633.182,931.1
633.71,927.2
634.237,919.5
634.765,920.4
635.293,921.1
635.82,920.1
636.348,923.2
636.875,921.5
637.403,916.6
637.93,918.0
638.458,917.7
638.985,915.1
639.512,919.4
640.039,917.8
640.566,917.7
641.093,917.9
641.62,917.9
642.147,918.9
642.674,913.6
643.201,915.1
643.728,914.6
644.255,918.2
644.781,914.0
645.308,912.5
645.835,914.6
646.361,912.6
646.888,913.1
647.414,912.3
647.941,910.0
648.467,910.6
648.993,911.1
649.52,903.2
650.046,904.6
650.572,903.8
651.098,903.7
651.625,900.8
652.151,902.4
652.677,900.5
653.203,901.1
653.729,900.6
654.255,898.3
654.78,897.8
655.306,899.6
655.832,896.6
656.358,899.8
656.884,895.8
657.409,892.8
657.935,893.2
658.461,893.8
658.986,897.2
659.512,896.1
660.037,895.0
660.563,891.1
661.088,887.1
661.614,884.9
662.139,887.6
662.664,886.8
663.058,887.4