Folder: MPX_specDB/spectra (part 28)

File: VLFR_01-LDPE_nobio_Raman_b3009053.csv
nm,Intensity
526.5,828.0
527.047,829.5
527.594,829.3
528.14,828.0
528.687,827.9
529.233,827.3
529.779,827.9
530.325,828.6
530.871,827.7
531.417,827.5
531.962,830.8
532.508,828.5
533.053,829.4
533.599,828.1
534.144,902.3
534.689,891.8
535.234,874.5
535.778,864.6
536.323,859.1
536.867,855.3
537.412,855.8
537.956,854.8
538.5,851.4
539.044,853.4
539.588,851.4
540.132,848.2
540.675,845.6
541.219,845.3
541.762,844.2
542.305,846.0
542.848,846.0
543.391,845.8
543.934,843.4
544.477,843.9
545.02,843.2
545.562,841.6
546.105,842.8
546.647,843.8
547.189,843.7
547.731,841.6
548.273,840.3
548.815,843.2
549.356,842.1
549.898,841.7
550.439,839.5
550.981,840.9
551.522,842.4
552.063,842.9
552.604,843.4
553.145,844.6
553.686,844.8
554.226,846.9
554.767,847.8
555.307,846.7
555.848,845.7
556.388,848.5
556.928,850.4
557.468,853.1
558.008,855.6
558.547,857.0
559.087,854.5
559.626,852.4
560.166,851.8
560.705,850.5
561.244,853.5
561.783,853.5
562.322,854.7
562.861,859.6
563.4,860.2
563.939,907.6
564.477,882.6
565.015,876.9
565.554,871.4
566.092,921.3
566.63,873.5
567.168,870.7
567.706,876.9
568.244,869.3
568.781,870.3
569.319,872.7
569.857,879.3
570.394,881.2
570.931,889.4
571.468,957.9
572.005,921.4
572.542,903.4
573.079,898.5
573.616,898.3
574.153,911.8
574.689,905.2
575.226,911.3
575.762,948.6
576.298,1052.4
576.834,1008.1
577.371,983.8
577.907,954.3
578.442,958.0
578.978,967.5
579.514,975.9
580.049,978.6
580.585,992.2
581.12,994.6
581.656,1003.4
582.191,1012.0
582.726,1027.0
583.261,1031.7
583.796,1042.2
584.331,1051.3
584.865,1061.7
585.4,1070.4
585.935,1090.0
586.469,1093.9
587.004,1111.1
587.538,1127.9
588.072,1146.0
588.606,1161.7
589.14,1168.4
589.674,1183.9
590.208,1204.8
590.742,1223.0
591.275,1239.0
591.809,1246.5
592.342,1244.3
592.876,1265.7
593.409,1266.5
593.942,1274.2
594.476,1284.9
595.009,1292.6
595.542,1306.7
596.075,1314.8
596.607,1318.9
597.14,1332.7
597.673,1354.0
598.205,1359.1
598.738,1375.9
599.27,1370.8
599.803,1383.2
600.335,1385.1
600.867,1371.5
601.399,1373.6
601.931,1364.8
602.463,1369.5
602.995,1345.3
603.527,1323.7
604.058,1306.3
604.59,1293.5
605.122,1269.0
605.653,1241.6
606.184,1224.1
606.716,1208.8
607.247,1195.7
607.778,1178.8
608.309,1174.7
608.84,1156.2
609.371,1148.6
609.902,1139.6
610.433,1129.8
610.964,1123.4
611.494,1116.7
612.025,1102.9
612.556,1102.7
613.086,1101.8
613.616,1091.4
614.147,1088.1
614.677,1083.7
615.207,1076.8
615.737,1075.5
616.267,1065.4
616.797,1057.2
617.327,1065.4
617.857,1057.1
618.387,1058.1
618.917,1050.7
619.446,1057.5
619.976,1053.9
620.505,1045.8
621.035,1056.5
621.564,1061.7
622.093,1082.9
622.623,1077.2
623.152,1049.4
623.681,1035.3
624.21,1036.3
624.739,1032.0
625.268,1037.0
625.797,1046.4
626.326,1068.8
626.855,1287.7
627.383,1759.7
627.912,1461.0
628.441,1673.9
628.969,1511.4
629.498,1410.1
630.026,1298.7
630.554,1276.6
631.083,1150.4
631.611,1077.3
632.139,1052.0
632.667,1046.2
633.195,1029.8
633.724,1030.3
634.252,1028.0
634.779,1033.1
635.307,1029.0
635.835,1032.9
636.363,1033.1
636.891,1034.5
637.418,1037.9
637.946,1036.0
638.474,1040.4
639.001,1043.3
639.529,1046.5
640.056,1046.7
640.583,1049.7
641.111,1055.5
641.638,1056.4
642.165,1064.5
642.692,1061.5
643.22,1068.3
643.747,1066.6
644.274,1071.6
644.801,1073.7
645.328,1068.4
645.854,1077.5
646.381,1071.4
646.908,1071.3
647.435,1078.1
647.962,1078.7
648.488,1079.8
649.015,1076.9
649.542,1077.9
650.068,1073.9
650.595,1081.1
651.121,1075.3
651.648,1076.7
652.174,1076.8
652.7,1075.7
653.227,1078.1
653.753,1079.6
654.279,1077.9
654.805,1075.6
655.331,1073.6
655.858,1065.8
656.384,1061.9
656.91,1060.5
657.436,1058.9
657.962,1054.4
658.488,1044.9
659.013,1044.4
659.539,1034.1
660.065,1029.1
660.591,1018.8
661.117,1012.7
661.642,1008.2
662.168,1000.3
662.694,991.4
663.088,990.1

File: VLFR_01-LDPE_nobio_Raman_ba917de7.csv
cm-1,Intensity
-123.878,1852.3
-105.821,1852.05
-87.8007,1852.8
-69.8161,1853.4
-51.8675,1853.35
-33.9547,1854.4
-16.0776,1896.3
1.76388,4280.4
19.5698,1854.4
37.3403,1853.25
55.0755,1919.9
72.7754,2090.2
90.4402,2085.65
108.07,2064.0
125.665,2063.15
143.225,2044.1
160.75,2038.75
178.241,2041.5
195.697,2041.3
213.119,2045.75
230.506,2070.35
247.859,2071.9
265.178,2042.25
282.463,2035.4
299.713,2028.0
316.93,2030.65
334.113,2037.45
351.263,2037.9
368.379,2046.45
385.461,2034.9
402.51,2035.2
419.526,2021.4
436.508,2028.05
453.458,2018.0
470.374,2032.1
487.257,2021.6
504.107,2025.6
520.925,2019.35
537.71,2025.15
554.462,2033.35
571.182,2024.6
587.87,2026.1
604.525,2026.5
621.148,2027.55
637.739,2029.45
654.297,2032.0
670.824,2035.85
687.319,2036.0
703.782,2021.0
720.213,2025.65
736.613,2022.65
752.981,2027.85
769.317,2036.45
785.623,2025.8
801.897,2027.0
818.139,2028.9
834.351,2032.3
850.532,2041.5
866.681,2046.3
882.8,2042.65
898.888,2045.8
914.945,2039.5
930.972,2036.15
946.968,2043.35
962.934,2036.95
978.869,2041.55
994.774,2053.05
1010.65,2044.85
1026.49,2063.6
1042.31,2067.45
1058.09,2200.95
1073.85,2117.4
1089.57,2107.95
1105.27,2081.75
1120.93,2144.95
1136.57,2137.05
1152.18,2074.45
1167.75,2086.75
1183.3,2068.9
1198.82,2071.55
1214.31,2067.45
1229.77,2075.5
1245.2,2082.3
1260.6,2087.3
1275.97,2110.55
1291.32,2314.65
1306.63,2196.0
1321.92,2130.1
1337.18,2105.2
1352.41,2110.4
1367.61,2101.95
1382.78,2095.4
1397.93,2079.15
1413.05,2140.55
1428.14,2221.95
1443.2,2376.15
1458.23,2275.45
1473.23,2161.1
1488.21,2101.0
1503.16,2091.85
1518.08,2086.85
1532.97,2090.1
1547.84,2083.9
1562.68,2094.15
1577.49,2094.25
1592.27,2088.45
1607.03,2102.15
1621.76,2095.7
1636.46,2099.5
1651.14,2101.5
1665.78,2107.9
1680.41,2099.75
1695.0,2110.8
1709.57,2112.9
1724.11,2104.55
1738.62,2127.05
1753.11,2121.85
1767.57,2138.5
1782.01,2149.7
1796.41,2144.8
1810.8,2136.45
1825.15,2135.0
1839.48,2155.55
1853.79,2157.15
1868.06,2176.35
1882.31,2164.0
1896.54,2164.4
1910.74,2182.75
1924.91,2170.95
1939.06,2184.25
1953.19,2180.6
1967.28,2185.5
1981.35,2192.15
1995.4,2199.95
2009.42,2199.2
2023.42,2215.85
2037.39,2230.35
2051.33,2235.85
2065.25,2230.85
2079.15,2241.45
2093.01,2244.55
2106.86,2273.2
2120.68,2261.85
2134.47,2270.15
2148.24,2269.65
2161.99,2263.65
2175.71,2262.6
2189.41,2271.2
2203.08,2240.7
2216.73,2238.25
2230.35,2245.4
2243.95,2221.7
2257.52,2211.3
2271.07,2217.8
2284.6,2195.15
2298.1,2193.4
2311.58,2184.3
2325.03,2165.45
2338.46,2163.8
2351.87,2157.1
2365.25,2152.5
2378.61,2147.7
2391.94,2129.05
2405.26,2139.6
2418.54,2127.85
2431.81,2147.2
2445.05,2133.7
2458.27,2127.85
2471.46,2110.8
2484.63,2113.2
2497.78,2104.4
2510.9,2119.95
2524.0,2119.35
2537.08,2100.65
2550.14,2101.95
2563.17,2099.95
2576.18,2105.45
2589.17,2119.5
2602.13,2116.9
2615.07,2122.1
2627.99,2109.0
2640.89,2124.05
2653.76,2121.75
2666.61,2133.8
2679.44,2126.55
2692.25,2140.25
2705.03,2186.15
2717.79,2236.25
2730.53,2198.75
2743.25,2125.2
2755.94,2116.25
2768.61,2108.6
2781.27,2098.4
2793.89,2120.25
2806.5,2139.0
2819.09,2175.8
2831.65,2444.0
2844.19,3936.9
2856.71,3912.85
2869.21,3407.0
2881.69,4281.2
2894.14,3477.7
2906.58,3253.85
2918.99,3007.45
2931.38,2928.25
2943.75,2560.05
2956.1,2255.7
2968.42,2181.55
2980.73,2137.2
2993.01,2101.3
3005.28,2094.65
3017.52,2079.9
3029.74,2062.5
3041.94,2071.6
3054.12,2062.95
3066.28,2059.3
3078.42,2057.25
3090.54,2057.85
3102.63,2048.65
3114.71,2046.5
3126.77,2044.85
3138.8,2044.4
3150.82,2046.45
3162.81,2047.85
3174.78,2054.25
3186.74,2040.95
3198.67,2040.3
3210.58,2041.0
3222.47,2047.05
3234.35,2053.0
3246.2,2046.75
3258.03,2049.9
3269.84,2040.8
3281.64,2047.6
3293.41,2048.35
3305.16,2050.5
3316.89,2037.8
3328.61,2040.5
3340.3,2039.4
3351.97,2044.4
3363.63,2040.45
3375.26,2038.2
3386.88,2037.0
3398.47,2034.65
3410.05,2039.95
3421.6,2040.8
3433.14,2036.95
3444.66,2034.35
3456.15,2038.55
3467.63,2035.05
3479.09,2031.25
3490.53,2021.0
3501.96,2035.05
3513.36,2025.4
3524.74,2016.45
3536.11,2025.65
3547.45,2010.5
3558.78,2010.5
3570.09,2014.45
3581.37,2005.05
3592.64,2008.35
3603.9,2008.75
3615.13,1999.95
3626.34,1996.15
3637.54,1991.1
3648.72,1990.75
3659.87,1982.4
3665.45,1986.65

File: VLFR_01-LDPE_nobio_Raman_bd1f5117.csv
nm,Intensity
526.486,830.5
527.033,831.5
527.579,828.6
528.126,831.3
528.672,830.2
529.219,830.2
529.765,830.5
530.311,830.2
530.857,830.2
531.403,830.8
531.948,835.8
532.494,831.9
533.039,830.8
533.585,831.3
534.13,925.3
534.675,915.2
535.22,901.7
535.764,888.7
536.309,879.9
536.854,872.9
537.398,874.1
537.942,869.6
538.486,869.8
539.03,866.1
539.574,862.6
540.118,863.9
540.662,863.4
541.205,860.4
541.749,860.5
542.292,861.5
542.835,859.6
543.378,857.5
543.921,857.6
544.464,856.7
545.006,859.4
545.549,855.6
546.091,858.9
546.634,854.6
547.176,857.1
547.718,854.2
548.26,856.1
548.802,853.3
549.343,851.9
549.885,850.9
550.426,853.0
550.968,851.5
551.509,851.3
552.05,854.1
552.591,852.9
553.132,856.4
553.673,856.8
554.214,856.6
554.754,855.4
555.295,856.9
555.835,861.7
556.375,860.7
556.915,860.3
557.455,863.5
557.995,865.3
558.535,866.1
559.075,866.2
559.614,863.5
560.154,862.2
560.693,862.3
561.232,864.4
561.772,861.4
562.311,867.1
562.85,868.8
563.388,872.0
563.927,921.5
564.466,892.4
565.004,887.1
565.543,879.3
566.081,924.8
566.619,878.8
567.157,872.6
567.695,878.7
568.233,870.9
568.771,873.2
569.309,873.7
569.846,873.9
570.384,877.3
570.921,885.3
571.458,964.4
571.995,919.9
572.532,893.3
573.069,881.6
573.606,880.5
574.143,893.8
574.68,884.1
575.216,885.8
575.753,928.0
576.289,1038.4
576.825,988.5
577.361,947.0
577.897,904.2
578.433,899.2
578.969,897.1
579.505,899.9
580.041,904.9
580.576,901.3
581.112,905.7
581.647,909.0
582.183,913.8
582.718,916.8
583.253,921.0
583.788,933.1
584.323,937.5
584.858,939.8
585.392,950.1
585.927,960.5
586.462,971.7
586.996,982.4
587.53,996.4
588.065,1011.2
588.599,1021.6
589.133,1033.7
589.667,1047.2
590.201,1058.0
590.735,1080.5
591.268,1089.1
591.802,1102.3
592.335,1116.1
592.869,1126.4
593.402,1143.8
593.936,1160.1
594.469,1180.2
595.002,1204.6
595.535,1233.5
596.068,1262.0
596.601,1286.7
597.133,1310.5
597.666,1353.9
598.199,1375.6
598.731,1407.3
599.264,1429.4
599.796,1447.2
600.328,1470.6
600.86,1459.2
601.393,1466.0
601.925,1463.7
602.457,1460.7
602.988,1439.1
603.52,1425.5
604.052,1407.9
604.583,1376.7
605.115,1349.7
605.646,1324.2
606.178,1292.4
606.709,1275.9
607.24,1253.8
607.771,1245.0
608.302,1222.7
608.833,1217.6
609.364,1205.0
609.895,1192.3
610.426,1179.1
610.957,1174.7
611.487,1165.8
612.018,1170.8
612.548,1156.7
613.078,1163.2
613.609,1148.7
614.139,1140.6
614.669,1128.8
615.199,1126.2
615.729,1124.8
616.259,1114.7
616.789,1114.7
617.319,1111.5
617.849,1110.0
618.378,1100.4
618.908,1093.0
619.437,1089.2
619.967,1092.5
620.496,1088.3
621.025,1089.0
621.555,1092.2
622.084,1128.2
622.613,1115.3
623.142,1082.3
623.671,1070.6
624.2,1054.2
624.729,1058.0
625.258,1062.2
625.786,1066.0
626.315,1082.5
626.844,1362.9
627.372,1967.3
627.901,1592.1
628.429,1821.7
628.957,1652.9
629.486,1501.6
630.014,1370.6
630.542,1329.1
631.07,1168.6
631.598,1068.0
632.126,1038.1
632.654,1021.5
633.182,1009.1
633.71,1007.2
634.237,1003.0
634.765,998.9
635.293,1000.1
635.82,1005.5
636.348,1001.8
636.875,1002.1
637.403,1006.2
637.93,1002.5
638.458,1003.9
638.985,1009.0
639.512,1014.0
640.039,1016.3
640.566,1016.4
641.093,1025.5
641.62,1029.1
642.147,1025.2
642.674,1038.1
643.201,1039.5
643.728,1032.4
644.255,1042.1
644.781,1049.2
645.308,1048.5
645.835,1053.9
646.361,1067.6
646.888,1063.4
647.414,1070.8
647.941,1076.1
648.467,1079.3
648.993,1083.7
649.52,1087.8
650.046,1095.6
650.572,1095.7
651.098,1103.7
651.625,1108.9
652.151,1115.5
652.677,1116.4
653.203,1123.0
653.729,1131.2
654.255,1131.8
654.78,1128.8
655.306,1132.3
655.832,1132.7
656.358,1118.3
656.884,1124.4
657.409,1120.9
657.935,1107.6
658.461,1107.0
658.986,1104.3
659.512,1089.5
660.037,1085.5
660.563,1070.1
661.088,1062.2
661.614,1055.5
662.139,1045.7
662.664,1040.1
663.058,1029.1

File: VLFR_01-LDPE_nobio_Raman_bedcc511.csv
nm,Intensity
526.5,827.8
527.047,827.0
527.594,826.7
528.14,826.8
528.687,827.3
529.233,825.1
529.779,827.6
530.325,827.5
530.871,827.5
531.417,827.0
531.962,832.9
532.508,827.6
533.053,827.5
533.599,828.4
534.144,909.7
534.689,898.2
535.234,885.3
535.778,872.2
536.323,864.1
536.867,860.7
537.412,857.5
537.956,858.4
538.5,855.5
539.044,851.9
539.588,847.1
540.132,849.8
540.675,844.0
541.219,848.1
541.762,845.9
542.305,846.0
542.848,843.5
543.391,842.6
543.934,846.0
544.477,843.0
545.02,842.0
545.562,843.5
546.105,839.9
546.647,842.0
547.189,841.3
547.731,842.2
548.273,840.7
548.815,839.5
549.356,842.4
549.898,839.9
550.439,839.7
550.981,839.9
551.522,839.7
552.063,843.3
552.604,841.3
553.145,843.9
553.686,846.0
554.226,844.0
554.767,845.3
555.307,847.0
555.848,849.4
556.388,850.9
556.928,851.9
557.468,854.5
558.008,856.6
558.547,857.3
559.087,856.8
559.626,857.2
560.166,854.2
560.705,854.9
561.244,852.7
561.783,856.3
562.322,859.0
562.861,865.2
563.4,869.2
563.939,925.2
564.477,887.0
565.015,883.1
565.554,873.8
566.092,940.2
566.63,883.5
567.168,876.6
567.706,882.6
568.244,873.9
568.781,880.7
569.319,881.9
569.857,886.1
570.394,892.1
570.931,901.2
571.468,1001.7
572.005,940.9
572.542,924.0
573.079,920.6
573.616,926.1
574.153,940.6
574.689,947.2
575.226,957.3
575.762,1005.6
576.298,1128.0
576.834,1082.7
577.371,1064.6
577.907,1036.8
578.442,1060.0
578.978,1077.8
579.514,1111.7
580.049,1129.5
580.585,1159.1
581.12,1189.6
581.656,1218.4
582.191,1246.0
582.726,1281.2
583.261,1304.2
583.796,1343.5
584.331,1366.6
584.865,1397.2
585.4,1424.0
585.935,1463.4
586.469,1493.3
587.004,1525.7
587.538,1558.8
588.072,1603.7
588.606,1615.6
589.14,1648.6
589.674,1681.6
590.208,1722.4
590.742,1753.7
591.275,1776.9
591.809,1790.9
592.342,1802.6
592.876,1828.5
593.409,1834.0
593.942,1853.7
594.476,1871.2
595.009,1881.8
595.542,1893.9
596.075,1930.5
596.607,1931.7
597.14,1952.1
597.673,1968.8
598.205,2008.7
598.738,2017.0
599.27,2040.3
599.803,2045.6
600.335,2033.0
600.867,2042.0
601.399,2028.1
601.931,1996.3
602.463,1988.9
602.995,1968.3
603.527,1950.1
604.058,1893.8
604.59,1851.3
605.122,1798.7
605.653,1739.7
606.184,1701.0
606.716,1666.3
607.247,1642.6
607.778,1611.3
608.309,1595.7
608.84,1568.9
609.371,1540.5
609.902,1514.4
610.433,1489.5
610.964,1474.1
611.494,1459.6
612.025,1446.3
612.556,1446.4
613.086,1426.2
613.616,1413.6
614.147,1397.0
614.677,1383.2
615.207,1375.2
615.737,1356.7
616.267,1344.9
616.797,1330.5
617.327,1330.0
617.857,1316.6
618.387,1299.7
618.917,1295.0
619.446,1292.4
619.976,1284.2
620.505,1268.4
621.035,1267.5
621.564,1279.0
622.093,1314.1
622.623,1308.2
623.152,1267.7
623.681,1255.8
624.21,1250.0
624.739,1258.8
625.268,1259.9
625.797,1268.8
626.326,1293.3
626.855,1586.8
627.383,2100.9
627.912,1762.2
628.441,2044.5
628.969,1813.5
629.498,1700.4
630.026,1595.9
630.554,1556.7
631.083,1421.5
631.611,1336.2
632.139,1318.5
632.667,1306.9
633.195,1312.4
633.724,1314.5
634.252,1325.7
634.779,1321.3
635.307,1324.5
635.835,1340.6
636.363,1335.3
636.891,1362.3
637.418,1351.2
637.946,1363.1
638.474,1357.6
639.001,1365.7
639.529,1378.2
640.056,1391.1
640.583,1390.6
641.111,1397.5
641.638,1403.8
642.165,1409.2
642.692,1415.5
643.22,1406.0
643.747,1415.3
644.274,1411.9
644.801,1416.7
645.328,1409.1
645.854,1422.7
646.381,1408.0
646.908,1414.8
647.435,1412.8
647.962,1406.3
648.488,1400.1
649.015,1404.4
649.542,1408.0
650.068,1395.9
650.595,1395.3
651.121,1386.4
651.648,1386.7
652.174,1381.5
652.7,1385.6
653.227,1385.3
653.753,1391.4
654.279,1377.0
654.805,1367.4
655.331,1368.3
655.858,1348.5
656.384,1354.2
656.91,1337.5
657.436,1330.6
657.962,1307.0
658.488,1306.0
659.013,1287.8
659.539,1276.6
660.065,1260.1
660.591,1243.5
661.117,1229.6
661.642,1208.0
662.168,1198.9
662.694,1188.6
663.088,1174.2

File: VLFR_01-LDPE_nobio_Raman_bf030847.csv
nm,Intensity
526.532,832.0
527.079,832.75
527.625,832.6
528.172,832.15
528.718,832.3
529.265,832.85
529.811,831.45
530.357,831.55
530.903,832.8
531.449,831.0
531.994,841.05
532.54,833.4
533.085,831.7
533.63,832.55
534.176,916.0
534.721,902.55
535.266,886.75
535.81,874.1
536.355,868.05
536.9,864.6
537.444,863.7
537.988,862.85
538.533,861.35
539.077,857.75
539.621,855.05
540.165,853.85
540.708,853.0
541.252,852.65
541.795,852.15
542.339,852.4
542.882,850.7
543.425,850.7
543.968,849.75
544.511,850.35
545.054,849.1
545.597,849.05
546.139,849.45
546.682,848.75
547.224,849.65
547.766,848.8
548.308,850.15
548.85,848.0
549.392,847.75
549.934,847.5
550.475,846.5
551.017,849.4
551.558,848.7
552.1,847.75
552.641,848.45
553.182,851.35
553.723,851.45
554.264,854.15
554.804,852.8
555.345,854.4
555.885,856.1
556.426,856.5
556.966,859.0
557.506,861.8
558.046,863.85
558.586,864.9
559.126,859.65
559.665,859.65
560.205,859.2
560.745,860.6
561.284,861.7
561.823,861.6
562.362,865.3
562.901,867.4
563.44,874.1
563.979,941.6
564.518,890.15
565.056,883.2
565.595,879.6
566.133,941.55
566.671,883.0
567.21,876.95
567.748,880.05
568.285,874.55
568.823,875.95
569.361,877.9
569.899,881.7
570.436,885.4
570.974,893.05
571.511,1017.3
572.048,921.85
572.585,901.95
573.122,897.15
573.659,900.7
574.196,907.05
574.733,905.65
575.269,912.85
575.806,951.8
576.342,1063.85
576.878,1009.15
577.414,974.95
577.951,949.0
578.486,950.3
579.022,959.7
579.558,969.2
580.094,977.05
580.629,982.8
581.165,996.7
581.7,1005.85
582.236,1020.35
582.771,1031.65
583.306,1040.2
583.841,1047.85
584.376,1060.85
584.911,1076.2
585.445,1088.35
585.98,1102.8
586.514,1121.35
587.049,1139.75
587.583,1157.8
588.117,1171.3
588.651,1192.95
589.186,1207.35
589.72,1230.6
590.253,1248.25
590.787,1262.05
591.321,1278.25
591.854,1288.7
592.388,1298.05
592.921,1305.1
593.455,1316.8
593.988,1325.9
594.521,1335.6
595.054,1351.1
595.587,1367.25
596.12,1383.25
596.653,1391.35
597.186,1411.95
597.718,1427.25
598.251,1460.2
598.783,1477.35
599.316,1480.85
599.848,1497.2
600.38,1503.15
600.912,1504.6
601.444,1497.45
601.976,1498.35
602.508,1484.35
603.04,1467.6
603.572,1456.15
604.103,1430.75
604.635,1403.55
605.167,1379.55
605.698,1343.45
606.229,1319.0
606.761,1297.55
607.292,1280.2
607.823,1263.85
608.354,1251.2
608.885,1234.2
609.416,1229.8
609.947,1205.95
610.477,1194.95
611.008,1183.85
611.539,1178.35
612.069,1168.15
612.6,1170.3
613.13,1163.9
613.66,1161.3
614.19,1152.2
614.721,1141.05
615.251,1136.15
615.781,1124.7
616.311,1118.7
616.841,1112.95
617.37,1112.65
617.9,1110.55
618.43,1102.15
618.96,1096.7
619.489,1099.95
620.019,1093.65
620.548,1090.65
621.077,1094.4
621.607,1103.65
622.136,1121.0
622.665,1114.25
623.194,1078.4
623.723,1076.6
624.252,1065.75
624.781,1069.15
625.31,1071.7
625.839,1078.4
626.368,1111.25
626.896,1415.25
627.425,1821.4
627.953,1526.8
628.482,1847.95
629.01,1567.65
629.539,1454.3
630.067,1349.95
630.596,1316.65
631.124,1175.05
631.652,1104.15
632.18,1081.55
632.708,1069.8
633.236,1064.75
633.764,1064.45
634.292,1062.15
634.82,1062.9
635.348,1069.25
635.876,1068.8
636.403,1069.6
636.931,1074.5
637.459,1070.3
637.986,1077.9
638.514,1078.95
639.041,1086.0
639.568,1087.35
640.096,1094.3
640.623,1101.15
641.15,1101.45
641.678,1106.6
642.205,1108.2
642.732,1111.2
643.259,1115.25
643.786,1119.15
644.313,1115.3
644.84,1119.25
645.367,1122.5
645.894,1128.6
646.421,1129.45
646.948,1124.55
647.474,1130.4
648.001,1129.0
648.528,1128.8
649.054,1125.25
649.581,1128.7
650.108,1131.55
650.634,1122.1
651.161,1130.15
651.687,1129.85
652.214,1132.1
652.74,1137.9
653.266,1138.0
653.793,1135.8
654.319,1133.9
654.845,1132.4
655.371,1130.5
655.897,1128.8
656.424,1127.65
656.95,1122.15
657.476,1111.85
658.002,1104.35
658.528,1107.2
659.054,1096.6
659.58,1091.35
660.106,1080.95
660.631,1075.25
661.157,1060.15
661.683,1049.95
662.209,1041.45
662.735,1033.6
663.129,1023.55

File: VLFR_01-LDPE_nobio_Raman_bfb540b0.csv
nm,Intensity
526.5,829.4
527.047,828.3
527.594,828.1
528.14,827.9
528.687,829.4
529.233,828.3
529.779,828.2
530.325,828.2
530.871,829.4
531.417,828.7
531.962,830.1
532.508,828.7
533.053,828.5
533.599,830.4
534.144,891.4
534.689,876.1
535.234,866.6
535.778,855.8
536.323,852.4
536.867,848.8
537.412,848.6
537.956,849.9
538.5,846.7
539.044,847.0
539.588,845.3
540.132,842.0
540.675,841.2
541.219,840.0
541.762,839.8
542.305,839.3
542.848,840.6
543.391,838.5
543.934,838.8
544.477,838.3
545.02,838.2
545.562,837.2
546.105,837.2
546.647,839.1
547.189,838.0
547.731,837.7
548.273,836.1
548.815,836.0
549.356,836.7
549.898,837.1
550.439,837.4
550.981,836.0
551.522,834.8
552.063,837.2
552.604,839.3
553.145,837.9
553.686,838.3
554.226,839.3
554.767,839.6
555.307,839.0
555.848,841.0
556.388,841.1
556.928,844.5
557.468,843.2
558.008,846.5
558.547,845.4
559.087,844.1
559.626,845.0
560.166,842.3
560.705,841.0
561.244,842.3
561.783,843.5
562.322,842.5
562.861,846.7
563.4,849.2
563.939,888.5
564.477,862.1
565.015,857.3
565.554,850.2
566.092,887.4
566.63,853.1
567.168,850.4
567.706,850.7
568.244,845.7
568.781,848.8
569.319,846.3
569.857,850.1
570.394,850.2
570.931,858.0
571.468,923.7
572.005,879.9
572.542,862.3
573.079,856.3
573.616,856.4
574.153,861.6
574.689,856.5
575.226,860.0
575.762,886.6
576.298,972.2
576.834,930.1
577.371,904.5
577.907,874.8
578.442,873.4
578.978,876.4
579.514,876.6
580.049,880.1
580.585,880.4
581.12,887.6
581.656,889.8
582.191,890.0
582.726,893.5
583.261,896.7
583.796,894.1
584.331,904.1
584.865,905.9
585.4,909.3
585.935,911.7
586.469,919.3
587.004,920.1
587.538,923.4
588.072,924.4
588.606,931.3
589.14,930.0
589.674,935.1
590.208,943.7
590.742,947.7
591.275,949.9
591.809,952.8
592.342,959.3
592.876,961.7
593.409,965.3
593.942,961.9
594.476,979.1
595.009,982.8
595.542,986.0
596.075,992.3
596.607,999.6
597.14,1013.8
597.673,1020.9
598.205,1028.1
598.738,1036.2
599.27,1046.4
599.803,1053.6
600.335,1057.3
600.867,1054.4
601.399,1054.6
601.931,1059.5
602.463,1059.8
602.995,1043.4
603.527,1044.6
604.058,1034.7
604.59,1022.6
605.122,1013.8
605.653,1003.3
606.184,994.4
606.716,987.7
607.247,974.2
607.778,978.1
608.309,970.9
608.84,960.6
609.371,955.3
609.902,952.2
610.433,949.8
610.964,951.3
611.494,941.8
612.025,939.7
612.556,939.3
613.086,937.5
613.616,940.3
614.147,932.6
614.677,933.8
615.207,930.0
615.737,929.4
616.267,923.5
616.797,927.8
617.327,925.1
617.857,924.8
618.387,922.5
618.917,922.4
619.446,923.0
619.976,923.2
620.505,924.6
621.035,924.4
621.564,931.6
622.093,960.2
622.623,954.9
623.152,930.2
623.681,921.7
624.21,919.1
624.739,919.8
625.268,920.4
625.797,931.3
626.326,953.8
626.855,1176.1
627.383,1611.6
627.912,1332.2
628.441,1514.6
628.969,1377.2
629.498,1276.8
630.026,1174.0
630.554,1155.5
631.083,1023.8
631.611,957.2
632.139,935.0
632.667,918.8
633.195,912.2
633.724,910.6
634.252,909.6
634.779,908.8
635.307,906.3
635.835,910.9
636.363,910.6
636.891,907.7
637.418,905.3
637.946,909.7
638.474,909.2
639.001,907.5
639.529,907.7
640.056,913.0
640.583,911.5
641.111,913.0
641.638,906.5
642.165,910.4
642.692,916.6
643.22,917.0
643.747,916.8
644.274,912.5
644.801,918.6
645.328,917.8
645.854,920.3
646.381,917.7
646.908,919.3
647.435,922.8
647.962,922.0
648.488,926.0
649.015,923.9
649.542,925.9
650.068,927.2
650.595,930.1
651.121,928.1
651.648,930.9
652.174,929.9
652.7,931.9
653.227,936.0
653.753,934.4
654.279,933.4
654.805,935.4
655.331,938.8
655.858,935.7
656.384,933.7
656.91,935.5
657.436,929.2
657.962,928.9
658.488,929.1
659.013,924.6
659.539,923.3
660.065,916.5
660.591,915.3
661.117,913.6
661.642,908.0
662.168,905.4
662.694,901.1
663.088,899.6