Folder: MPX_specDB/spectra (part 26)

File: VLFR_01-LDPE_nobio_Raman_06428634.csv
nm,Intensity
526.532,830.767
527.079,829.933
527.625,830.0
528.172,830.267
528.718,830.833
529.265,830.5
529.811,830.933
530.357,830.367
530.903,830.333
531.449,829.767
531.994,835.267
532.54,830.533
533.085,830.4
533.63,831.4
534.176,915.1
534.721,900.8
535.266,888.933
535.81,876.967
536.355,870.633
536.9,868.733
537.444,870.2
537.988,870.267
538.533,866.033
539.077,864.067
539.621,861.0
540.165,861.3
540.708,857.733
541.252,857.7
541.795,856.2
542.339,856.667
542.882,856.3
543.425,856.9
543.968,856.867
544.511,855.833
545.054,856.233
545.597,856.033
546.139,854.667
546.682,855.033
547.224,853.667
547.766,855.533
548.308,854.1
548.85,852.033
549.392,853.767
549.934,854.2
550.475,854.067
551.017,853.4
551.558,854.633
552.1,853.733
552.641,852.567
553.182,855.6
553.723,857.3
554.264,856.033
554.804,858.8
555.345,857.7
555.885,860.067
556.426,861.467
556.966,864.233
557.506,864.8
558.046,868.2
558.586,867.067
559.126,863.4
559.665,864.167
560.205,862.233
560.745,863.1
561.284,862.933
561.823,865.1
562.362,866.533
562.901,870.467
563.44,873.567
563.979,941.933
564.518,892.567
565.056,887.067
565.595,881.6
566.133,965.167
566.671,884.967
567.21,880.767
567.748,875.9
568.285,874.5
568.823,875.867
569.361,878.4
569.899,879.667
570.436,884.633
570.974,892.4
571.511,1012.23
572.048,921.233
572.585,899.133
573.122,894.1
573.659,900.033
574.196,906.0
574.733,903.7
575.269,910.433
575.806,958.8
576.342,1047.83
576.878,1006.6
577.414,972.267
577.951,949.467
578.486,953.2
579.022,962.933
579.558,971.567
580.094,985.0
580.629,991.3
581.165,1004.17
581.7,1010.07
582.236,1023.73
582.771,1029.07
583.306,1039.17
583.841,1046.6
584.376,1056.83
584.911,1064.17
585.445,1075.3
585.98,1084.57
586.514,1099.7
587.049,1111.83
587.583,1125.37
588.117,1136.73
588.651,1152.6
589.186,1161.07
589.72,1177.27
590.253,1192.63
590.787,1207.1
591.321,1217.57
591.854,1220.53
592.388,1224.2
592.921,1232.1
593.455,1228.7
593.988,1231.37
594.521,1232.43
595.054,1242.23
595.587,1244.87
596.12,1248.8
596.653,1253.93
597.186,1254.47
597.718,1260.67
598.251,1274.6
598.783,1280.17
599.316,1281.67
599.848,1289.73
600.38,1286.53
600.912,1281.57
601.444,1272.9
601.976,1268.23
602.508,1263.1
603.04,1255.13
603.572,1243.53
604.103,1229.93
604.635,1205.6
605.167,1186.5
605.698,1170.77
606.229,1158.13
606.761,1138.93
607.292,1125.9
607.823,1120.8
608.354,1110.07
608.885,1102.5
609.416,1095.33
609.947,1084.97
610.477,1074.67
611.008,1071.23
611.539,1067.93
612.069,1058.77
612.6,1056.4
613.13,1054.8
613.66,1050.8
614.19,1041.97
614.721,1037.4
615.251,1034.83
615.781,1030.07
616.311,1022.9
616.841,1022.7
617.37,1025.23
617.9,1022.53
618.43,1018.57
618.96,1012.4
619.489,1016.27
620.019,1011.97
620.548,1011.3
621.077,1010.0
621.607,1018.9
622.136,1039.77
622.665,1036.77
623.194,1012.23
623.723,1002.37
624.252,1000.67
624.781,1002.9
625.31,1002.73
625.839,1011.83
626.368,1036.9
626.896,1273.67
627.425,1638.8
627.953,1399.7
628.482,1673.97
629.01,1488.8
629.539,1387.9
630.067,1286.6
630.596,1257.23
631.124,1126.03
631.652,1058.23
632.18,1031.93
632.708,1020.53
633.236,1018.53
633.764,1016.1
634.292,1011.03
634.82,1012.3
635.348,1012.27
635.876,1014.67
636.403,1015.73
636.931,1019.33
637.459,1017.03
637.986,1021.3
638.514,1021.7
639.041,1024.17
639.568,1025.43
640.096,1029.2
640.623,1032.9
641.15,1035.93
641.678,1032.5
642.205,1037.8
642.732,1038.3
643.259,1036.57
643.786,1039.5
644.313,1037.67
644.84,1041.27
645.367,1038.0
645.894,1036.9
646.421,1039.87
646.948,1036.17
647.474,1035.23
648.001,1036.73
648.528,1033.93
649.054,1027.27
649.581,1028.77
650.108,1027.83
650.634,1024.67
651.161,1023.8
651.687,1022.47
652.214,1023.87
652.74,1024.17
653.266,1025.67
653.793,1022.3
654.319,1020.0
654.845,1020.47
655.371,1016.43
655.897,1014.47
656.424,1007.63
656.95,1008.53
657.476,1003.67
658.002,998.9
658.528,997.0
659.054,988.233
659.58,987.7
660.106,983.8
660.631,973.967
661.157,972.233
661.683,965.1
662.209,959.467
662.735,955.333
663.129,951.433

File: VLFR_01-LDPE_nobio_Raman_8539768b.csv
nm,Intensity
526.5,829.0
527.047,828.0
527.594,829.0
528.14,829.6
528.687,829.2
529.233,828.8
529.779,829.4
530.325,828.5
530.871,829.1
531.417,828.3
531.962,836.9
532.508,830.7
533.053,830.1
533.599,829.5
534.144,908.5
534.689,892.9
535.234,878.4
535.778,868.6
536.323,862.1
536.867,860.1
537.412,857.1
537.956,857.2
538.5,856.0
539.044,852.6
539.588,848.8
540.132,849.9
540.675,848.4
541.219,848.1
541.762,845.2
542.305,846.9
542.848,843.8
543.391,843.2
543.934,846.4
544.477,845.8
545.02,843.6
545.562,842.7
546.105,844.5
546.647,845.4
547.189,843.3
547.731,844.8
548.273,844.1
548.815,844.8
549.356,840.9
549.898,844.2
550.439,843.9
550.981,844.2
551.522,842.4
552.063,843.0
552.604,843.0
553.145,845.6
553.686,846.4
554.226,846.6
554.767,847.3
555.307,847.8
555.848,848.9
556.388,850.9
556.928,852.8
557.468,856.8
558.008,859.8
558.547,861.4
559.087,855.7
559.626,854.9
560.166,856.4
560.705,853.0
561.244,853.7
561.783,855.8
562.322,858.2
562.861,863.4
563.4,867.7
563.939,927.6
564.477,892.0
565.015,882.8
565.554,877.1
566.092,949.7
566.63,879.5
567.168,873.9
567.706,875.5
568.244,872.7
568.781,874.6
569.319,876.1
569.857,879.1
570.394,884.6
570.931,895.7
571.468,1003.5
572.005,931.8
572.542,911.8
573.079,905.9
573.616,915.1
574.153,923.9
574.689,922.6
575.226,933.8
575.762,989.3
576.298,1084.9
576.834,1043.3
577.371,1023.3
577.907,1007.5
578.442,1020.7
578.978,1039.8
579.514,1061.4
580.049,1082.4
580.585,1107.8
581.12,1130.1
581.656,1163.3
582.191,1179.0
582.726,1207.9
583.261,1237.8
583.796,1251.9
584.331,1267.5
584.865,1279.9
585.4,1294.7
585.935,1309.8
586.469,1329.2
587.004,1339.8
587.538,1366.1
588.072,1374.4
588.606,1391.8
589.14,1404.3
589.674,1414.5
590.208,1434.1
590.742,1450.8
591.275,1459.9
591.809,1472.5
592.342,1471.8
592.876,1478.5
593.409,1486.5
593.942,1486.5
594.476,1488.9
595.009,1506.4
595.542,1526.3
596.075,1533.5
596.607,1547.0
597.14,1564.8
597.673,1580.4
598.205,1603.5
598.738,1609.7
599.27,1635.8
599.803,1641.8
600.335,1651.4
600.867,1647.9
601.399,1651.3
601.931,1638.4
602.463,1636.0
602.995,1611.4
603.527,1599.9
604.058,1572.9
604.59,1547.4
605.122,1515.2
605.653,1465.6
606.184,1441.4
606.716,1414.7
607.247,1388.6
607.778,1378.3
608.309,1350.3
608.84,1331.7
609.371,1326.0
609.902,1299.8
610.433,1288.4
610.964,1276.9
611.494,1263.2
612.025,1254.2
612.556,1252.3
613.086,1246.2
613.616,1232.7
614.147,1221.4
614.677,1211.5
615.207,1197.3
615.737,1193.3
616.267,1184.9
616.797,1181.1
617.327,1170.7
617.857,1166.0
618.387,1159.9
618.917,1148.9
619.446,1148.7
619.976,1152.0
620.505,1142.5
621.035,1146.7
621.564,1157.3
622.093,1174.6
622.623,1165.7
623.152,1141.4
623.681,1124.5
624.21,1141.1
624.739,1134.1
625.268,1133.6
625.797,1146.5
626.326,1166.4
626.855,1377.2
627.383,1820.4
627.912,1542.0
628.441,1769.5
628.969,1672.4
629.498,1549.3
630.026,1445.3
630.554,1422.1
631.083,1289.3
631.611,1209.1
632.139,1184.5
632.667,1179.7
633.195,1177.0
633.724,1167.9
634.252,1181.1
634.779,1175.9
635.307,1179.3
635.835,1178.4
636.363,1188.3
636.891,1177.0
637.418,1190.0
637.946,1184.6
638.474,1192.7
639.001,1190.9
639.529,1192.5
640.056,1203.2
640.583,1201.3
641.111,1210.9
641.638,1208.9
642.165,1214.0
642.692,1220.1
643.22,1216.7
643.747,1214.1
644.274,1220.5
644.801,1210.6
645.328,1216.9
645.854,1223.6
646.381,1221.2
646.908,1223.8
647.435,1228.3
647.962,1224.6
648.488,1215.1
649.015,1225.4
649.542,1224.0
650.068,1216.4
650.595,1223.0
651.121,1223.1
651.648,1219.2
652.174,1223.5
652.7,1233.5
653.227,1233.9
653.753,1227.6
654.279,1229.3
654.805,1227.9
655.331,1227.0
655.858,1223.3
656.384,1217.2
656.91,1213.9
657.436,1202.8
657.962,1201.2
658.488,1188.1
659.013,1175.3
659.539,1171.9
660.065,1160.3
660.591,1146.0
661.117,1137.6
661.642,1131.2
662.168,1110.4
662.694,1107.3
663.088,1095.6

File: VLFR_01-LDPE_nobio_Raman_37022192.csv
nm,Intensity
526.508,831.85
527.055,829.65
527.602,830.85
528.149,830.75
528.695,829.45
529.241,829.75
529.787,830.15
530.334,830.45
530.879,830.15
531.425,829.95
531.971,833.65
532.516,831.6
533.062,830.5
533.607,831.2
534.152,884.7
534.697,875.25
535.242,865.45
535.786,855.6
536.331,855.9
536.876,851.7
537.42,851.25
537.964,850.2
538.508,848.95
539.052,847.3
539.596,844.35
540.14,845.85
540.683,845.9
541.227,844.1
541.77,842.35
542.313,842.0
542.856,842.35
543.399,841.6
543.942,841.7
544.485,840.6
545.027,841.05
545.57,842.1
546.112,840.15
546.654,840.4
547.196,840.55
547.738,840.7
548.28,840.1
548.822,838.8
549.363,840.1
549.905,841.35
550.446,840.6
550.988,840.5
551.529,839.7
552.07,840.3
552.611,840.05
553.152,841.2
553.692,842.6
554.233,843.05
554.773,844.0
555.314,844.15
555.854,843.15
556.394,844.9
556.934,847.65
557.474,849.3
558.014,849.4
558.553,852.05
559.093,850.9
559.632,849.4
560.172,848.6
560.711,849.5
561.25,850.5
561.789,852.55
562.328,854.15
562.867,855.8
563.406,859.0
563.944,893.0
564.483,872.25
565.021,867.45
565.559,868.05
566.098,910.0
566.636,870.15
567.174,866.35
567.711,867.8
568.249,866.6
568.787,866.7
569.324,870.05
569.862,873.4
570.399,875.55
570.936,884.4
571.474,940.2
572.011,905.15
572.548,893.05
573.084,892.55
573.621,897.25
574.158,906.0
574.694,905.95
575.231,913.4
575.767,945.15
576.303,1001.75
576.84,983.2
577.376,976.35
577.912,965.3
578.447,975.55
578.983,990.95
579.519,999.35
580.054,1012.6
580.59,1027.1
581.125,1040.85
581.661,1055.75
582.196,1070.15
582.731,1082.25
583.266,1096.1
583.801,1107.9
584.336,1129.8
584.87,1141.65
585.405,1157.0
585.94,1174.4
586.474,1195.95
587.008,1219.3
587.543,1240.55
588.077,1262.0
588.611,1283.25
589.145,1306.9
589.679,1324.45
590.213,1352.1
590.747,1371.65
591.28,1389.1
591.814,1402.75
592.347,1411.9
592.881,1421.35
593.414,1427.9
593.947,1438.1
594.48,1448.2
595.014,1458.05
595.547,1462.75
596.079,1479.85
596.612,1482.45
597.145,1497.35
597.678,1513.3
598.21,1529.8
598.743,1541.75
599.275,1554.45
599.807,1556.85
600.34,1556.1
600.872,1548.05
601.404,1539.2
601.936,1529.9
602.468,1530.2
603.0,1511.4
603.532,1501.05
604.063,1477.95
604.595,1448.7
605.126,1417.1
605.658,1373.35
606.189,1360.5
606.721,1337.2
607.252,1316.6
607.783,1308.25
608.314,1286.3
608.845,1271.2
609.376,1257.9
609.907,1243.25
610.438,1230.9
610.968,1221.35
611.499,1212.75
612.03,1199.55
612.56,1192.85
613.091,1190.6
613.621,1185.0
614.151,1177.0
614.681,1160.7
615.212,1159.1
615.742,1147.7
616.272,1138.35
616.802,1135.1
617.332,1131.2
617.861,1122.55
618.391,1116.5
618.921,1111.35
619.45,1104.6
619.98,1102.35
620.509,1097.8
621.039,1098.1
621.568,1096.05
622.097,1103.95
622.627,1100.8
623.156,1085.4
623.685,1086.2
624.214,1080.55
624.743,1077.45
625.272,1079.35
625.801,1079.9
626.33,1089.3
626.858,1204.05
627.387,1411.95
627.916,1286.05
628.444,1383.7
628.973,1318.05
629.501,1262.15
630.029,1215.3
630.558,1205.85
631.086,1140.1
631.614,1105.7
632.142,1094.95
632.67,1090.1
633.198,1088.05
633.726,1092.6
634.254,1090.65
634.782,1092.7
635.31,1091.55
635.838,1102.85
636.365,1104.0
636.893,1108.6
637.421,1112.65
637.948,1120.3
638.476,1119.6
639.003,1127.05
639.531,1130.05
640.058,1141.55
640.585,1141.6
641.113,1147.15
641.64,1150.2
642.167,1157.35
642.694,1158.4
643.221,1157.0
643.748,1163.85
644.275,1162.7
644.802,1165.95
645.329,1170.15
645.856,1167.85
646.382,1169.0
646.909,1176.1
647.436,1174.6
647.962,1174.45
648.489,1175.1
649.016,1171.85
649.542,1175.0
650.069,1169.65
650.595,1165.05
651.121,1167.4
651.648,1166.35
652.174,1170.85
652.7,1168.55
653.227,1168.25
653.753,1169.75
654.279,1170.35
654.805,1163.3
655.331,1163.85
655.857,1157.4
656.383,1155.1
656.909,1150.55
657.435,1146.0
657.961,1140.85
658.487,1136.2
659.013,1125.15
659.538,1114.35
660.064,1109.75
660.59,1096.55
661.116,1081.2
661.641,1069.5
662.167,1065.75
662.692,1055.15
663.087,1050.25

File: VLFR_01-LDPE_nobio_Raman_65567425.csv
nm,Intensity
526.532,830.367
527.079,829.633
527.625,829.533
528.172,829.633
528.718,830.233
529.265,830.2
529.811,830.5
530.357,830.067
530.903,829.767
531.449,829.367
531.994,838.333
532.54,830.167
533.085,830.133
533.63,831.733
534.176,917.033
534.721,901.267
535.266,885.2
535.81,867.367
536.355,861.967
536.9,858.367
537.444,859.2
537.988,856.6
538.533,854.267
539.077,851.667
539.621,850.533
540.165,847.967
540.708,844.733
541.252,845.367
541.795,844.7
542.339,844.133
542.882,844.767
543.425,844.0
543.968,844.233
544.511,842.333
545.054,842.1
545.597,842.0
546.139,842.533
546.682,842.033
547.224,841.267
547.766,841.433
548.308,840.867
548.85,840.367
549.392,839.467
549.934,840.233
550.475,839.2
551.017,839.2
551.558,840.8
552.1,840.9
552.641,840.167
553.182,842.333
553.723,844.533
554.264,844.6
554.804,843.167
555.345,845.1
555.885,845.533
556.426,848.9
556.966,851.633
557.506,854.833
558.046,856.333
558.586,856.9
559.126,851.6
559.665,848.5
560.205,848.2
560.745,848.767
561.284,847.933
561.823,849.467
562.362,851.3
562.901,854.833
563.44,860.167
563.979,940.267
564.518,881.033
565.056,873.2
565.595,864.6
566.133,958.133
566.671,868.567
567.21,858.233
567.748,859.467
568.285,852.467
568.823,852.433
569.361,852.167
569.899,854.167
570.436,858.067
570.974,867.367
571.511,1009.2
572.048,898.233
572.585,868.633
573.122,860.733
573.659,861.433
574.196,865.833
574.733,857.167
575.269,863.233
575.806,909.4
576.342,1036.17
576.878,968.133
577.414,918.5
577.951,878.367
578.486,872.133
579.022,874.5
579.558,876.633
580.094,879.867
580.629,883.4
581.165,885.2
581.7,889.533
582.236,893.167
582.771,899.967
583.306,902.833
583.841,908.767
584.376,911.167
584.911,915.9
585.445,922.367
585.98,928.967
586.514,935.633
587.049,943.267
587.583,949.8
588.117,953.367
588.651,960.3
589.186,967.733
589.72,976.267
590.253,982.667
590.787,988.867
591.321,993.367
591.854,999.667
592.388,1003.3
592.921,1007.83
593.455,1008.57
593.988,1011.83
594.521,1018.57
595.054,1018.93
595.587,1027.0
596.12,1031.97
596.653,1030.0
597.186,1038.77
597.718,1038.97
598.251,1047.03
598.783,1050.33
599.316,1053.97
599.848,1056.93
600.38,1056.0
600.912,1050.33
601.444,1048.47
601.976,1045.67
602.508,1043.53
603.04,1037.73
603.572,1032.5
604.103,1024.57
604.635,1013.9
605.167,1005.77
605.698,996.333
606.229,989.467
606.761,982.667
607.292,978.033
607.823,973.3
608.354,967.733
608.885,964.133
609.416,961.667
609.947,957.933
610.477,951.167
611.008,951.867
611.539,950.8
612.069,946.033
612.6,943.333
613.13,943.3
613.66,937.733
614.19,937.933
614.721,934.6
615.251,934.933
615.781,931.133
616.311,928.233
616.841,929.633
617.37,937.367
617.9,933.6
618.43,931.067
618.96,930.167
619.489,929.467
620.019,933.633
620.548,930.567
621.077,936.467
621.607,947.533
622.136,972.667
622.665,969.0
623.194,935.0
623.723,925.267
624.252,926.067
624.781,928.0
625.31,928.033
625.839,937.533
626.368,971.533
626.896,1279.8
627.425,1759.17
627.953,1442.0
628.482,1787.77
629.01,1524.13
629.539,1382.63
630.067,1269.03
630.596,1232.73
631.124,1064.6
631.652,980.367
632.18,947.867
632.708,934.033
633.236,929.433
633.764,925.9
634.292,921.9
634.82,923.067
635.348,922.533
635.876,922.167
636.403,924.467
636.931,921.967
637.459,920.9
637.986,923.433
638.514,925.333
639.041,924.7
639.568,928.0
640.096,929.633
640.623,929.8
641.15,932.867
641.678,934.667
642.205,936.433
642.732,935.467
643.259,940.3
643.786,940.5
644.313,940.567
644.84,942.733
645.367,940.733
645.894,942.533
646.421,942.633
646.948,942.7
647.474,945.767
648.001,945.133
648.528,944.467
649.054,944.933
649.581,942.733
650.108,943.167
650.634,944.467
651.161,942.933
651.687,942.267
652.214,943.067
652.74,945.0
653.266,942.2
653.793,945.667
654.319,940.133
654.845,940.333
655.371,940.367
655.897,938.267
656.424,935.6
656.95,936.933
657.476,931.433
658.002,931.567
658.528,928.467
659.054,925.167
659.58,923.7
660.106,921.467
660.631,918.5
661.157,912.533
661.683,909.633
662.209,906.2
662.735,903.833
663.129,900.567

File: VLFR_01-LDPE_nobio_Raman_a6df8a4f.csv
nm,Intensity
528.65,1836.65
529.155,1836.85
529.66,1836.9
530.165,1835.45
530.67,1836.6
531.175,1837.35
531.68,1843.3
532.185,2271.95
532.69,1838.6
533.194,1839.45
533.699,2235.4
534.204,3422.3
534.708,3561.45
535.213,3637.4
535.717,3712.75
536.222,3691.65
536.726,3779.85
537.231,3788.3
537.735,3828.9
538.239,3830.3
538.743,3850.85
539.247,3969.6
539.751,3979.35
540.255,3984.95
540.759,4062.6
541.263,4050.3
541.767,4142.5
542.271,4094.2
542.775,4114.4
543.279,4197.0
543.782,4239.7
544.286,4296.8
544.789,4295.5
545.293,4249.45
545.796,4309.55
546.3,4323.2
546.803,4372.9
547.306,4417.8
547.81,4423.25
548.313,4496.7
548.816,4494.85
549.319,4438.25
549.822,4458.65
550.325,4587.95
550.828,4619.9
551.331,4693.9
551.834,4681.15
552.337,4663.0
552.839,4703.8
553.342,4651.25
553.844,4739.4
554.347,4808.25
554.849,4859.3
555.352,4811.7
555.854,4805.8
556.357,4913.4
556.859,4884.8
557.361,4880.05
557.863,4903.8
558.365,4974.75
558.867,5033.35
559.369,5006.1
559.871,4969.65
560.373,5051.7
560.875,5168.75
561.377,5219.25
561.878,5107.1
562.38,5136.5
562.881,5133.2
563.383,5172.25
563.884,5178.35
564.386,5335.4
564.887,5269.2
565.388,5277.5
565.89,5281.0
566.391,5337.25
566.892,5342.8
567.393,5425.4
567.894,5385.85
568.395,5535.75
568.896,5551.5
569.396,5592.4
569.897,5574.1
570.398,5563.05
570.898,5736.65
571.399,5738.8
571.9,5754.05
572.4,5923.3
572.9,5900.5
573.401,5982.3
573.901,5806.3
574.401,5830.5
574.901,5874.75
575.401,5847.4
575.901,5847.1
576.401,5789.2
576.901,5773.4
577.401,5759.0
577.901,5854.1
578.4,5702.55
578.9,5708.0
579.399,5858.1
579.899,5971.15
580.398,6052.85
580.898,6111.1
581.397,6222.2
581.896,6053.15
582.395,5705.9
582.895,5694.05
583.394,5672.5
583.893,5644.05
584.391,5622.45
584.89,5464.8
585.389,5475.1
585.888,5436.65
586.386,5425.8
586.885,5382.8
587.384,5481.6
587.882,5495.15
588.38,5493.35
588.879,5398.65
589.377,5399.35
589.875,5401.8
590.373,5399.3
590.871,5544.75
591.369,5465.65
591.867,5482.35
592.365,5430.55
592.863,5358.2
593.361,5271.9
593.858,5296.25
594.356,5368.4
594.853,5410.9
595.351,5248.8
595.848,5390.25
596.345,5416.5
596.843,5344.1
597.34,5331.7
597.837,5312.7
598.334,5304.25
598.831,5314.5
599.328,5389.7
599.824,5284.6
600.321,5295.5
600.818,5327.95
601.314,5277.1
601.811,5272.1
602.307,5266.05
602.804,5304.25
603.3,5280.6
603.796,5189.7
604.293,5185.45
604.789,5245.75
605.285,5122.15
605.781,5127.75
606.277,5240.5
606.772,5249.0
607.268,5112.05
607.764,5161.3
608.259,5189.3
608.755,5119.0
609.25,5072.7
609.746,5179.1
610.241,5077.5
610.736,5090.9
611.231,5060.95
611.727,5044.75
612.222,5044.2
612.716,5012.95
613.211,5011.95
613.706,4967.45
614.201,4974.2
614.695,4930.35
615.19,4945.35
615.684,4982.5
616.179,4986.0
616.673,4927.35
617.168,4889.7
617.662,4936.65
618.156,4889.0
618.65,4856.35
619.144,4870.35
619.638,4864.8
620.131,4926.65
620.625,4772.35
621.119,4833.9
621.612,4742.8
622.106,4791.45
622.599,4813.15
623.093,4742.6
623.586,4804.15
624.079,4718.55
624.572,4767.15
625.065,4672.25
625.558,4678.75
626.051,4690.0
626.544,4656.8
627.037,4577.45
627.529,4681.7
628.022,4610.75
628.514,4699.4
629.007,4615.2
629.499,4533.85
629.991,4533.4
630.483,4497.15
630.976,4534.45
631.468,4589.1
631.959,4455.2
632.451,4502.55
632.943,4456.6
633.435,4362.6
633.926,4396.5
634.418,4355.4
634.909,4356.15
635.401,4388.8
635.892,4247.2
636.383,4320.95
636.874,4305.0
637.365,4328.45
637.856,4253.95
638.347,4267.55
638.838,4273.0
639.329,4180.1
639.819,4101.15
640.31,4068.3
640.8,4080.8
641.291,4062.85
641.781,4080.05
642.271,4023.65
642.761,3916.45
643.251,3966.45
643.741,3993.65
644.231,3962.45
644.721,3936.65
645.211,3999.9
645.7,3844.6
646.19,3862.85
646.679,3815.65
647.169,3845.2
647.658,3825.25
648.147,3831.55
648.636,3703.95
649.125,3708.15
649.614,3667.9
650.103,3656.2
650.592,3665.3
651.08,3612.55
651.569,3606.7
652.058,3641.55
652.546,3595.55
653.034,3470.3
653.523,3557.9
654.011,3547.15
654.499,3451.3
654.987,3411.75
655.475,3415.6
655.963,3439.35
656.45,3399.5
656.938,3363.3
657.425,3354.5
657.913,3355.65
658.4,3327.25
658.888,3260.95
659.375,3177.8
659.862,3204.45
660.349,3205.1
660.836,3182.65
661.079,3189.45

File: VLFR_01-LDPE_nobio_Raman_a7d9c3f6.csv
nm,Intensity
526.486,829.2
527.033,828.4
527.579,829.0
528.126,828.5
528.672,828.6
529.219,830.0
529.765,829.6
530.311,830.7
530.857,829.9
531.403,829.4
531.948,831.1
532.494,830.2
533.039,829.3
533.585,829.3
534.13,900.3
534.675,893.0
535.22,881.2
535.764,869.0
536.309,862.7
536.854,858.4
537.398,859.3
537.942,857.2
538.486,857.0
539.03,854.8
539.574,853.2
540.118,853.4
540.662,852.5
541.205,850.6
541.749,848.1
542.292,847.8
542.835,849.8
543.378,850.2
543.921,849.6
544.464,845.9
545.006,849.1
545.549,845.8
546.091,844.8
546.634,846.0
547.176,847.8
547.718,847.0
548.26,845.2
548.802,846.5
549.343,845.0
549.885,846.7
550.426,844.8
550.968,844.3
551.509,844.0
552.05,844.1
552.591,845.5
553.132,845.9
553.673,846.7
554.214,847.1
554.754,846.7
555.295,847.4
555.835,850.5
556.375,849.7
556.915,855.0
557.455,853.4
557.995,857.3
558.535,856.2
559.075,854.4
559.614,854.3
560.154,853.5
560.693,852.8
561.232,852.1
561.772,854.1
562.311,854.1
562.85,857.2
563.388,863.0
563.927,898.9
564.466,879.3
565.004,872.8
565.543,866.0
566.081,906.6
566.619,870.7
567.157,862.8
567.695,868.1
568.233,861.4
568.771,862.4
569.309,862.7
569.846,865.1
570.384,868.6
570.921,876.4
571.458,936.1
571.995,904.1
572.532,880.7
573.069,875.9
573.606,878.8
574.143,886.6
574.68,884.5
575.216,889.5
575.753,924.4
576.289,1016.7
576.825,977.4
577.361,960.7
577.897,930.5
578.433,931.4
578.969,945.6
579.505,952.7
580.041,964.1
580.576,965.8
581.112,976.5
581.647,983.4
582.183,984.8
582.718,986.4
583.253,989.1
583.788,989.2
584.323,992.1
584.858,990.2
585.392,984.6
585.927,978.1
586.462,982.9
586.996,977.9
587.53,975.6
588.065,980.5
588.599,974.5
589.133,979.1
589.667,975.8
590.201,977.1
590.735,974.2
591.268,980.5
591.802,975.3
592.335,976.5
592.869,977.7
593.402,975.6
593.936,975.1
594.469,980.5
595.002,985.6
595.535,987.2
596.068,988.9
596.601,996.6
597.133,999.3
597.666,1007.8
598.199,1012.1
598.731,1014.2
599.264,1021.1
599.796,1026.3
600.328,1028.1
600.86,1024.5
601.393,1021.4
601.925,1021.0
602.457,1020.3
602.988,1014.9
603.52,1013.2
604.052,1005.5
604.583,997.9
605.115,988.9
605.646,980.6
606.178,973.9
606.709,966.6
607.24,962.4
607.771,959.6
608.302,949.3
608.833,951.2
609.364,944.4
609.895,941.1
610.426,943.7
610.957,936.2
611.487,936.9
612.018,934.8
612.548,929.7
613.078,932.1
613.609,929.3
614.139,924.7
614.669,926.8
615.199,922.3
615.729,923.6
616.259,923.2
616.789,922.9
617.319,925.1
617.849,928.3
618.378,930.2
618.908,928.5
619.437,933.4
619.967,927.2
620.496,932.6
621.025,937.0
621.555,951.8
622.084,973.5
622.613,974.9
623.142,948.0
623.671,940.7
624.2,936.5
624.729,941.0
625.258,942.0
625.786,954.9
626.315,982.9
626.844,1205.9
627.372,1722.9
627.901,1412.0
628.429,1603.1
628.957,1457.9
629.486,1349.2
630.014,1229.8
630.542,1214.8
631.07,1090.9
631.598,1006.3
632.126,984.1
632.654,970.1
633.182,964.6
633.71,961.9
634.237,957.9
634.765,955.3
635.293,952.9
635.82,950.3
636.348,946.5
636.875,944.6
637.403,939.3
637.93,937.6
638.458,935.6
638.985,932.9
639.512,931.7
640.039,926.3
640.566,931.3
641.093,931.0
641.62,928.6
642.147,927.7
642.674,921.6
643.201,923.5
643.728,923.4
644.255,920.9
644.781,924.4
645.308,919.0
645.835,916.4
646.361,918.9
646.888,922.1
647.414,913.5
647.941,919.1
648.467,922.0
648.993,917.9
649.52,918.7
650.046,915.4
650.572,920.5
651.098,917.2
651.625,915.8
652.151,921.5
652.677,919.7
653.203,923.9
653.729,921.1
654.255,920.9
654.78,917.7
655.306,914.3
655.832,915.1
656.358,912.0
656.884,914.9
657.409,911.7
657.935,908.4
658.461,908.0
658.986,907.0
659.512,903.3
660.037,898.3
660.563,902.4
661.088,896.5
661.614,895.6
662.139,890.8
662.664,888.5
663.058,888.3