Folder: MPX_specDB/spectra (part 3)

File: VLFR_01-LDPE_bio_Raman_5b8955c3.csv
nm,Intensity
526.547,832.65
527.095,832.5
527.642,832.2
528.189,832.05
528.736,833.3
529.283,832.2
529.829,832.75
530.376,831.45
530.922,832.7
531.468,833.25
532.014,835.65
532.56,832.15
533.106,832.2
533.651,834.05
534.196,898.45
534.742,886.8
535.287,881.6
535.832,879.2
536.376,872.75
536.921,865.9
537.465,871.2
538.01,864.05
538.554,863.1
539.098,863.8
539.642,860.65
540.186,858.2
540.729,857.6
541.273,858.25
541.816,854.85
542.36,854.5
542.903,854.6
543.446,854.75
543.988,860.75
544.531,856.4
545.074,855.6
545.616,856.25
546.158,867.35
546.701,910.1
547.243,859.4
547.785,855.95
548.326,854.7
548.868,856.05
549.41,857.1
549.951,859.55
550.492,862.8
551.034,854.45
551.575,853.9
552.116,853.55
552.656,855.3
553.197,854.0
553.738,854.5
554.278,856.45
554.819,853.9
555.359,855.25
555.899,855.2
556.439,858.35
556.979,856.65
557.519,859.9
558.058,860.15
558.598,860.2
559.137,858.35
559.677,859.45
560.216,859.2
560.755,860.1
561.294,861.15
561.833,871.8
562.371,1212.7
562.91,874.1
563.449,871.55
563.987,918.7
564.525,887.35
565.064,881.65
565.602,880.15
566.14,947.9
566.678,904.3
567.216,880.5
567.753,878.9
568.291,877.1
568.828,879.45
569.366,878.05
569.903,880.55
570.44,884.95
570.977,890.15
571.514,975.75
572.051,909.1
572.588,893.7
573.125,891.7
573.661,892.15
574.198,899.45
574.734,894.55
575.271,900.7
575.807,931.55
576.343,982.1
576.879,955.45
577.415,938.6
577.951,926.9
578.486,925.8
579.022,933.1
579.557,941.4
580.093,950.75
580.628,955.55
581.164,966.45
581.699,975.2
582.234,982.45
582.769,996.45
583.304,1003.85
583.838,1011.05
584.373,1018.85
584.908,1029.7
585.442,1037.9
585.977,1043.85
586.511,1059.0
587.045,1062.6
587.58,1075.2
588.114,1084.0
588.648,1085.55
589.182,1098.3
589.715,1101.2
590.249,1109.05
590.783,1115.7
591.316,1119.95
591.85,1118.75
592.383,1117.1
592.917,1117.75
593.45,1126.05
593.983,1124.4
594.516,1125.65
595.049,1136.0
595.582,1137.3
596.115,1139.4
596.648,1157.85
597.18,1159.55
597.713,1163.25
598.245,1182.85
598.778,1189.4
599.31,1200.1
599.842,1202.15
600.375,1204.35
600.907,1205.2
601.439,1200.3
601.971,1202.3
602.503,1199.2
603.034,1189.85
603.566,1181.25
604.098,1169.4
604.629,1157.75
605.161,1137.35
605.692,1117.45
606.224,1107.8
606.755,1092.2
607.286,1084.55
607.817,1073.6
608.348,1063.15
608.879,1055.0
609.41,1050.85
609.941,1039.1
610.472,1035.25
611.002,1026.95
611.533,1026.0
612.063,1021.0
612.594,1014.1
613.124,1012.5
613.655,1012.2
614.185,1005.2
614.715,1004.0
615.245,999.95
615.775,997.6
616.305,996.05
616.835,991.2
617.365,997.65
617.895,1000.8
618.425,993.15
618.954,994.9
619.484,992.4
620.013,994.0
620.543,991.9
621.072,997.7
621.602,1001.9
622.131,1013.15
622.66,1011.15
623.189,994.4
623.718,987.1
624.247,984.8
624.776,987.55
625.305,987.05
625.834,992.15
626.363,1002.7
626.891,1161.6
627.42,1406.45
627.949,1238.2
628.477,1383.9
629.006,1290.35
629.534,1226.35
630.062,1158.4
630.591,1135.35
631.119,1048.25
631.647,1003.95
632.175,984.5
632.703,973.35
633.231,972.8
633.759,971.8
634.287,971.55
634.815,967.6
635.343,972.3
635.871,969.65
636.398,972.1
636.926,974.45
637.454,975.3
637.981,975.75
638.509,981.0
639.036,982.05
639.564,986.45
640.091,991.7
640.618,989.1
641.146,998.35
641.673,997.1
642.2,1003.6
642.727,1004.85
643.254,1006.35
643.781,1002.15
644.308,1004.4
644.835,1005.0
645.362,1003.5
645.889,1008.3
646.416,1006.25
646.942,1008.85
647.469,1006.55
647.996,1007.3
648.522,1006.1
649.049,1005.05
649.576,1012.15
650.102,1012.25
650.629,1003.95
651.155,1004.55
651.682,998.5
652.208,999.2
652.734,999.05
653.261,998.3
653.787,1001.5
654.313,997.9
654.839,992.45
655.365,988.0
655.892,987.05
656.418,986.6
656.944,985.25
657.47,985.5
657.996,976.2
658.522,974.4
659.048,970.4
659.574,973.0
660.099,964.55
660.625,963.05
661.151,957.05
661.677,952.25
662.203,948.35
662.728,945.6
663.123,945.0

File: VLFR_01-LDPE_bio_Raman_5bdce56f.csv
nm,Intensity
526.495,829.64
527.042,829.64
527.589,828.82
528.136,829.34
528.682,829.46
529.229,828.48
529.775,829.18
530.321,829.04
530.867,828.68
531.413,829.46
531.959,831.32
532.505,829.6
533.051,829.2
533.596,829.6
534.141,876.1
534.687,869.34
535.232,861.36
535.777,853.8
536.321,850.18
536.866,848.58
537.41,847.52
537.955,848.42
538.499,848.18
539.043,848.16
539.587,844.64
540.131,842.92
540.675,842.9
541.219,841.88
541.762,842.0
542.305,842.62
542.849,842.16
543.392,842.1
543.935,841.2
544.478,841.02
545.02,840.24
545.563,841.22
546.106,840.02
546.648,840.82
547.19,839.92
547.732,840.18
548.274,840.16
548.816,840.2
549.358,839.92
549.9,840.22
550.441,840.38
550.983,840.58
551.524,840.6
552.065,840.38
552.606,841.44
553.147,841.6
553.688,842.94
554.229,843.46
554.769,842.64
555.31,843.24
555.85,844.34
556.391,845.96
556.931,847.18
557.471,848.24
558.011,848.62
558.551,849.76
559.09,848.38
559.63,848.68
560.169,848.4
560.709,848.62
561.248,849.0
561.787,850.98
562.326,851.76
562.865,853.12
563.404,857.08
563.943,886.94
564.481,867.94
565.02,867.06
565.558,863.64
566.096,893.78
566.634,865.72
567.172,865.28
567.71,866.0
568.248,863.1
568.786,866.02
569.324,868.86
569.861,870.44
570.399,873.74
570.936,879.96
571.473,931.88
572.01,900.2
572.547,888.72
573.084,887.26
573.621,888.18
574.158,893.92
574.694,893.8
575.231,897.34
575.767,922.66
576.303,982.8
576.84,956.8
577.376,939.74
577.912,925.38
578.448,925.88
578.984,931.86
579.519,936.78
580.055,943.0
580.59,948.0
581.126,954.7
581.661,959.66
582.196,966.86
582.731,976.22
583.267,983.84
583.801,993.38
584.336,999.88
584.871,1004.66
585.406,1015.52
585.94,1024.88
586.475,1035.9
587.009,1046.54
587.543,1054.02
588.078,1062.38
588.612,1071.94
589.146,1079.5
589.68,1086.04
590.214,1095.02
590.747,1102.98
591.281,1107.64
591.815,1107.98
592.348,1110.22
592.881,1112.6
593.415,1113.46
593.948,1113.32
594.481,1115.56
595.014,1116.02
595.547,1121.98
596.08,1125.98
596.613,1130.98
597.146,1137.3
597.678,1145.38
598.211,1154.06
598.743,1159.94
599.276,1166.44
599.808,1168.46
600.34,1169.42
600.872,1164.0
601.404,1162.8
601.936,1159.98
602.468,1155.2
603.0,1148.7
603.532,1140.68
604.064,1129.72
604.595,1116.8
605.127,1100.92
605.658,1087.42
606.189,1077.84
606.721,1069.44
607.252,1059.5
607.783,1053.24
608.314,1046.16
608.845,1040.92
609.376,1032.8
609.907,1027.06
610.438,1023.5
610.968,1016.46
611.499,1014.08
612.029,1009.26
612.56,1008.46
613.09,1005.1
613.621,1002.76
614.151,1000.66
614.681,994.44
615.211,990.78
615.741,987.02
616.271,984.84
616.801,983.24
617.331,984.78
617.861,982.54
618.39,981.4
618.92,978.34
619.45,975.58
619.979,975.56
620.509,973.08
621.038,975.34
621.567,980.88
622.096,992.3
622.626,994.2
623.155,973.6
623.684,969.92
624.213,965.58
624.742,966.24
625.271,968.48
625.799,973.58
626.328,988.98
626.857,1140.6
627.386,1429.38
627.914,1244.16
628.443,1386.98
628.971,1270.56
629.5,1203.6
630.028,1139.62
630.556,1118.9
631.084,1042.88
631.613,997.14
632.141,978.66
632.669,971.76
633.197,965.78
633.725,966.54
634.253,964.14
634.781,966.38
635.308,966.68
635.836,967.28
636.364,968.34
636.891,969.68
637.419,970.2
637.947,970.42
638.474,971.56
639.002,974.54
639.529,976.04
640.056,977.54
640.584,979.16
641.111,981.86
641.638,981.72
642.165,983.18
642.692,985.08
643.219,983.52
643.746,984.6
644.273,984.84
644.8,984.76
645.327,985.32
645.854,985.64
646.381,985.84
646.908,983.64
647.434,986.52
647.961,986.88
648.488,986.36
649.014,984.04
649.541,980.88
650.067,983.34
650.594,982.24
651.12,984.18
651.646,983.62
652.173,985.2
652.699,982.0
653.225,984.36
653.752,984.32
654.278,983.18
654.804,982.6
655.33,980.04
655.856,981.1
656.382,978.3
656.908,977.0
657.434,974.06
657.96,970.52
658.486,969.36
659.012,962.74
659.538,963.36
660.064,959.14
660.589,953.72
661.115,947.16
661.641,941.52
662.166,939.38
662.692,936.06
663.086,932.14

File: VLFR_01-LDPE_bio_Raman_5be9db29.csv
nm,Intensity
526.547,832.85
527.095,832.9
527.642,833.15
528.189,832.55
528.736,833.5
529.283,832.7
529.829,832.1
530.376,832.2
530.922,832.4
531.468,832.9
532.014,839.9
532.56,832.4
533.106,833.2
533.651,834.1
534.196,946.45
534.742,931.5
535.287,912.85
535.832,891.15
536.376,885.95
536.921,880.3
537.465,880.35
538.01,875.5
538.554,873.55
539.098,868.0
539.642,864.2
540.186,863.45
540.729,862.8
541.273,859.85
541.816,861.9
542.36,861.0
542.903,859.25
543.446,858.7
543.988,857.6
544.531,858.8
545.074,857.5
545.616,856.15
546.158,857.15
546.701,855.65
547.243,856.95
547.785,854.9
548.326,856.15
548.868,853.9
549.41,854.45
549.951,853.7
550.492,853.7
551.034,854.65
551.575,854.95
552.116,857.2
552.656,856.55
553.197,859.15
553.738,860.2
554.278,860.3
554.819,862.1
555.359,863.65
555.899,865.9
556.439,866.35
556.979,871.35
557.519,872.3
558.058,876.65
558.598,878.25
559.137,876.25
559.677,872.6
560.216,875.15
560.755,874.6
561.294,876.15
561.833,879.8
562.371,883.9
562.91,888.8
563.449,896.65
563.987,989.95
564.525,924.05
565.064,913.45
565.602,908.0
566.14,1000.3
566.678,913.95
567.216,909.95
567.753,913.15
568.291,911.3
568.828,915.45
569.366,920.35
569.903,926.65
570.44,934.0
570.977,950.05
571.514,1114.0
572.051,1000.3
572.588,974.15
573.125,975.2
573.661,988.8
574.198,1004.05
574.734,1008.8
575.271,1029.1
575.807,1096.9
576.343,1259.25
576.879,1207.15
577.415,1176.95
577.951,1155.05
578.486,1182.45
579.022,1209.25
579.557,1241.9
580.093,1276.55
580.628,1310.15
581.164,1340.6
581.699,1371.0
582.234,1403.2
582.769,1432.65
583.304,1470.15
583.838,1499.3
584.373,1525.5
584.908,1556.05
585.442,1585.95
585.977,1627.45
586.511,1665.0
587.045,1718.95
587.58,1754.15
588.114,1795.7
588.648,1839.2
589.182,1870.5
589.715,1917.1
590.249,1971.5
590.783,2019.15
591.316,2046.35
591.85,2081.95
592.383,2093.95
592.917,2112.65
593.45,2120.0
593.983,2130.85
594.516,2145.8
595.049,2153.7
595.582,2180.05
596.115,2184.55
596.648,2213.05
597.18,2234.5
597.713,2246.8
598.245,2280.2
598.778,2306.25
599.31,2319.25
599.842,2324.3
600.375,2323.9
600.907,2302.45
601.439,2292.5
601.971,2272.0
602.503,2253.85
603.034,2224.25
603.566,2172.15
604.098,2126.7
604.629,2058.2
605.161,2001.6
605.692,1935.3
606.224,1886.2
606.755,1834.95
607.286,1803.0
607.817,1761.9
608.348,1735.5
608.879,1715.05
609.41,1673.2
609.941,1644.95
610.472,1613.65
611.002,1598.7
611.533,1584.15
612.063,1562.85
612.594,1544.95
613.124,1537.5
613.655,1523.3
614.185,1509.0
614.715,1488.1
615.245,1471.35
615.775,1454.7
616.305,1436.85
616.835,1434.65
617.365,1418.05
617.895,1405.5
618.425,1398.2
618.954,1383.15
619.484,1380.15
620.013,1369.2
620.543,1364.6
621.072,1361.05
621.602,1378.8
622.131,1404.25
622.66,1394.7
623.189,1352.4
623.718,1337.5
624.247,1338.1
624.776,1338.15
625.305,1335.75
625.834,1340.65
626.363,1385.4
626.891,1762.0
627.42,2297.95
627.949,1930.5
628.477,2317.55
629.006,1984.15
629.534,1847.35
630.062,1714.05
630.591,1685.45
631.119,1500.25
631.647,1415.05
632.175,1386.45
632.703,1374.75
633.231,1376.65
633.759,1375.35
634.287,1372.55
634.815,1377.15
635.343,1378.85
635.871,1386.6
636.398,1389.05
636.926,1398.4
637.454,1397.15
637.981,1401.65
638.509,1411.9
639.036,1414.45
639.564,1423.2
640.091,1431.95
640.618,1435.4
641.146,1442.5
641.673,1452.35
642.2,1457.9
642.727,1464.05
643.254,1470.25
643.781,1468.9
644.308,1476.5
644.835,1473.75
645.362,1469.25
645.889,1473.4
646.416,1467.35
646.942,1474.05
647.469,1479.45
647.996,1476.6
648.522,1478.25
649.049,1467.15
649.576,1460.1
650.102,1462.05
650.629,1457.25
651.155,1460.95
651.682,1460.0
652.208,1452.4
652.734,1453.2
653.261,1456.55
653.787,1457.2
654.313,1456.7
654.839,1449.15
655.365,1440.1
655.892,1431.5
656.418,1417.0
656.944,1413.2
657.47,1403.65
657.996,1381.85
658.522,1368.6
659.048,1353.8
659.574,1339.9
660.099,1320.25
660.625,1302.3
661.151,1283.0
661.677,1262.2
662.203,1244.0
662.728,1227.45
663.123,1215.95

File: VLFR_01-LDPE_bio_Raman_5f8294b7.csv
nm,Intensity
526.547,832.65
527.095,832.55
527.642,832.4
528.189,832.3
528.736,832.6
529.283,833.15
529.829,832.95
530.376,832.65
530.922,831.9
531.468,832.35
532.014,835.75
532.56,832.1
533.106,833.45
533.651,833.9
534.196,877.2
534.742,870.4
535.287,870.6
535.832,867.25
536.376,870.35
536.921,856.75
537.465,863.15
538.01,855.2
538.554,855.2
539.098,852.45
539.642,851.1
540.186,849.85
540.729,848.65
541.273,852.0
541.816,848.45
542.36,848.55
542.903,848.95
543.446,850.3
543.988,856.55
544.531,851.3
545.074,849.55
545.616,849.6
546.158,857.25
546.701,889.05
547.243,851.85
547.785,849.5
548.326,849.2
548.868,850.85
549.41,852.85
549.951,857.65
550.492,864.5
551.034,848.9
551.575,849.6
552.116,847.55
552.656,846.85
553.197,847.45
553.738,849.15
554.278,848.25
554.819,849.2
555.359,848.4
555.899,848.45
556.439,850.0
556.979,850.6
557.519,852.1
558.058,850.8
558.598,851.6
559.137,849.95
559.677,849.45
560.216,851.05
560.755,850.25
561.294,853.55
561.833,860.8
562.371,1128.5
562.91,858.95
563.449,858.45
563.987,882.05
564.525,866.0
565.064,863.5
565.602,863.9
566.14,903.95
566.678,881.15
567.216,865.45
567.753,864.5
568.291,866.15
568.828,867.15
569.366,867.2
569.903,870.95
570.44,875.95
570.977,879.0
571.514,933.55
572.051,891.95
572.588,885.85
573.125,885.7
573.661,888.05
574.198,891.5
574.734,894.25
575.271,901.65
575.807,922.6
576.343,957.95
576.879,949.75
577.415,940.7
577.951,936.7
578.486,947.9
579.022,955.9
579.557,966.7
580.093,976.8
580.628,985.2
581.164,994.55
581.699,1001.35
582.234,1010.65
582.769,1019.4
583.304,1025.25
583.838,1030.2
584.373,1034.6
584.908,1044.3
585.442,1046.45
585.977,1058.25
586.511,1066.75
587.045,1080.9
587.58,1082.0
588.114,1094.6
588.648,1109.85
589.182,1122.5
589.715,1133.5
590.249,1154.75
590.783,1168.3
591.316,1178.45
591.85,1191.15
592.383,1199.1
592.917,1201.1
593.45,1207.8
593.983,1213.1
594.516,1210.9
595.049,1220.5
595.582,1226.5
596.115,1229.0
596.648,1226.55
597.18,1229.0
597.713,1231.25
598.245,1235.7
598.778,1248.4
599.31,1245.35
599.842,1246.2
600.375,1243.45
600.907,1234.65
601.439,1234.85
601.971,1226.3
602.503,1217.75
603.034,1212.25
603.566,1198.05
604.098,1183.75
604.629,1165.45
605.161,1151.7
605.692,1138.4
606.224,1124.75
606.755,1116.2
607.286,1103.9
607.817,1098.6
608.348,1091.15
608.879,1085.1
609.41,1079.55
609.941,1070.7
610.472,1066.8
611.002,1064.4
611.533,1056.15
612.063,1059.25
612.594,1052.05
613.124,1053.6
613.655,1052.2
614.185,1042.55
614.715,1044.9
615.245,1040.35
615.775,1034.85
616.305,1030.4
616.835,1027.6
617.365,1025.65
617.895,1019.6
618.425,1020.55
618.954,1011.0
619.484,1008.55
620.013,1006.5
620.543,1002.0
621.072,1002.35
621.602,1001.1
622.131,1007.95
622.66,1001.65
623.189,994.85
623.718,995.45
624.247,990.0
624.776,987.85
625.305,990.25
625.834,993.6
626.363,998.85
626.891,1076.3
627.42,1208.15
627.949,1121.85
628.477,1201.95
629.006,1153.85
629.534,1120.35
630.062,1094.1
630.591,1084.8
631.119,1040.4
631.647,1019.05
632.175,1013.75
632.703,1011.7
633.231,1008.0
633.759,1008.7
634.287,1012.5
634.815,1010.5
635.343,1014.2
635.871,1015.85
636.398,1014.15
636.926,1014.8
637.454,1015.15
637.981,1018.9
638.509,1023.95
639.036,1024.0
639.564,1027.2
640.091,1029.55
640.618,1029.0
641.146,1034.15
641.673,1034.9
642.2,1036.5
642.727,1037.8
643.254,1037.55
643.781,1041.55
644.308,1036.0
644.835,1039.2
645.362,1040.35
645.889,1043.75
646.416,1040.55
646.942,1040.2
647.469,1037.85
647.996,1036.15
648.522,1035.45
649.049,1039.75
649.576,1048.15
650.102,1049.8
650.629,1033.55
651.155,1030.4
651.682,1028.85
652.208,1019.3
652.734,1021.55
653.261,1021.8
653.787,1018.3
654.313,1020.2
654.839,1015.9
655.365,1016.25
655.892,1007.45
656.418,1008.0
656.944,1005.85
657.47,1004.6
657.996,1000.15
658.522,993.95
659.048,989.75
659.574,987.3
660.099,984.15
660.625,977.2
661.151,973.1
661.677,968.3
662.203,965.05
662.728,957.75
663.123,951.7

File: VLFR_01-LDPE_bio_Raman_6e77e23d.csv
nm,Intensity
528.65,1837.9
529.155,1837.4
529.66,1838.45
530.165,1837.35
530.67,1836.9
531.175,1838.05
531.68,1849.75
532.185,2178.3
532.69,1839.05
533.194,1838.25
533.699,1929.6
534.204,2075.8
534.708,2046.7
535.213,2028.6
535.717,1997.65
536.222,1975.45
536.726,1967.55
537.231,1971.15
537.735,1966.15
538.239,1959.0
538.743,1948.5
539.247,1939.35
539.751,1925.55
540.255,1926.7
540.759,1930.1
541.263,1923.3
541.767,1927.2
542.271,1921.85
542.775,1925.1
543.279,1922.3
543.782,1930.55
544.286,1933.3
544.789,1944.7
545.293,1978.2
545.796,2046.1
546.3,2010.8
546.803,1954.75
547.306,1929.3
547.81,1925.55
548.313,1922.65
548.816,1922.25
549.319,1931.95
549.822,1952.85
550.325,1953.8
550.828,1979.7
551.331,1938.6
551.834,1931.9
552.337,1924.15
552.839,1927.45
553.342,1941.2
553.844,1938.9
554.347,1940.6
554.849,1944.8
555.352,1946.15
555.854,1950.35
556.357,1959.2
556.859,1964.6
557.361,1972.4
557.863,1986.8
558.365,1996.15
558.867,1987.95
559.369,1970.4
559.871,1970.45
560.373,1974.0
560.875,1977.85
561.377,2002.0
561.878,2209.25
562.38,2694.15
562.881,2090.9
563.383,2035.55
563.884,2304.0
564.386,2142.45
564.887,2105.0
565.388,2078.5
565.89,2311.15
566.391,2238.5
566.892,2060.95
567.393,2055.35
567.894,2027.9
568.395,2019.25
568.896,2024.3
569.396,2026.4
569.897,2023.1
570.398,2057.55
570.898,2081.35
571.399,2524.9
571.9,2228.1
572.4,2100.15
572.9,2072.3
573.401,2067.75
573.901,2111.05
574.401,2083.0
574.901,2090.9
575.401,2337.3
575.901,2378.15
576.401,2534.35
576.901,2439.2
577.401,2258.6
577.901,2202.7
578.4,2194.9
578.9,2229.3
579.399,2254.4
579.899,2269.75
580.398,2293.6
580.898,2321.35
581.397,2363.95
581.896,2383.9
582.395,2390.35
582.895,2439.4
583.394,2460.95
583.893,2482.8
584.391,2492.5
584.89,2510.2
585.389,2529.05
585.888,2565.35
586.386,2594.35
586.885,2621.95
587.384,2614.3
587.882,2680.85
588.38,2701.1
588.879,2732.1
589.377,2731.5
589.875,2784.1
590.373,2835.25
590.871,2850.65
591.369,2888.25
591.867,2916.0
592.365,2932.55
592.863,2999.15
593.361,2954.05
593.858,2984.6
594.356,3049.95
594.853,3035.5
595.351,3094.45
595.848,3128.0
596.345,3151.5
596.843,3211.15
597.34,3278.45
597.837,3288.3
598.334,3310.05
598.831,3376.8
599.328,3416.15
599.824,3420.45
600.321,3439.7
600.818,3471.15
601.314,3447.1
601.811,3475.2
602.307,3428.1
602.804,3381.9
603.3,3376.0
603.796,3315.1
604.293,3286.15
604.789,3257.6
605.285,3205.0
605.781,3121.85
606.277,3083.45
606.772,3057.1
607.268,3005.9
607.764,2976.4
608.259,2926.1
608.755,2863.45
609.25,2857.6
609.746,2859.45
610.241,2788.9
610.736,2804.4
611.231,2787.9
611.727,2734.1
612.222,2732.75
612.716,2716.5
613.211,2666.0
613.706,2652.1
614.201,2668.2
614.695,2625.4
615.19,2611.8
615.684,2602.9
616.179,2597.45
616.673,2557.2
617.168,2584.65
617.662,2566.55
618.156,2542.15
618.65,2524.0
619.144,2526.5
619.638,2549.5
620.131,2497.75
620.625,2530.3
621.119,2526.0
621.612,2564.85
622.106,2603.15
622.599,2588.5
623.093,2486.3
623.586,2466.15
624.079,2468.4
624.572,2444.65
625.065,2471.1
625.558,2471.85
626.051,2532.65
626.544,2818.4
627.037,4414.55
627.529,4308.65
628.022,3800.65
628.514,4730.15
629.007,4086.75
629.499,3709.45
629.991,3475.55
630.483,3295.6
630.976,2904.7
631.468,2613.75
631.959,2529.95
632.451,2464.95
632.943,2435.85
633.435,2426.2
633.926,2422.25
634.418,2424.85
634.909,2419.6
635.401,2426.45
635.892,2419.4
636.383,2409.35
636.874,2422.5
637.365,2416.2
637.856,2418.8
638.347,2406.75
638.838,2424.3
639.329,2425.95
639.819,2423.55
640.31,2408.8
640.8,2432.0
641.291,2452.6
641.781,2443.35
642.271,2447.35
642.761,2432.05
643.251,2437.75
643.741,2440.6
644.231,2451.05
644.721,2458.8
645.211,2469.9
645.7,2457.65
646.19,2432.55
646.679,2434.8
647.169,2454.0
647.658,2462.15
648.147,2451.25
648.636,2459.65
649.125,2440.65
649.614,2445.75
650.103,2446.5
650.592,2457.8
651.08,2433.5
651.569,2458.5
652.058,2453.3
652.546,2421.45
653.034,2438.4
653.523,2431.35
654.011,2425.15
654.499,2435.05
654.987,2430.8
655.475,2419.75
655.963,2427.35
656.45,2383.4
656.938,2371.8
657.425,2388.6
657.913,2357.25
658.4,2353.85
658.888,2323.2
659.375,2319.85
659.862,2292.55
660.349,2296.15
660.836,2243.1
661.079,2257.0

File: VLFR_01-LDPE_bio_Raman_6f06478a.csv
nm,Intensity
526.495,828.5
527.042,828.1
527.589,829.2
528.136,828.0
528.682,829.7
529.229,829.8
529.775,828.5
530.321,828.4
530.867,827.3
531.413,828.8
531.959,833.5
532.505,828.6
533.051,827.8
533.596,828.2
534.141,895.3
534.687,885.4
535.232,873.7
535.777,863.4
536.321,861.6
536.866,857.2
537.41,857.5
537.955,856.9
538.499,855.3
539.043,855.4
539.587,851.0
540.131,849.9
540.675,849.8
541.219,849.2
541.762,850.1
542.305,849.5
542.849,848.5
543.392,849.1
543.935,844.3
544.478,846.4
545.02,844.6
545.563,846.4
546.106,843.6
546.648,845.7
547.19,842.9
547.732,844.6
548.274,846.8
548.816,845.3
549.358,844.2
549.9,843.1
550.441,844.2
550.983,843.3
551.524,843.6
552.065,843.4
552.606,845.8
553.147,842.1
553.688,847.2
554.229,848.2
554.769,845.7
555.31,847.0
555.85,847.6
556.391,848.2
556.931,850.5
557.471,851.5
558.011,855.8
558.551,854.2
559.09,851.8
559.63,850.0
560.169,848.6
560.709,851.5
561.248,849.6
561.787,851.3
562.326,851.6
562.865,856.4
563.404,856.7
563.943,896.1
564.481,869.1
565.02,865.8
565.558,861.5
566.096,905.9
566.634,865.9
567.172,860.8
567.71,865.3
568.248,858.5
568.786,857.0
569.324,861.8
569.861,865.5
570.399,868.3
570.936,876.9
571.473,938.1
572.01,897.9
572.547,882.5
573.084,878.7
573.621,880.0
574.158,891.6
574.694,884.7
575.231,892.3
575.767,922.2
576.303,996.5
576.84,963.2
577.376,943.3
577.912,921.0
578.448,919.6
578.984,929.0
579.519,936.4
580.055,939.5
580.59,946.8
581.126,948.6
581.661,958.6
582.196,966.2
582.731,975.9
583.267,983.3
583.801,996.0
584.336,996.6
584.871,1007.0
585.406,1016.0
585.94,1032.1
586.475,1040.6
587.009,1064.6
587.543,1074.2
588.078,1090.2
588.612,1107.8
589.146,1120.9
589.68,1137.1
590.214,1154.4
590.747,1173.1
591.281,1193.6
591.815,1204.4
592.348,1205.3
592.881,1217.7
593.415,1238.1
593.948,1254.3
594.481,1269.9
595.014,1278.9
595.547,1291.2
596.08,1319.1
596.613,1332.7
597.146,1349.7
597.678,1364.1
598.211,1392.3
598.743,1406.8
599.276,1419.2
599.808,1428.8
600.34,1427.4
600.872,1437.2
601.404,1434.0
601.936,1418.4
602.468,1410.2
603.0,1399.3
603.532,1387.1
604.064,1375.2
604.595,1334.1
605.127,1317.6
605.658,1284.1
606.189,1265.6
606.721,1236.4
607.252,1231.9
607.783,1215.8
608.314,1195.9
608.845,1182.5
609.376,1177.0
609.907,1158.7
610.438,1152.3
610.968,1144.8
611.499,1141.6
612.029,1127.2
612.56,1127.5
613.09,1121.4
613.621,1113.8
614.151,1112.8
614.681,1102.7
615.211,1091.6
615.741,1088.9
616.271,1084.3
616.801,1083.4
617.331,1076.9
617.861,1083.3
618.39,1069.9
618.92,1066.2
619.45,1068.3
619.979,1057.6
620.509,1050.7
621.038,1050.7
621.567,1056.1
622.096,1079.6
622.626,1067.4
623.155,1047.0
623.684,1034.1
624.213,1031.8
624.742,1030.2
625.271,1039.4
625.799,1033.7
626.328,1054.8
626.857,1256.1
627.386,1630.1
627.914,1387.6
628.443,1575.3
628.971,1420.9
629.5,1325.5
630.028,1244.0
630.556,1224.8
631.084,1109.4
631.613,1048.8
632.141,1033.0
632.669,1026.1
633.197,1015.4
633.725,1013.7
634.253,1016.5
634.781,1014.5
635.308,1018.5
635.836,1017.5
636.364,1019.5
636.891,1019.5
637.419,1023.1
637.947,1024.4
638.474,1027.9
639.002,1034.6
639.529,1036.6
640.056,1038.8
640.584,1038.8
641.111,1046.9
641.638,1056.0
642.165,1052.7
642.692,1047.7
643.219,1060.3
643.746,1054.2
644.273,1063.9
644.8,1065.0
645.327,1064.2
645.854,1066.7
646.381,1068.0
646.908,1067.3
647.434,1070.9
647.961,1082.1
648.488,1077.5
649.014,1071.7
649.541,1080.2
650.067,1082.2
650.594,1081.6
651.12,1077.8
651.646,1081.2
652.173,1082.7
652.699,1079.7
653.225,1087.7
653.752,1088.2
654.278,1084.6
654.804,1086.0
655.33,1080.9
655.856,1079.8
656.382,1081.4
656.908,1070.9
657.434,1068.8
657.96,1060.1
658.486,1057.5
659.012,1048.9
659.538,1043.7
660.064,1038.5
660.589,1029.0
661.115,1017.2
661.641,1008.6
662.166,1000.1
662.692,996.9
663.086,989.3