Folder: MPX_specDB/spectra (part 133)

File: VLFR_08-PLA_bio_Raman_314abfa4.csv
nm,Intensity
528.626,1864.9
529.132,1862.7
529.637,1864.6
530.143,1863.5
530.648,1865.3
531.153,1867.4
531.658,1908.8
532.164,4725.6
532.669,1866.9
533.174,1867.9
533.679,2095.2
534.184,2768.6
534.689,2742.1
535.194,2742.6
535.699,2751.4
536.203,2729.2
536.708,2699.4
537.213,2713.9
537.717,2755.9
538.222,2733.7
538.726,2730.6
539.231,2770.7
539.735,2684.9
540.239,2718.5
540.744,2758.5
541.248,2762.8
541.752,2782.9
542.256,2795.2
542.76,2788.3
543.264,2840.5
543.768,2889.4
544.272,2837.8
544.776,2803.7
545.28,2832.7
545.784,2845.4
546.287,2793.6
546.791,2831.3
547.294,2856.1
547.798,2850.7
548.301,2874.3
548.805,2887.3
549.308,2929.1
549.811,2912.3
550.315,2897.1
550.818,2968.0
551.321,2979.4
551.824,3030.7
552.327,3045.7
552.83,2964.6
553.333,2969.4
553.835,3015.0
554.338,3014.7
554.841,3005.8
555.343,3005.2
555.846,3023.3
556.349,3002.5
556.851,3001.5
557.353,3066.8
557.856,3280.6
558.358,3181.7
558.86,3030.2
559.362,3045.7
559.864,3067.2
560.366,3029.7
560.868,3089.5
561.37,3059.9
561.872,3083.6
562.374,3082.4
562.876,3165.2
563.377,3229.3
563.879,3154.8
564.38,3148.4
564.882,3230.8
565.383,3221.6
565.885,3192.6
566.386,3206.4
566.887,3172.0
567.388,3173.7
567.889,3210.1
568.391,3186.7
568.892,3211.7
569.392,3239.8
569.893,3248.3
570.394,3233.5
570.895,3194.5
571.395,3323.1
571.896,3355.4
572.397,3331.9
572.897,3328.4
573.397,3315.0
573.898,3347.8
574.398,3311.1
574.898,3277.3
575.398,3273.5
575.898,3274.8
576.398,3360.2
576.898,3502.3
577.398,3314.0
577.898,3274.7
578.398,3242.4
578.897,3255.1
579.397,3291.5
579.896,3279.5
580.396,3267.4
580.895,3296.5
581.395,3265.6
581.894,3307.1
582.393,3288.3
582.892,3288.2
583.391,3268.5
583.89,3270.5
584.389,3271.3
584.888,3282.0
585.387,3290.8
585.886,3274.1
586.384,3260.1
586.883,3361.4
587.381,3409.0
587.88,3377.1
588.378,3271.6
588.876,3174.7
589.375,3204.6
589.873,3211.1
590.371,3213.0
590.869,3257.2
591.367,3241.8
591.865,3254.7
592.363,3240.1
592.86,3237.0
593.358,3233.8
593.856,3283.6
594.353,3205.1
594.851,3172.0
595.348,3236.2
595.845,3235.1
596.342,3253.2
596.84,3257.6
597.337,3284.2
597.834,3226.1
598.331,3266.9
598.828,3213.3
599.324,3272.5
599.821,3221.6
600.318,3260.0
600.814,3240.9
601.311,3252.7
601.807,3246.9
602.304,3265.6
602.8,3275.8
603.296,3304.1
603.792,3262.7
604.288,3261.6
604.784,3288.7
605.28,3270.2
605.776,3284.0
606.272,3260.0
606.767,3257.9
607.263,3307.9
607.759,3245.3
608.254,3265.5
608.749,3260.4
609.245,3257.9
609.74,3280.6
610.235,3242.3
610.73,3285.0
611.225,3298.4
611.72,3226.3
612.215,3234.5
612.71,3249.9
613.204,3261.8
613.699,3189.0
614.194,3272.6
614.688,3225.4
615.182,3222.4
615.677,3264.5
616.171,3216.5
616.665,3270.5
617.159,3200.1
617.653,3247.1
618.147,3279.9
618.641,3218.4
619.135,3200.1
619.628,3227.4
620.122,3232.4
620.615,3256.8
621.109,3248.3
621.602,3201.7
622.095,3216.3
622.589,3218.6
623.082,3273.5
623.575,3233.4
624.068,3234.5
624.561,3176.1
625.053,3179.6
625.546,3210.9
626.039,3199.4
626.531,3198.5
627.024,3161.5
627.516,3163.8
628.008,3200.2
628.501,3333.4
628.993,3283.4
629.485,3329.9
629.977,3272.2
630.469,3411.9
630.96,4050.1
631.452,3727.8
631.944,3431.9
632.435,3370.4
632.927,3493.6
633.418,3536.6
633.91,3352.6
634.401,3198.9
634.892,3131.3
635.383,3094.1
635.874,3045.3
636.365,3038.9
636.856,3072.6
637.346,3072.4
637.837,3069.7
638.327,3021.1
638.818,2997.9
639.308,3008.5
639.799,2983.7
640.289,2998.2
640.779,2954.7
641.269,2937.8
641.759,2927.2
642.249,2934.8
642.738,2942.8
643.228,2891.0
643.718,2910.3
644.207,2928.4
644.697,2891.3
645.186,2871.5
645.675,2874.6
646.164,2853.1
646.653,2843.2
647.142,2823.9
647.631,2815.6
648.12,2809.6
648.609,2829.4
649.098,2762.9
649.586,2770.5
650.075,2719.6
650.563,2759.1
651.051,2739.4
651.539,2722.8
652.027,2755.5
652.515,2708.0
653.003,2710.8
653.491,2674.6
653.979,2688.7
654.467,2652.5
654.954,2646.5
655.442,2671.1
655.929,2613.0
656.416,2520.3
656.904,2584.4
657.391,2560.0
657.878,2597.9
658.365,2589.5
658.851,2589.3
659.338,2557.4
659.825,2540.4
660.311,2538.5
660.798,2548.3
661.041,2551.6

File: VLFR_08-PLA_bio_Raman_563df008.csv
nm,Intensity
526.495,829.6
527.042,829.34
527.589,829.52
528.136,829.98
528.682,829.56
529.229,828.84
529.775,829.2
530.321,829.96
530.867,830.08
531.413,829.26
531.959,841.48
532.505,831.86
533.051,828.86
533.596,830.82
534.141,990.74
534.687,974.82
535.232,946.92
535.777,931.14
536.321,914.5
536.866,904.3
537.41,896.98
537.955,892.26
538.499,890.06
539.043,888.02
539.587,886.44
540.131,884.68
540.675,887.08
541.219,887.06
541.762,886.38
542.305,885.54
542.849,884.8
543.392,889.14
543.935,890.86
544.478,890.14
545.02,888.38
545.563,890.08
546.106,889.9
546.648,889.8
547.19,892.6
547.732,893.1
548.274,891.58
548.816,893.64
549.358,895.8
549.9,893.94
550.441,894.92
550.983,897.7
551.524,896.18
552.065,898.0
552.606,898.7
553.147,899.7
553.688,901.86
554.229,902.44
554.769,901.84
555.31,902.24
555.85,901.6
556.391,903.68
556.931,905.32
557.471,913.02
558.011,919.28
558.551,912.02
559.09,909.44
559.63,909.56
560.169,913.56
560.709,910.98
561.248,910.98
561.787,908.86
562.326,914.6
562.865,915.52
563.404,917.44
563.943,920.72
564.481,918.26
565.02,920.28
565.558,920.82
566.096,926.52
566.634,919.22
567.172,918.08
567.71,920.22
568.248,920.5
568.786,925.06
569.324,925.72
569.861,930.2
570.399,929.86
570.936,934.18
571.473,937.72
572.01,938.44
572.547,937.18
573.084,937.28
573.621,935.34
574.158,933.88
574.694,937.02
575.231,936.46
575.767,936.5
576.303,947.22
576.84,953.46
577.376,940.72
577.912,933.98
578.448,930.16
578.984,933.28
579.519,935.32
580.055,933.92
580.59,935.76
581.126,935.3
581.661,934.66
582.196,939.0
582.731,941.88
583.267,954.5
583.801,948.84
584.336,938.28
584.871,934.1
585.406,928.64
585.94,929.08
586.475,929.54
587.009,935.46
587.543,933.72
588.078,931.8
588.612,930.1
589.146,927.78
589.68,928.88
590.214,929.18
590.747,929.62
591.281,928.88
591.815,927.7
592.348,929.5
592.881,930.0
593.415,931.28
593.948,929.14
594.481,930.1
595.014,931.84
595.547,932.28
596.08,933.5
596.613,933.82
597.146,933.28
597.678,932.5
598.211,933.0
598.743,936.24
599.276,934.6
599.808,933.38
600.34,934.64
600.872,934.02
601.404,934.76
601.936,935.78
602.468,935.56
603.0,937.12
603.532,935.84
604.064,937.36
604.595,936.98
605.127,935.78
605.658,934.76
606.189,933.92
606.721,933.14
607.252,935.72
607.783,935.3
608.314,938.06
608.845,937.78
609.376,936.6
609.907,936.42
610.438,937.26
610.968,936.84
611.499,937.62
612.029,938.56
612.56,940.86
613.09,941.46
613.621,942.72
614.151,942.52
614.681,943.72
615.211,943.8
615.741,940.62
616.271,942.24
616.801,944.0
617.331,943.76
617.861,943.62
618.39,943.78
618.92,943.32
619.45,944.96
619.979,943.88
620.509,944.86
621.038,942.9
621.567,944.7
622.096,946.56
622.626,950.38
623.155,948.0
623.684,946.66
624.213,947.46
624.742,946.56
625.271,944.62
625.799,946.06
626.328,948.92
626.857,961.8
627.386,991.74
627.914,991.24
628.443,1013.68
628.971,1012.5
629.5,1013.0
630.028,1021.58
630.556,1039.1
631.084,1059.76
631.613,1017.5
632.141,992.84
632.669,979.18
633.197,976.34
633.725,968.26
634.253,955.7
634.781,947.5
635.308,947.14
635.836,951.6
636.364,945.7
636.891,942.68
637.419,941.0
637.947,938.86
638.474,940.02
639.002,939.26
639.529,941.5
640.056,939.26
640.584,941.22
641.111,939.26
641.638,939.26
642.165,938.04
642.692,938.28
643.219,939.68
643.746,938.54
644.273,940.24
644.8,941.74
645.327,940.36
645.854,939.14
646.381,938.14
646.908,937.4
647.434,936.38
647.961,934.78
648.488,936.74
649.014,934.2
649.541,932.76
650.067,933.18
650.594,931.02
651.12,929.46
651.646,930.64
652.173,929.22
652.699,929.84
653.225,928.58
653.752,928.9
654.278,928.62
654.804,924.74
655.33,926.98
655.856,925.64
656.382,926.1
656.908,925.1
657.434,924.84
657.96,925.48
658.486,925.18
659.012,925.78
659.538,924.16
660.064,925.48
660.589,926.08
661.115,924.36
661.641,922.28
662.166,922.62
662.692,922.32
663.086,920.94

File: VLFR_08-PLA_bio_Raman_576c8f94.csv
nm,Intensity
528.626,1862.5
529.132,1862.7
529.637,1864.1
530.143,1864.6
530.648,1864.8
531.153,1866.6
531.658,1921.0
532.164,4921.3
532.669,1867.1
533.174,1868.5
533.679,2157.3
534.184,2985.3
534.689,2782.1
535.194,2658.8
535.699,2556.3
536.203,2513.1
536.708,2552.6
537.213,2454.0
537.717,2478.7
538.222,2393.4
538.726,2386.4
539.231,2404.5
539.735,2329.0
540.239,2352.8
540.744,2463.2
541.248,2457.7
541.752,2398.9
542.256,2373.9
542.76,2400.3
543.264,2487.5
543.768,2612.6
544.272,2481.8
544.776,2368.5
545.28,2370.1
545.784,2355.6
546.287,2338.9
546.791,2364.2
547.294,2377.9
547.798,2374.5
548.301,2379.7
548.805,2383.8
549.308,2391.8
549.811,2388.4
550.315,2403.1
550.818,2440.8
551.321,2459.2
551.824,2480.1
552.327,2462.4
552.83,2480.3
553.333,2460.6
553.835,2516.3
554.338,2498.2
554.841,2501.1
555.343,2427.4
555.846,2422.3
556.349,2420.3
556.851,2457.7
557.353,2549.9
557.856,3184.0
558.358,2965.7
558.86,2578.7
559.362,2545.0
559.864,2513.7
560.366,2500.6
560.868,2501.5
561.37,2468.2
561.872,2489.9
562.374,2510.9
562.876,2599.9
563.377,2780.7
563.879,2642.3
564.38,2571.9
564.882,2701.6
565.383,2708.5
565.885,2844.3
566.386,2804.1
566.887,2550.3
567.388,2554.9
567.889,2637.2
568.391,2596.6
568.892,2591.4
569.392,2597.0
569.893,2578.7
570.394,2581.8
570.895,2592.5
571.395,2714.2
571.896,2774.4
572.397,2730.0
572.897,2702.3
573.397,2746.1
573.898,2715.5
574.398,2718.1
574.898,2656.4
575.398,2626.3
575.898,2639.3
576.398,2918.0
576.898,3150.1
577.398,2767.4
577.898,2638.6
578.398,2612.8
578.897,2618.1
579.397,2594.7
579.896,2623.6
580.396,2620.4
580.895,2645.6
581.395,2611.6
581.894,2638.9
582.393,2637.0
582.892,2634.1
583.391,2633.3
583.89,2629.3
584.389,2626.1
584.888,2635.3
585.387,2610.6
585.886,2635.8
586.384,2719.3
586.883,2954.5
587.381,3110.1
587.88,2902.4
588.378,2674.3
588.876,2587.9
589.375,2603.3
589.873,2595.1
590.371,2625.6
590.869,2617.6
591.367,2610.9
591.865,2614.4
592.363,2609.0
592.86,2633.8
593.358,2633.4
593.856,2615.7
594.353,2616.4
594.851,2650.1
595.348,2626.4
595.845,2634.2
596.342,2653.4
596.84,2639.6
597.337,2645.1
597.834,2663.6
598.331,2654.6
598.828,2686.7
599.324,2683.8
599.821,2642.1
600.318,2672.0
600.814,2661.5
601.311,2688.3
601.807,2694.0
602.304,2679.9
602.8,2742.2
603.296,2677.6
603.792,2690.7
604.288,2696.9
604.784,2716.5
605.28,2687.0
605.776,2702.8
606.272,2715.0
606.767,2744.9
607.263,2718.6
607.759,2698.8
608.254,2732.1
608.749,2731.6
609.245,2726.0
609.74,2758.8
610.235,2742.6
610.73,2755.0
611.225,2760.7
611.72,2765.7
612.215,2747.4
612.71,2750.3
613.204,2759.8
613.699,2736.8
614.194,2763.4
614.688,2779.7
615.182,2735.1
615.677,2752.3
616.171,2752.8
616.665,2771.1
617.159,2805.6
617.653,2832.8
618.147,2764.4
618.641,2778.7
619.135,2811.9
619.628,2799.2
620.122,2797.2
620.615,2799.6
621.109,2795.9
621.602,2803.3
622.095,2809.7
622.589,2883.2
623.082,2887.5
623.575,2843.5
624.068,2812.8
624.561,2785.2
625.053,2800.4
625.546,2772.7
626.039,2764.9
626.531,2822.2
627.024,2796.2
627.516,2777.6
628.008,2981.2
628.501,3389.5
628.993,3218.1
629.485,3224.3
629.977,3279.6
630.469,3745.3
630.96,6170.3
631.452,5050.5
631.944,3858.9
632.435,3561.9
632.927,4051.6
633.418,4188.0
633.91,3600.6
634.401,3101.6
634.892,2863.8
635.383,2747.3
635.874,2708.6
636.365,2690.3
636.856,2657.1
637.346,2673.8
637.837,2649.1
638.327,2651.7
638.818,2604.2
639.308,2626.3
639.799,2618.4
640.289,2613.9
640.779,2581.9
641.269,2585.9
641.759,2598.8
642.249,2594.4
642.738,2606.6
643.228,2539.6
643.718,2543.2
644.207,2564.5
644.697,2528.0
645.186,2546.4
645.675,2515.3
646.164,2485.8
646.653,2508.1
647.142,2485.2
647.631,2473.4
648.12,2475.7
648.609,2455.4
649.098,2453.2
649.586,2423.8
650.075,2438.6
650.563,2446.7
651.051,2445.4
651.539,2418.4
652.027,2424.2
652.515,2399.4
653.003,2390.2
653.491,2375.3
653.979,2383.0
654.467,2355.2
654.954,2367.8
655.442,2348.5
655.929,2338.4
656.416,2335.1
656.904,2316.4
657.391,2311.6
657.878,2337.6
658.365,2304.3
658.851,2314.6
659.338,2311.4
659.825,2306.3
660.311,2313.0
660.798,2274.3
661.041,2308.3

File: VLFR_08-PLA_bio_Raman_0619c01f.csv
nm,Intensity
526.547,831.95
527.095,832.65
527.642,832.1
528.189,830.55
528.736,831.85
529.283,831.5
529.829,831.9
530.376,831.6
530.922,832.15
531.468,832.0
532.014,839.75
532.56,831.75
533.106,832.45
533.651,832.6
534.196,923.25
534.742,913.2
535.287,900.9
535.832,898.1
536.376,897.25
536.921,898.8
537.465,896.3
538.01,895.15
538.554,891.95
539.098,890.75
539.642,889.9
540.186,890.25
540.729,893.85
541.273,896.15
541.816,894.55
542.36,893.15
542.903,894.1
543.446,899.95
543.988,905.8
544.531,906.25
545.074,905.15
545.616,911.6
546.158,926.75
546.701,910.9
547.243,901.4
547.785,900.55
548.326,900.15
548.868,901.3
549.41,904.45
549.951,910.4
550.492,909.65
551.034,917.2
551.575,914.05
552.116,909.8
552.656,907.55
553.197,908.7
553.738,912.9
554.278,911.7
554.819,911.1
555.359,909.25
555.899,908.85
556.439,906.45
556.979,913.25
557.519,916.0
558.058,952.2
558.598,919.7
559.137,918.7
559.677,918.3
560.216,914.75
560.755,919.9
561.294,918.0
561.833,943.15
562.371,1090.65
562.91,949.0
563.449,935.95
563.987,929.15
564.525,928.85
565.064,932.7
565.602,934.35
566.14,950.3
566.678,938.95
567.216,930.45
567.753,930.25
568.291,931.95
568.828,932.0
569.366,933.75
569.903,932.0
570.44,931.6
570.977,932.1
571.514,936.3
572.051,938.95
572.588,936.25
573.125,937.1
573.661,941.25
574.198,941.45
574.734,943.6
575.271,938.05
575.807,937.0
576.343,945.65
576.879,960.55
577.415,944.8
577.951,938.65
578.486,941.45
579.022,939.7
579.557,943.1
580.093,941.6
580.628,941.4
581.164,938.45
581.699,943.9
582.234,943.2
582.769,945.75
583.304,943.05
583.838,949.9
584.373,947.25
584.908,945.15
585.442,948.5
585.977,945.6
586.511,955.05
587.045,968.5
587.58,972.85
588.114,958.2
588.648,950.75
589.182,953.65
589.715,948.05
590.249,953.6
590.783,950.85
591.316,951.6
591.85,954.0
592.383,952.25
592.917,948.5
593.45,950.25
593.983,953.05
594.516,956.25
595.049,956.5
595.582,953.2
596.115,954.3
596.648,959.45
597.18,955.7
597.713,954.75
598.245,959.4
598.778,957.1
599.31,956.1
599.842,953.9
600.375,956.9
600.907,955.4
601.439,956.95
601.971,954.8
602.503,957.75
603.034,957.95
603.566,957.1
604.098,961.55
604.629,957.9
605.161,959.15
605.692,956.75
606.224,952.7
606.755,955.25
607.286,954.75
607.817,956.55
608.348,956.25
608.879,957.4
609.41,955.35
609.941,957.15
610.472,956.65
611.002,954.85
611.533,957.05
612.063,957.55
612.594,957.1
613.124,963.05
613.655,961.4
614.185,959.25
614.715,959.8
615.245,960.05
615.775,959.55
616.305,960.9
616.835,960.95
617.365,959.35
617.895,960.8
618.425,960.0
618.954,962.5
619.484,960.45
620.013,959.1
620.543,960.0
621.072,959.55
621.602,957.6
622.131,962.8
622.66,963.45
623.189,966.55
623.718,965.2
624.247,963.9
624.776,962.5
625.305,958.95
625.834,959.65
626.363,961.15
626.891,961.2
627.42,961.25
627.949,963.65
628.477,993.15
629.006,981.05
629.534,981.0
630.062,987.25
630.591,1010.75
631.119,1156.75
631.647,1052.6
632.175,1005.85
632.703,1000.3
633.231,1031.0
633.759,1015.5
634.287,981.15
634.815,963.0
635.343,959.15
635.871,959.95
636.398,960.25
636.926,957.05
637.454,956.95
637.981,954.7
638.509,958.95
639.036,956.3
639.564,953.35
640.091,955.1
640.618,953.25
641.146,955.05
641.673,957.6
642.2,952.75
642.727,954.75
643.254,951.8
643.781,950.05
644.308,951.05
644.835,950.05
645.362,947.45
645.889,948.4
646.416,949.05
646.942,949.75
647.469,948.4
647.996,947.45
648.522,946.25
649.049,944.4
649.576,946.6
650.102,948.5
650.629,946.45
651.155,944.8
651.682,946.1
652.208,944.2
652.734,946.2
653.261,948.45
653.787,947.6
654.313,944.5
654.839,945.4
655.365,948.0
655.892,946.25
656.418,943.85
656.944,944.45
657.47,944.55
657.996,939.15
658.522,942.55
659.048,940.4
659.574,941.45
660.099,938.0
660.625,937.3
661.151,935.95
661.677,936.95
662.203,934.2
662.728,932.85
663.123,933.85

File: VLFR_08-PLA_bio_Raman_621f4408.csv
nm,Intensity
528.626,1869.8
529.132,1867.6
529.637,1867.3
530.143,1867.9
530.648,1868.9
531.153,1868.2
531.658,1882.2
532.164,3547.9
532.669,1871.0
533.174,1870.6
533.679,2004.3
534.184,2554.1
534.689,2427.4
535.194,2413.8
535.699,2344.7
536.203,2288.7
536.708,2341.1
537.213,2244.4
537.717,2259.8
538.222,2244.3
538.726,2217.2
539.231,2213.4
539.735,2174.1
540.239,2198.7
540.744,2289.8
541.248,2253.8
541.752,2214.5
542.256,2197.7
542.76,2202.7
543.264,2282.7
543.768,2446.2
544.272,2313.9
544.776,2211.4
545.28,2194.7
545.784,2198.5
546.287,2210.5
546.791,2208.0
547.294,2209.6
547.798,2198.6
548.301,2218.9
548.805,2214.9
549.308,2208.1
549.811,2216.0
550.315,2224.3
550.818,2237.5
551.321,2246.5
551.824,2281.7
552.327,2282.8
552.83,2300.2
553.333,2285.3
553.835,2341.0
554.338,2315.8
554.841,2294.4
555.343,2247.0
555.846,2247.0
556.349,2240.3
556.851,2257.6
557.353,2320.7
557.856,2735.9
558.358,2762.5
558.86,2362.2
559.362,2357.7
559.864,2319.8
560.366,2298.2
560.868,2295.3
561.37,2290.7
561.872,2304.8
562.374,2315.6
562.876,2348.8
563.377,2522.1
563.879,2412.3
564.38,2352.7
564.882,2464.7
565.383,2445.2
565.885,2530.3
566.386,2583.5
566.887,2353.0
567.388,2337.8
567.889,2406.5
568.391,2378.5
568.892,2373.0
569.392,2364.8
569.893,2350.5
570.394,2357.4
570.895,2362.8
571.395,2510.4
571.896,2490.7
572.397,2434.1
572.897,2415.7
573.397,2445.2
573.898,2459.5
574.398,2478.4
574.898,2427.8
575.398,2367.5
575.898,2371.7
576.398,2574.8
576.898,2801.0
577.398,2483.3
577.898,2376.2
578.398,2358.3
578.897,2373.0
579.397,2347.0
579.896,2362.4
580.396,2359.7
580.895,2385.0
581.395,2362.5
581.894,2369.8
582.393,2353.5
582.892,2362.9
583.391,2369.4
583.89,2375.0
584.389,2386.9
584.888,2363.8
585.387,2362.8
585.886,2369.3
586.384,2403.5
586.883,2553.4
587.381,2723.4
587.88,2578.4
588.378,2416.6
588.876,2371.8
589.375,2362.2
589.873,2379.6
590.371,2372.8
590.869,2361.8
591.367,2350.2
591.865,2356.7
592.363,2357.7
592.86,2370.1
593.358,2356.2
593.856,2361.9
594.353,2362.9
594.851,2340.4
595.348,2352.8
595.845,2364.2
596.342,2368.0
596.84,2366.2
597.337,2370.4
597.834,2366.7
598.331,2358.5
598.828,2353.7
599.324,2364.4
599.821,2362.3
600.318,2371.9
600.814,2349.5
601.311,2358.1
601.807,2369.4
602.304,2361.4
602.8,2357.5
603.296,2361.8
603.792,2366.5
604.288,2335.8
604.784,2379.4
605.28,2369.7
605.776,2353.0
606.272,2342.1
606.767,2357.5
607.263,2372.2
607.759,2347.4
608.254,2356.0
608.749,2364.2
609.245,2363.3
609.74,2363.1
610.235,2358.9
610.73,2347.7
611.225,2349.4
611.72,2365.6
612.215,2342.7
612.71,2339.4
613.204,2339.6
613.699,2342.2
614.194,2357.4
614.688,2335.4
615.182,2349.2
615.677,2333.9
616.171,2356.9
616.665,2330.8
617.159,2332.3
617.653,2361.2
618.147,2335.9
618.641,2314.9
619.135,2332.0
619.628,2336.2
620.122,2325.1
620.615,2297.0
621.109,2317.5
621.602,2337.4
622.095,2342.5
622.589,2361.7
623.082,2390.7
623.575,2378.5
624.068,2350.9
624.561,2334.0
625.053,2308.9
625.546,2322.4
626.039,2317.7
626.531,2297.4
627.024,2314.8
627.516,2333.8
628.008,2423.6
628.501,2691.4
628.993,2632.3
629.485,2640.9
629.977,2646.1
630.469,2883.0
630.96,4436.8
631.452,4003.5
631.944,3096.7
632.435,2802.1
632.927,3018.3
633.418,3308.5
633.91,2936.0
634.401,2514.0
634.892,2345.9
635.383,2303.0
635.874,2271.2
636.365,2254.7
636.856,2266.5
637.346,2249.7
637.837,2236.7
638.327,2253.9
638.818,2228.1
639.308,2243.9
639.799,2229.0
640.289,2232.9
640.779,2225.2
641.269,2217.6
641.759,2235.5
642.249,2219.5
642.738,2226.5
643.228,2201.2
643.718,2194.9
644.207,2199.3
644.697,2187.2
645.186,2196.7
645.675,2174.6
646.164,2176.1
646.653,2171.6
647.142,2181.7
647.631,2163.2
648.12,2167.3
648.609,2160.3
649.098,2166.1
649.586,2157.2
650.075,2161.9
650.563,2158.5
651.051,2159.6
651.539,2147.3
652.027,2152.1
652.515,2133.8
653.003,2135.3
653.491,2135.2
653.979,2127.8
654.467,2129.4
654.954,2117.7
655.442,2122.6
655.929,2119.6
656.416,2107.6
656.904,2109.0
657.391,2113.9
657.878,2117.3
658.365,2098.9
658.851,2105.6
659.338,2088.8
659.825,2072.8
660.311,2082.8
660.798,2075.0
661.041,2084.7

File: VLFR_08-PLA_bio_Raman_818b6d48.csv
nm,Intensity
526.495,829.667
527.042,830.0
527.589,829.067
528.136,830.433
528.682,830.333
529.229,829.4
529.775,829.367
530.321,829.5
530.867,828.733
531.413,829.7
531.959,831.3
532.505,829.7
533.051,828.6
533.596,830.367
534.141,898.933
534.687,889.6
535.232,879.5
535.777,874.367
536.321,872.167
536.866,873.933
537.41,869.733
537.955,869.967
538.499,866.733
539.043,868.7
539.587,866.867
540.131,866.833
540.675,871.467
541.219,872.7
541.762,871.833
542.305,870.4
542.849,871.667
543.392,878.8
543.935,878.8
544.478,874.533
545.02,872.2
545.563,871.8
546.106,871.4
546.648,871.033
547.19,874.633
547.732,873.433
548.274,874.767
548.816,873.467
549.358,873.433
549.9,875.4
550.441,874.1
550.983,874.767
551.524,876.967
552.065,877.333
552.606,877.533
553.147,877.2
553.688,877.267
554.229,879.8
554.769,878.3
555.31,875.967
555.85,876.533
556.391,876.267
556.931,877.9
557.471,882.833
558.011,916.667
558.551,888.467
559.09,883.967
559.63,880.667
560.169,882.567
560.709,881.5
561.248,881.367
561.787,881.6
562.326,882.667
562.865,885.6
563.404,894.3
563.943,890.133
564.481,889.0
565.02,898.967
565.558,895.267
566.096,904.767
566.634,892.0
567.172,885.633
567.71,884.867
568.248,886.733
568.786,888.367
569.324,887.233
569.861,887.233
570.399,887.8
570.936,888.867
571.473,891.8
572.01,894.067
572.547,892.233
573.084,894.6
573.621,892.933
574.158,895.2
574.694,899.867
575.231,891.867
575.767,891.333
576.303,896.3
576.84,911.167
577.376,898.533
577.912,892.2
578.448,889.367
578.984,889.9
579.519,890.633
580.055,890.033
580.59,890.667
581.126,890.433
581.661,892.267
582.196,891.633
582.731,891.7
583.267,893.667
583.801,893.4
584.336,893.233
584.871,892.3
585.406,893.567
585.94,891.433
586.475,898.333
587.009,907.7
587.543,914.233
588.078,899.933
588.612,893.067
589.146,892.533
589.68,894.333
590.214,893.267
590.747,893.933
591.281,895.433
591.815,893.733
592.348,893.8
592.881,893.533
593.415,893.8
593.948,893.1
594.481,891.633
595.014,893.333
595.547,892.967
596.08,894.5
596.613,893.833
597.146,894.933
597.678,894.867
598.211,894.3
598.743,894.8
599.276,894.433
599.808,895.567
600.34,894.667
600.872,894.233
601.404,894.0
601.936,893.333
602.468,892.1
603.0,894.2
603.532,890.7
604.064,893.9
604.595,892.4
605.127,891.467
605.658,890.867
606.189,889.0
606.721,890.6
607.252,891.367
607.783,888.933
608.314,891.667
608.845,890.5
609.376,891.633
609.907,890.367
610.438,890.733
610.968,890.367
611.499,890.0
612.029,889.8
612.56,890.233
613.09,890.933
613.621,892.3
614.151,891.5
614.681,889.033
615.211,891.3
615.741,891.7
616.271,890.4
616.801,890.533
617.331,888.767
617.861,891.233
618.39,890.933
618.92,889.267
619.45,889.267
619.979,889.9
620.509,890.633
621.038,889.733
621.567,889.8
622.096,891.0
622.626,893.7
623.155,895.233
623.684,893.767
624.213,892.8
624.742,891.433
625.271,890.833
625.799,890.467
626.328,892.367
626.857,893.6
627.386,894.333
627.914,901.0
628.443,925.567
628.971,923.433
629.5,923.133
630.028,919.667
630.556,938.333
631.084,1056.63
631.613,974.0
632.141,935.633
632.669,926.167
633.197,953.567
633.725,940.667
634.253,909.1
634.781,893.967
635.308,888.0
635.836,886.7
636.364,885.567
636.891,885.167
637.419,885.833
637.947,884.567
638.474,882.433
639.002,884.267
639.529,883.067
640.056,881.1
640.584,885.367
641.111,883.067
641.638,884.267
642.165,885.367
642.692,884.067
643.219,884.133
643.746,882.067
644.273,882.133
644.8,879.033
645.327,881.2
645.854,881.033
646.381,880.133
646.908,881.067
647.434,882.3
647.961,881.3
648.488,880.867
649.014,880.567
649.541,878.333
650.067,878.5
650.594,877.767
651.12,877.033
651.646,877.3
652.173,876.533
652.699,877.367
653.225,875.033
653.752,876.5
654.278,873.633
654.804,876.967
655.33,875.767
655.856,874.9
656.382,874.267
656.908,873.567
657.434,871.867
657.96,873.233
658.486,873.5
659.012,871.533
659.538,871.267
660.064,872.333
660.589,871.0
661.115,872.467
661.641,870.167
662.166,869.3
662.692,868.733
663.086,868.0