Folder: MPX_specDB/spectra (part 65)

File: VLFR_02-HDPE_nobio_Raman_dcc606f3.csv
nm,Intensity
526.532,829.967
527.079,829.4
527.625,830.367
528.172,829.667
528.718,829.8
529.265,830.6
529.811,830.6
530.357,830.667
530.903,830.3
531.449,829.967
531.994,834.6
532.54,830.1
533.085,830.533
533.63,830.6
534.176,912.9
534.721,915.767
535.266,910.433
535.81,879.2
536.355,872.133
536.9,865.7
537.444,867.167
537.988,866.733
538.533,865.333
539.077,860.833
539.621,858.733
540.165,858.133
540.708,857.067
541.252,857.0
541.795,857.467
542.339,857.4
542.882,855.533
543.425,855.067
543.968,856.867
544.511,856.967
545.054,857.667
545.597,855.633
546.139,856.233
546.682,857.1
547.224,857.833
547.766,855.9
548.308,857.033
548.85,856.6
549.392,856.767
549.934,857.733
550.475,856.633
551.017,857.833
551.558,858.233
552.1,857.5
552.641,857.833
553.182,859.667
553.723,861.033
554.264,860.033
554.804,861.9
555.345,860.3
555.885,861.567
556.426,861.633
556.966,862.0
557.506,864.867
558.046,867.4
558.586,866.233
559.126,865.367
559.665,864.067
560.205,863.167
560.745,863.8
561.284,864.667
561.823,863.133
562.362,865.167
562.901,867.633
563.44,870.5
563.979,980.1
564.518,888.033
565.056,879.3
565.595,874.2
566.133,953.967
566.671,872.933
567.21,872.2
567.748,875.067
568.285,865.733
568.823,865.4
569.361,867.5
569.899,868.467
570.436,870.867
570.974,875.567
571.511,1062.8
572.048,891.867
572.585,875.233
573.122,868.9
573.659,869.133
574.196,876.533
574.733,866.567
575.269,871.833
575.806,906.033
576.342,1049.03
576.878,962.667
577.414,925.367
577.951,877.667
578.486,869.3
579.022,869.467
579.558,869.1
580.094,867.167
580.629,868.8
581.165,867.8
581.7,866.767
582.236,869.8
582.771,868.533
583.306,868.767
583.841,869.433
584.376,867.267
584.911,869.1
585.445,869.533
585.98,868.1
586.514,868.0
587.049,869.967
587.583,870.433
588.117,868.233
588.651,868.467
589.186,867.033
589.72,866.433
590.253,869.733
590.787,867.2
591.321,868.2
591.854,869.867
592.388,867.0
592.921,868.767
593.455,868.233
593.988,869.067
594.521,867.7
595.054,870.367
595.587,870.333
596.12,869.733
596.653,871.533
597.186,869.667
597.718,870.033
598.251,873.333
598.783,874.1
599.316,874.433
599.848,874.567
600.38,873.867
600.912,873.933
601.444,874.9
601.976,878.367
602.508,877.833
603.04,876.7
603.572,875.6
604.103,874.233
604.635,874.7
605.167,872.667
605.698,871.567
606.229,872.367
606.761,871.233
607.292,871.8
607.823,870.9
608.354,871.9
608.885,871.133
609.416,870.467
609.947,870.7
610.477,871.6
611.008,871.133
611.539,871.467
612.069,871.333
612.6,871.833
613.13,869.967
613.66,869.633
614.19,871.2
614.721,873.667
615.251,873.967
615.781,873.367
616.311,872.867
616.841,880.133
617.37,888.433
617.9,889.967
618.43,889.433
618.96,884.433
619.489,893.267
620.019,893.167
620.548,893.833
621.077,903.867
621.607,923.333
622.136,971.267
622.665,958.3
623.194,906.967
623.723,897.967
624.252,894.1
624.781,896.4
625.31,900.6
625.839,915.533
626.368,976.1
626.896,1498.83
627.425,2055.47
627.953,1575.73
628.482,2142.9
629.01,1508.57
629.539,1367.97
630.067,1217.63
630.596,1177.7
631.124,1001.83
631.652,917.4
632.18,898.867
632.708,893.233
633.236,889.933
633.764,885.833
634.292,881.9
634.82,880.567
635.348,876.7
635.876,876.3
636.403,875.3
636.931,874.733
637.459,871.167
637.986,867.133
638.514,865.9
639.041,867.233
639.568,866.233
640.096,864.967
640.623,866.467
641.15,864.433
641.678,864.833
642.205,863.867
642.732,865.533
643.259,864.1
643.786,862.533
644.313,863.7
644.84,862.633
645.367,863.7
645.894,863.9
646.421,862.367
646.948,863.2
647.474,862.1
648.001,861.833
648.528,860.7
649.054,862.333
649.581,860.933
650.108,861.967
650.634,862.833
651.161,862.433
651.687,859.033
652.214,863.433
652.74,862.0
653.266,860.3
653.793,862.867
654.319,862.2
654.845,862.6
655.371,860.533
655.897,859.533
656.424,857.4
656.95,861.133
657.476,860.1
658.002,861.967
658.528,860.867
659.054,863.533
659.58,862.3
660.106,865.833
660.631,862.0
661.157,861.767
661.683,860.467
662.209,860.9
662.735,859.967
663.129,861.033

File: VLFR_02-HDPE_nobio_Raman_deeed74f.csv
nm,Intensity
528.65,1835.95
529.155,1836.05
529.66,1836.15
530.165,1836.15
530.67,1836.8
531.175,1836.05
531.68,1844.9
532.185,2408.55
532.69,1836.2
533.194,1837.35
533.699,1917.95
534.204,2116.1
534.708,2119.45
535.213,2109.85
535.717,2026.05
536.222,1996.8
536.726,1987.45
537.231,1990.0
537.735,1989.95
538.239,1985.2
538.743,1972.75
539.247,1969.25
539.751,1961.35
540.255,1958.7
540.759,1955.55
541.263,1958.45
541.767,1962.8
542.271,1964.9
542.775,1966.25
543.279,1969.0
543.782,1968.0
544.286,1957.35
544.789,1961.3
545.293,1964.6
545.796,1971.3
546.3,1961.95
546.803,1967.45
547.306,1965.5
547.81,1961.8
548.313,1975.15
548.816,1965.9
549.319,1969.8
549.822,1971.7
550.325,1970.95
550.828,1968.1
551.331,1979.7
551.834,1983.05
552.337,1980.55
552.839,1974.95
553.342,1989.65
553.844,1987.75
554.347,1988.1
554.849,2003.7
555.352,1996.65
555.854,2007.15
556.357,2006.9
556.859,2010.8
557.361,2014.85
557.863,2020.85
558.365,2031.9
558.867,2013.1
559.369,2020.1
559.871,2023.5
560.373,2018.3
560.875,2018.75
561.377,2024.25
561.878,2031.9
562.38,2035.3
562.881,2046.45
563.383,2064.35
563.884,2500.15
564.386,2162.75
564.887,2123.75
565.388,2093.5
565.89,2319.55
566.391,2328.25
566.892,2077.05
567.393,2149.45
567.894,2069.9
568.395,2054.35
568.896,2059.65
569.396,2064.8
569.897,2073.15
570.398,2091.85
570.898,2130.2
571.399,2774.5
571.9,2266.35
572.4,2167.35
572.9,2121.8
573.401,2134.6
573.901,2192.95
574.401,2142.3
574.901,2178.2
575.401,2531.95
575.901,2473.95
576.401,2780.55
576.901,2617.75
577.401,2447.35
577.901,2314.8
578.4,2320.4
578.9,2352.35
579.399,2385.75
579.899,2415.4
580.398,2455.4
580.898,2489.3
581.397,2517.95
581.896,2577.1
582.395,2619.8
582.895,2662.85
583.394,2702.8
583.893,2755.35
584.391,2802.35
584.89,2790.45
585.389,2832.15
585.888,2894.85
586.386,2933.5
586.885,2967.75
587.384,3039.65
587.882,3096.75
588.38,3116.75
588.879,3185.6
589.377,3255.4
589.875,3261.95
590.373,3330.2
590.871,3371.5
591.369,3420.6
591.867,3502.05
592.365,3484.0
592.863,3526.9
593.361,3550.75
593.858,3600.35
594.356,3594.8
594.853,3605.9
595.351,3639.05
595.848,3690.65
596.345,3691.2
596.843,3724.25
597.34,3734.35
597.837,3749.45
598.334,3751.05
598.831,3797.2
599.328,3820.05
599.824,3845.95
600.321,3824.5
600.818,3851.95
601.314,3823.6
601.811,3826.4
602.307,3828.05
602.804,3796.85
603.3,3716.1
603.796,3700.8
604.293,3645.7
604.789,3600.75
605.285,3552.1
605.781,3505.25
606.277,3477.5
606.772,3401.0
607.268,3393.15
607.764,3284.3
608.259,3272.2
608.755,3191.55
609.25,3178.95
609.746,3122.25
610.241,3096.4
610.736,3120.3
611.231,3057.8
611.727,3016.7
612.222,2974.2
612.716,2946.4
613.211,2932.65
613.706,2912.3
614.201,2868.35
614.695,2879.85
615.19,2815.15
615.684,2808.6
616.179,2809.65
616.673,2810.8
617.168,2800.1
617.662,2760.45
618.156,2773.05
618.65,2741.05
619.144,2745.4
619.638,2733.45
620.131,2736.3
620.625,2695.7
621.119,2727.65
621.612,2780.15
622.106,2909.7
622.599,2816.05
623.093,2666.0
623.586,2664.25
624.079,2626.25
624.572,2612.65
625.065,2624.75
625.558,2630.25
626.051,2721.45
626.544,3300.75
627.037,5895.9
627.529,5376.55
628.022,4785.5
628.514,6506.3
629.007,4535.45
629.499,4091.4
629.991,3690.8
630.483,3570.65
630.976,3050.2
631.468,2722.3
631.959,2620.25
632.451,2596.6
632.943,2598.6
633.435,2601.0
633.926,2601.15
634.418,2570.75
634.909,2577.05
635.401,2547.9
635.892,2561.15
636.383,2576.3
636.874,2552.8
637.365,2558.2
637.856,2560.25
638.347,2565.8
638.838,2563.3
639.329,2573.9
639.819,2579.35
640.31,2608.3
640.8,2556.85
641.291,2591.05
641.781,2584.5
642.271,2614.25
642.761,2617.65
643.251,2581.7
643.741,2611.9
644.231,2617.4
644.721,2598.0
645.211,2600.65
645.7,2614.15
646.19,2586.6
646.679,2619.75
647.169,2571.05
647.658,2568.45
648.147,2571.15
648.636,2551.35
649.125,2513.6
649.614,2550.45
650.103,2540.2
650.592,2550.25
651.08,2514.65
651.569,2486.95
652.058,2513.6
652.546,2509.1
653.034,2473.2
653.523,2474.05
654.011,2455.95
654.499,2448.3
654.987,2452.0
655.475,2426.35
655.963,2429.8
656.45,2407.2
656.938,2402.45
657.425,2381.15
657.913,2360.7
658.4,2335.55
658.888,2325.4
659.375,2318.35
659.862,2303.0
660.349,2311.1
660.836,2260.2
661.079,2260.95

File: VLFR_02-HDPE_nobio_Raman_e0bc59c6.csv
nm,Intensity
526.486,829.5
527.033,828.8
527.579,828.7
528.126,830.9
528.672,828.5
529.219,828.3
529.765,828.5
530.311,828.5
530.857,829.5
531.403,828.7
531.948,834.0
532.494,831.4
533.039,829.0
533.585,829.0
534.13,875.1
534.675,873.5
535.22,868.7
535.764,853.5
536.309,848.5
536.854,847.9
537.398,846.3
537.942,847.5
538.486,847.0
539.03,847.8
539.574,846.1
540.118,841.4
540.662,842.2
541.205,840.6
541.749,841.0
542.292,840.5
542.835,841.4
543.378,842.1
543.921,840.7
544.464,840.0
545.006,838.9
545.549,839.2
546.091,840.0
546.634,840.1
547.176,840.2
547.718,842.8
548.26,841.0
548.802,839.5
549.343,840.8
549.885,841.9
550.426,839.5
550.968,841.6
551.509,841.5
552.05,840.0
552.591,843.1
553.132,841.2
553.673,843.2
554.214,841.7
554.754,842.0
555.295,842.5
555.835,842.4
556.375,843.5
556.915,845.2
557.455,846.3
557.995,848.1
558.535,844.2
559.075,847.7
559.614,844.9
560.154,846.5
560.693,847.7
561.232,846.4
561.772,844.4
562.311,847.0
562.85,849.6
563.388,849.2
563.927,899.0
564.466,864.5
565.004,860.6
565.543,856.0
566.081,912.1
566.619,858.4
567.157,853.8
567.695,853.7
568.233,848.3
568.771,850.5
569.309,849.6
569.846,849.7
570.384,854.0
570.921,858.5
571.458,935.7
571.995,877.8
572.532,858.1
573.069,848.5
573.606,855.5
574.143,860.1
574.68,850.6
575.216,853.0
575.753,893.0
576.289,959.7
576.825,913.6
577.361,896.0
577.897,859.8
578.433,854.6
578.969,851.9
579.505,854.3
580.041,853.4
580.576,851.0
581.112,855.0
581.647,853.1
582.183,853.8
582.718,854.6
583.253,853.2
583.788,855.3
584.323,855.8
584.858,855.4
585.392,855.6
585.927,855.7
586.462,854.7
586.996,855.8
587.53,854.8
588.065,858.9
588.599,857.4
589.133,857.0
589.667,857.4
590.201,855.5
590.735,858.2
591.268,859.1
591.802,859.8
592.335,859.5
592.869,858.4
593.402,856.8
593.936,860.7
594.469,861.7
595.002,858.3
595.535,858.1
596.068,860.5
596.601,862.8
597.133,861.7
597.666,863.2
598.199,864.7
598.731,864.3
599.264,869.2
599.796,866.3
600.328,865.4
600.86,866.3
601.393,865.3
601.925,865.5
602.457,868.9
602.988,866.1
603.52,865.9
604.052,866.1
604.583,863.2
605.115,864.8
605.646,862.4
606.178,861.2
606.709,856.7
607.24,859.7
607.771,859.1
608.302,858.7
608.833,859.1
609.364,857.0
609.895,858.8
610.426,855.7
610.957,859.6
611.487,857.1
612.018,858.0
612.548,858.5
613.078,857.9
613.609,858.0
614.139,856.8
614.669,856.5
615.199,859.6
615.729,857.0
616.259,859.2
616.789,860.9
617.319,863.8
617.849,863.5
618.378,863.3
618.908,862.2
619.437,868.6
619.967,868.4
620.496,868.0
621.025,872.9
621.555,883.8
622.084,906.0
622.613,905.5
623.142,879.1
623.671,873.0
624.2,872.3
624.729,871.9
625.258,871.2
625.786,884.5
626.315,906.8
626.844,1115.6
627.372,1560.6
627.901,1274.8
628.429,1447.7
628.957,1327.5
629.486,1202.1
630.014,1097.8
630.542,1075.2
631.07,965.5
631.598,900.5
632.126,880.1
632.654,875.8
633.182,874.7
633.71,871.0
634.237,865.9
634.765,862.5
635.293,863.1
635.82,862.2
636.348,861.6
636.875,862.2
637.403,857.1
637.93,859.7
638.458,857.9
638.985,856.4
639.512,857.8
640.039,858.6
640.566,857.1
641.093,854.9
641.62,854.7
642.147,854.3
642.674,851.8
643.201,856.3
643.728,855.3
644.255,853.2
644.781,854.5
645.308,852.3
645.835,853.8
646.361,853.9
646.888,852.6
647.414,852.8
647.941,853.1
648.467,853.7
648.993,853.6
649.52,854.4
650.046,855.4
650.572,852.5
651.098,849.2
651.625,851.9
652.151,853.3
652.677,854.6
653.203,853.3
653.729,852.4
654.255,851.7
654.78,852.5
655.306,850.9
655.832,850.7
656.358,852.6
656.884,851.8
657.409,849.9
657.935,851.4
658.461,852.2
658.986,851.1
659.512,851.3
660.037,850.8
660.563,853.3
661.088,848.6
661.614,847.5
662.139,849.2
662.664,849.2
663.058,847.2

File: VLFR_02-HDPE_nobio_Raman_e4d2c6ec.csv
nm,Intensity
528.65,1833.65
529.155,1832.7
529.66,1833.1
530.165,1833.7
530.67,1833.65
531.175,1833.45
531.68,1844.15
532.185,2477.2
532.69,1834.9
533.194,1834.6
533.699,1911.45
534.204,2086.1
534.708,2073.95
535.213,2046.9
535.717,1984.65
536.222,1961.05
536.726,1955.8
537.231,1951.1
537.735,1958.7
538.239,1940.95
538.743,1932.25
539.247,1924.75
539.751,1922.85
540.255,1915.2
540.759,1916.4
541.263,1915.3
541.767,1915.55
542.271,1914.05
542.775,1916.2
543.279,1913.9
543.782,1918.75
544.286,1912.2
544.789,1911.8
545.293,1916.3
545.796,1912.0
546.3,1913.2
546.803,1919.75
547.306,1914.3
547.81,1913.5
548.313,1916.45
548.816,1910.3
549.319,1917.0
549.822,1917.8
550.325,1916.25
550.828,1923.35
551.331,1921.05
551.834,1922.05
552.337,1923.5
552.839,1924.1
553.342,1932.7
553.844,1935.7
554.347,1940.65
554.849,1942.35
555.352,1947.55
555.854,1948.4
556.357,1952.3
556.859,1962.9
557.361,1979.8
557.863,1983.7
558.365,1985.65
558.867,1987.55
559.369,1975.85
559.871,1979.45
560.373,1971.8
560.875,1975.6
561.377,1979.35
561.878,1985.8
562.38,1997.45
562.881,2005.45
563.383,2036.45
563.884,2471.55
564.386,2152.0
564.887,2106.25
565.388,2068.5
565.89,2330.0
566.391,2335.15
566.892,2057.35
567.393,2111.7
567.894,2046.35
568.395,2046.6
568.896,2049.7
569.396,2054.25
569.897,2070.4
570.398,2102.55
570.898,2151.3
571.399,2857.1
571.9,2270.45
572.4,2155.65
572.9,2128.0
573.401,2135.65
573.901,2215.5
574.401,2171.85
574.901,2209.45
575.401,2612.8
575.901,2570.3
576.401,2918.75
576.901,2755.45
577.401,2545.1
577.901,2447.85
578.4,2454.5
578.9,2499.1
579.399,2553.15
579.899,2620.65
580.398,2668.0
580.898,2741.7
581.397,2820.95
581.896,2863.55
582.395,2918.9
582.895,2968.55
583.394,3070.2
583.893,3151.55
584.391,3159.3
584.89,3227.2
585.389,3267.75
585.888,3292.0
586.386,3329.5
586.885,3407.7
587.384,3453.65
587.882,3532.45
588.38,3576.45
588.879,3659.05
589.377,3662.7
589.875,3744.7
590.373,3793.75
590.871,3803.95
591.369,3914.65
591.867,4016.1
592.365,4029.1
592.863,4082.75
593.361,4031.7
593.858,4102.7
594.356,4146.7
594.853,4172.65
595.351,4162.05
595.848,4267.35
596.345,4259.05
596.843,4300.1
597.34,4320.6
597.837,4289.5
598.334,4345.0
598.831,4472.85
599.328,4449.5
599.824,4368.8
600.321,4427.55
600.818,4423.9
601.314,4436.45
601.811,4410.45
602.307,4407.2
602.804,4304.4
603.3,4278.65
603.796,4257.75
604.293,4165.85
604.789,4088.3
605.285,4046.15
605.781,3952.6
606.277,3843.75
606.772,3825.4
607.268,3725.75
607.764,3708.65
608.259,3600.6
608.755,3562.2
609.25,3438.85
609.746,3416.2
610.241,3382.6
610.736,3351.3
611.231,3276.25
611.727,3235.5
612.222,3267.5
612.716,3154.05
613.211,3121.75
613.706,3121.65
614.201,3066.0
614.695,3034.0
615.19,3010.4
615.684,2997.0
616.179,2961.2
616.673,2926.65
617.168,2930.9
617.662,2891.45
618.156,2916.15
618.65,2871.0
619.144,2849.15
619.638,2849.0
620.131,2851.8
620.625,2834.65
621.119,2841.9
621.612,2897.2
622.106,3032.3
622.599,2936.8
623.093,2812.85
623.586,2758.45
624.079,2754.4
624.572,2746.75
625.065,2741.5
625.558,2771.5
626.051,2835.55
626.544,3451.75
627.037,6068.85
627.529,5698.25
628.022,4765.8
628.514,6865.7
629.007,4892.4
629.499,4352.2
629.991,3883.75
630.483,3772.85
630.976,3224.9
631.468,2865.0
631.959,2808.1
632.451,2752.05
632.943,2755.5
633.435,2746.75
633.926,2744.45
634.418,2754.6
634.909,2748.75
635.401,2716.35
635.892,2696.7
636.383,2736.5
636.874,2701.3
637.365,2733.75
637.856,2689.1
638.347,2726.0
638.838,2734.35
639.329,2720.65
639.819,2733.05
640.31,2731.7
640.8,2694.2
641.291,2689.3
641.781,2674.5
642.271,2711.05
642.761,2694.15
643.251,2713.65
643.741,2699.2
644.231,2683.95
644.721,2695.85
645.211,2731.75
645.7,2691.55
646.19,2681.45
646.679,2703.7
647.169,2696.4
647.658,2673.55
648.147,2686.25
648.636,2664.2
649.125,2650.15
649.614,2645.2
650.103,2599.5
650.592,2613.6
651.08,2600.35
651.569,2584.6
652.058,2595.7
652.546,2545.65
653.034,2584.0
653.523,2566.35
654.011,2547.65
654.499,2553.1
654.987,2507.95
655.475,2505.8
655.963,2498.3
656.45,2468.6
656.938,2468.3
657.425,2432.8
657.913,2433.45
658.4,2393.5
658.888,2402.5
659.375,2364.2
659.862,2352.75
660.349,2346.25
660.836,2319.35
661.079,2291.95

File: VLFR_02-HDPE_nobio_Raman_e9ca17e8.csv
nm,Intensity
528.65,1834.4
529.155,1835.35
529.66,1835.15
530.165,1834.5
530.67,1834.0
531.175,1835.4
531.68,1843.15
532.185,2380.7
532.69,1835.0
533.194,1836.15
533.699,1888.3
534.204,2023.2
534.708,2019.05
535.213,2022.85
535.717,1989.3
536.222,1977.75
536.726,1973.1
537.231,1966.9
537.735,1975.95
538.239,1970.6
538.743,1965.5
539.247,1959.9
539.751,1954.85
540.255,1953.55
540.759,1955.75
541.263,1955.8
541.767,1963.1
542.271,1958.35
542.775,1956.35
543.279,1957.1
543.782,1960.05
544.286,1956.65
544.789,1961.6
545.293,1961.35
545.796,1963.4
546.3,1954.6
546.803,1962.55
547.306,1962.15
547.81,1963.6
548.313,1964.25
548.816,1960.35
549.319,1961.65
549.822,1962.5
550.325,1972.35
550.828,1967.45
551.331,1967.3
551.834,1971.95
552.337,1971.6
552.839,1963.05
553.342,1982.75
553.844,1978.05
554.347,1978.5
554.849,1990.4
555.352,1988.8
555.854,1990.35
556.357,1992.15
556.859,2002.9
557.361,2004.95
557.863,2008.1
558.365,2014.9
558.867,2002.3
559.369,2005.15
559.871,2005.05
560.373,2006.0
560.875,2020.9
561.377,2013.45
561.878,2018.1
562.38,2021.35
562.881,2040.85
563.383,2039.0
563.884,2237.7
564.386,2083.95
564.887,2069.7
565.388,2059.15
565.89,2164.4
566.391,2182.2
566.892,2045.3
567.393,2089.1
567.894,2042.85
568.395,2037.4
568.896,2038.9
569.396,2052.9
569.897,2044.4
570.398,2056.9
570.898,2072.15
571.399,2482.85
571.9,2167.95
572.4,2091.15
572.9,2066.15
573.401,2081.35
573.901,2107.3
574.401,2083.25
574.901,2093.9
575.401,2215.2
575.901,2268.7
576.401,2446.2
576.901,2354.05
577.401,2250.5
577.901,2152.45
578.4,2162.05
578.9,2161.35
579.399,2179.15
579.899,2185.9
580.398,2187.55
580.898,2201.8
581.397,2203.6
581.896,2222.25
582.395,2229.15
582.895,2234.55
583.394,2231.85
583.893,2220.25
584.391,2243.05
584.89,2227.1
585.389,2236.45
585.888,2233.7
586.386,2225.25
586.885,2222.45
587.384,2218.55
587.882,2209.05
588.38,2205.85
588.879,2191.95
589.377,2195.1
589.875,2180.1
590.373,2203.35
590.871,2197.6
591.369,2198.0
591.867,2186.65
592.365,2184.85
592.863,2201.05
593.361,2194.65
593.858,2196.55
594.356,2194.8
594.853,2202.4
595.351,2204.8
595.848,2205.85
596.345,2207.2
596.843,2212.8
597.34,2221.25
597.837,2216.05
598.334,2206.0
598.831,2222.95
599.328,2227.05
599.824,2210.2
600.321,2210.65
600.818,2228.85
601.314,2214.2
601.811,2226.35
602.307,2226.5
602.804,2203.25
603.3,2219.15
603.796,2206.25
604.293,2213.35
604.789,2194.1
605.285,2187.5
605.781,2179.35
606.277,2177.9
606.772,2173.15
607.268,2164.4
607.764,2149.85
608.259,2146.9
608.755,2146.55
609.25,2141.5
609.746,2140.0
610.241,2130.25
610.736,2145.15
611.231,2146.05
611.727,2133.3
612.222,2115.0
612.716,2119.35
613.211,2112.45
613.706,2113.0
614.201,2113.95
614.695,2106.55
615.19,2113.9
615.684,2112.0
616.179,2114.5
616.673,2123.75
617.168,2134.35
617.662,2131.7
618.156,2132.0
618.65,2132.7
619.144,2129.1
619.638,2149.65
620.131,2151.65
620.625,2158.45
621.119,2180.3
621.612,2244.5
622.106,2316.5
622.599,2291.1
623.093,2181.05
623.586,2153.85
624.079,2160.35
624.572,2152.35
625.065,2152.05
625.558,2181.15
626.051,2250.3
626.544,2695.35
627.037,4595.3
627.529,4264.15
628.022,3699.05
628.514,5178.45
629.007,3704.3
629.499,3292.15
629.991,2940.05
630.483,2926.35
630.976,2479.15
631.468,2237.25
631.959,2189.05
632.451,2172.55
632.943,2158.45
633.435,2155.05
633.926,2149.1
634.418,2134.05
634.909,2121.85
635.401,2107.85
635.892,2120.2
636.383,2125.15
636.874,2113.85
637.365,2097.5
637.856,2084.7
638.347,2102.05
638.838,2075.65
639.329,2076.15
639.819,2068.0
640.31,2067.5
640.8,2062.3
641.291,2064.85
641.781,2052.1
642.271,2052.45
642.761,2045.65
643.251,2042.75
643.741,2043.15
644.231,2052.6
644.721,2049.3
645.211,2038.4
645.7,2039.2
646.19,2030.5
646.679,2034.0
647.169,2024.9
647.658,2019.7
648.147,2019.15
648.636,2025.55
649.125,2023.1
649.614,2006.2
650.103,2013.45
650.592,2026.05
651.08,2010.9
651.569,2002.0
652.058,2004.0
652.546,2004.8
653.034,2007.45
653.523,2002.85
654.011,2006.0
654.499,1991.0
654.987,2002.55
655.475,1993.2
655.963,1982.15
656.45,1978.4
656.938,1987.75
657.425,1986.5
657.913,1982.0
658.4,1973.15
658.888,1978.7
659.375,1970.3
659.862,1974.0
660.349,1973.8
660.836,1967.4
661.079,1963.5

File: VLFR_02-HDPE_nobio_Raman_e34e5956.csv
cm-1,Intensity
-123.878,1852.0
-105.821,1852.7
-87.8007,1853.35
-69.8161,1853.35
-51.8675,1853.15
-33.9547,1853.95
-16.0776,1880.15
1.76388,3434.3
19.5698,1855.6
37.3403,1853.75
55.0755,1909.65
72.7754,2035.5
90.4402,2029.8
108.07,2020.0
125.665,1987.55
143.225,1964.8
160.75,1963.6
178.241,1966.75
195.697,1963.8
213.119,1961.3
230.506,1959.5
247.859,1959.6
265.178,1950.95
282.463,1951.15
299.713,1952.9
316.93,1955.65
334.113,1954.2
351.263,1958.6
368.379,1959.55
385.461,1955.8
402.51,1955.0
419.526,1956.6
436.508,1959.55
453.458,1963.05
470.374,1966.75
487.257,1953.95
504.107,1967.95
520.925,1960.8
537.71,1964.75
554.462,1962.3
571.182,1967.2
587.87,1964.0
604.525,1962.6
621.148,1965.0
637.739,1968.7
654.297,1975.0
670.824,1974.8
687.319,1974.75
703.782,1969.85
720.213,1979.8
736.613,1979.45
752.981,1978.3
769.317,1985.15
785.623,1990.85
801.897,1985.8
818.139,1994.8
834.351,1998.65
850.532,1996.3
866.681,2013.9
882.8,2016.6
898.888,2008.5
914.945,2011.05
930.972,2012.95
946.968,2008.35
962.934,2012.85
978.869,2014.85
994.774,2022.1
1010.65,2026.55
1026.49,2029.9
1042.31,2047.8
1058.09,2349.9
1073.85,2123.8
1089.57,2101.25
1105.27,2075.05
1120.93,2281.5
1136.57,2290.95
1152.18,2061.85
1167.75,2098.65
1183.3,2049.9
1198.82,2039.85
1214.31,2053.15
1229.77,2051.9
1245.2,2060.85
1260.6,2084.9
1275.97,2103.1
1291.32,2559.45
1306.63,2212.5
1321.92,2115.4
1337.18,2095.85
1352.41,2100.15
1367.61,2144.65
1382.78,2104.8
1397.93,2118.2
1413.05,2390.15
1428.14,2342.4
1443.2,2556.0
1458.23,2419.2
1473.23,2304.6
1488.21,2222.1
1503.16,2210.1
1518.08,2229.65
1532.97,2260.0
1547.84,2276.5
1562.68,2292.45
1577.49,2326.15
1592.27,2356.2
1607.03,2381.4
1621.76,2389.95
1636.46,2445.5
1651.14,2449.15
1665.78,2477.85
1680.41,2497.8
1695.0,2525.4
1709.57,2518.7
1724.11,2567.15
1738.62,2585.3
1753.11,2627.35
1767.57,2657.0
1782.01,2687.3
1796.41,2720.55
1810.8,2767.7
1825.15,2791.75
1839.48,2811.95
1853.79,2870.75
1868.06,2889.85
1882.31,2913.0
1896.54,2947.5
1910.74,2960.05
1924.91,2991.65
1939.06,2983.8
1953.19,3003.05
1967.28,2991.8
1981.35,2964.75
1995.4,2986.0
2009.42,3026.15
2023.42,2996.4
2037.39,3040.75
2051.33,3019.5
2065.25,2999.35
2079.15,2979.9
2093.01,2971.45
2106.86,2993.45
2120.68,3018.9
2134.47,2975.75
2148.24,2980.8
2161.99,2942.75
2175.71,2983.5
2189.41,2952.7
2203.08,2938.7
2216.73,2911.2
2230.35,2873.4
2243.95,2885.1
2257.52,2856.05
2271.07,2804.95
2284.6,2804.35
2298.1,2759.35
2311.58,2732.8
2325.03,2712.5
2338.46,2698.5
2351.87,2694.45
2365.25,2671.8
2378.61,2674.15
2391.94,2634.5
2405.26,2662.35
2418.54,2620.45
2431.81,2616.35
2445.05,2613.65
2458.27,2554.55
2471.46,2554.6
2484.63,2546.15
2497.78,2546.25
2510.9,2516.55
2524.0,2518.5
2537.08,2518.25
2550.14,2530.6
2563.17,2485.4
2576.18,2503.45
2589.17,2501.75
2602.13,2493.9
2615.07,2498.3
2627.99,2481.5
2640.89,2484.35
2653.76,2491.65
2666.61,2482.4
2679.44,2489.7
2692.25,2509.8
2705.03,2564.45
2717.79,2675.75
2730.53,2601.5
2743.25,2479.95
2755.94,2469.6
2768.61,2465.85
2781.27,2462.4
2793.89,2464.7
2806.5,2476.25
2819.09,2568.25
2831.65,3071.9
2844.19,5522.7
2856.71,5110.5
2869.21,4409.7
2881.69,6019.5
2894.14,4338.8
2906.58,3925.05
2918.99,3546.85
2931.38,3425.75
2943.75,2960.2
2956.1,2629.3
2968.42,2557.55
2980.73,2558.3
2993.01,2527.0
3005.28,2512.9
3017.52,2506.2
3029.74,2522.45
3041.94,2493.7
3054.12,2502.7
3066.28,2523.8
3078.42,2527.7
3090.54,2506.05
3102.63,2513.05
3114.71,2508.6
3126.77,2512.9
3138.8,2513.7
3150.82,2511.35
3162.81,2515.75
3174.78,2555.15
3186.74,2482.35
3198.67,2535.25
3210.58,2537.5
3222.47,2541.8
3234.35,2548.2
3246.2,2537.0
3258.03,2554.15
3269.84,2579.05
3281.64,2552.55
3293.41,2569.6
3305.16,2548.75
3316.89,2555.1
3328.61,2523.6
3340.3,2529.95
3351.97,2540.2
3363.63,2509.6
3375.26,2487.45
3386.88,2476.55
3398.47,2444.05
3410.05,2480.95
3421.6,2494.45
3433.14,2435.4
3444.66,2454.3
3456.15,2395.3
3467.63,2418.65
3479.09,2406.55
3490.53,2378.15
3501.96,2381.9
3513.36,2384.35
3524.74,2347.35
3536.11,2370.05
3547.45,2338.75
3558.78,2306.9
3570.09,2321.8
3581.37,2320.7
3592.64,2309.3
3603.9,2291.6
3615.13,2276.15
3626.34,2245.1
3637.54,2255.5
3648.72,2243.45
3659.87,2230.1
3665.45,2228.25