Folder: MPX_specDB/spectra (part 100)

File: VLFR_07-PET_bio_Raman_1577d051.csv
nm,Intensity
791.377,15512.9
792.477,14315.4
793.576,13574.1
794.676,13230.0
795.775,12764.2
796.874,13065.9
797.973,13041.7
799.072,12961.3
800.171,13016.0
801.27,12828.8
802.368,12835.8
803.467,12471.3
804.565,12264.5
805.664,12097.1
806.762,12206.9
807.86,11885.2
808.958,11910.7
810.056,11770.2
811.153,11798.3
812.251,11669.1
813.349,11548.2
814.446,11443.5
815.543,11259.3
816.64,11083.7
817.737,11190.1
818.834,11076.6
819.931,10914.7
821.028,10824.4
822.125,10625.5
823.221,10579.6
824.317,10519.0
825.414,10628.3
826.51,10350.7
827.606,10180.5
828.702,10019.8
829.797,9924.0
830.893,10102.3
831.988,9674.16
833.084,9862.48
834.179,9668.54
835.274,9589.1
836.369,9549.14
837.464,9523.18
838.559,9582.6
839.654,9407.02
840.748,9571.34
841.843,9769.34
842.937,9291.5
844.031,9162.92
845.125,8889.62
846.219,8738.2
847.313,8694.54
848.407,8547.08
849.5,8447.32
850.593,8528.14
851.687,8502.86
852.78,8431.36
853.873,8353.06
854.966,8385.66
856.059,8210.74
857.151,8086.18
858.244,8390.5
859.336,8301.82
860.428,8348.64
861.52,8157.24
862.612,7900.96
863.704,7979.26
864.796,7953.06
865.888,7796.94
866.979,7731.4
868.07,7675.92
869.162,7621.12
870.253,7678.86
871.344,7786.6
872.434,8132.78
873.525,7985.18
874.615,7807.82
875.706,7480.24
876.796,7454.64
877.886,7253.74
878.976,7356.28
880.066,7196.76
881.156,7187.32
882.245,7189.98
883.335,7041.2
884.424,7151.54
885.513,7134.7
886.602,6979.46
887.691,6904.18
888.78,6777.7
889.868,6785.46
890.957,6750.24
892.045,6688.1
893.133,6641.0
894.221,6587.56
895.309,6518.5
896.397,6466.12
897.484,6729.46
898.571,7222.5
899.659,6780.46
900.746,6325.18
901.833,6271.86
902.92,6161.52
904.006,6168.46
905.093,6116.3
906.179,6158.28
907.266,6630.68
908.352,6548.16
909.438,6307.92
910.523,5926.06
911.609,5824.88
912.695,5765.3
913.78,5720.46
914.865,5646.8
915.95,5598.24
917.035,5562.92
918.12,5536.4
919.204,5460.4
920.289,5418.2
921.373,5409.8
922.457,5332.9
923.541,5298.74
924.625,5272.46
925.709,5196.4
926.792,5152.62
927.876,5156.2
928.959,5119.16
930.042,5052.72
931.125,4993.48
932.208,4986.0
933.29,4914.8
934.373,4933.72
935.455,4873.18
936.537,4830.1
937.619,4795.12
938.701,4748.3
939.782,4752.76
940.864,4740.92
941.945,4690.28
943.026,4680.64
944.107,4615.64
945.188,4617.28
946.269,4612.88
947.349,4561.88
948.43,4545.18
949.51,4518.84
950.59,4488.04
951.67,4437.6
952.75,4461.2
953.829,4420.1
954.909,4402.82
955.988,4387.82
957.067,4379.06
958.146,4339.78
959.224,4342.32
960.303,4311.68
961.381,4288.46
962.459,4279.36
963.537,4271.0
964.615,4237.68
965.693,4242.14
966.771,4219.18
967.848,4205.78
968.925,4180.16
970.002,4184.28
971.079,4166.82
972.156,4148.32
973.232,4133.74
974.309,4124.88
975.385,4122.8
976.461,4115.64
977.537,4110.66
978.612,4075.2
979.688,4081.4
980.763,4060.78
981.838,4057.28
982.913,4048.14
983.988,4037.9
985.063,4023.54
986.137,4019.16
987.211,4017.54
988.285,4011.04
989.359,3990.32
990.433,3990.2
991.506,3973.34
992.58,3971.52
993.653,3968.2
994.726,3951.94
995.799,3949.1
996.872,3950.64
997.944,3939.7
999.016,3933.68
1000.09,3922.76
1001.16,3921.8
1002.23,3914.56
1003.3,3911.94
1004.38,3902.54
1005.45,3899.22
1006.52,3892.28
1007.59,3891.52
1008.66,3883.92
1009.73,3876.74
1010.8,3874.48
1011.87,3871.74
1012.94,3870.32
1014.01,3866.26
1015.08,3860.84
1016.15,3859.12
1017.22,3856.08
1018.29,3850.68
1019.36,3854.52
1020.42,3849.2
1021.49,3851.88
1022.56,3853.78
1023.63,3851.5
1024.7,3846.2
1025.76,3839.84
1026.83,3833.12
1027.9,3830.48
1028.97,3824.1
1030.03,3820.96
1031.1,3818.04
1032.17,3817.88
1033.23,3817.38
1034.3,3817.78
1035.36,3821.4
1036.43,3816.74
1037.5,3810.64
1038.56,3808.32
1039.63,3805.7
1040.69,3803.84
1041.76,3802.28
1042.82,3799.66
1043.89,3799.08
1044.95,3797.4
1046.01,3796.54
1047.08,3795.38
1048.14,3794.24
1049.2,3794.68
1050.27,3793.62
1051.33,3791.92
1052.39,3792.92
1053.46,3791.36
1054.52,3791.22
1055.58,3791.06
1056.64,3789.48
1057.7,3790.86
1058.77,3789.6
1059.83,3789.0
1060.89,3789.04
1061.95,3787.88
1063.01,3788.12
1064.07,3787.14
1065.13,3787.86
1066.19,3786.76
1067.25,3787.78
1068.05,3786.28

File: VLFR_07-PET_bio_Raman_1741f093.csv
nm,Intensity
791.496,11192.7
792.594,10490.7
793.692,10081.3
794.79,9846.6
795.888,9803.4
796.986,9683.5
798.083,9627.4
799.181,9696.6
800.278,9560.3
801.375,9668.3
802.473,9454.5
803.57,9314.6
804.667,9175.8
805.764,9187.5
806.86,9146.1
807.957,8973.2
809.054,8962.6
810.15,8853.1
811.246,8867.6
812.343,8709.5
813.439,8678.3
814.535,8608.1
815.631,8549.5
816.727,8412.9
817.822,8362.5
818.918,8270.2
820.013,8114.9
821.109,8108.2
822.204,8051.0
823.299,7907.1
824.394,7863.6
825.489,8100.6
826.584,7769.2
827.679,7630.0
828.774,7614.2
829.868,7562.6
830.963,7529.5
832.057,7373.1
833.151,7371.1
834.245,7293.8
835.339,7293.9
836.433,7298.0
837.527,7300.1
838.621,7235.2
839.714,7153.7
840.808,7377.6
841.901,7152.2
842.994,7086.2
844.087,6897.2
845.18,6836.4
846.273,6827.0
847.366,6747.6
848.458,6652.8
849.551,6714.8
850.643,6659.3
851.735,6644.8
852.828,6548.0
853.92,6550.7
855.012,6492.2
856.103,6459.9
857.195,6392.4
858.287,6478.3
859.378,6559.4
860.469,6450.2
861.56,6321.2
862.651,6200.1
863.742,6238.9
864.833,6264.6
865.924,6145.8
867.014,6069.4
868.105,6071.6
869.195,6011.8
870.285,6142.2
871.376,6183.5
872.465,6274.6
873.555,6265.5
874.645,6019.7
875.735,5935.1
876.824,5864.0
877.913,5831.6
879.002,5798.2
880.092,5763.8
881.18,5778.0
882.269,5760.3
883.358,5709.1
884.446,5675.2
885.535,5653.9
886.623,5593.5
887.711,5545.4
888.799,5529.6
889.887,5485.5
890.975,5509.4
892.062,5422.9
893.15,5414.1
894.237,5380.2
895.325,5344.5
896.412,5386.9
897.499,5690.1
898.585,5755.2
899.672,5406.0
900.759,5177.0
901.845,5160.7
902.931,5112.0
904.017,5105.8
905.103,5098.9
906.189,5269.0
907.275,5486.2
908.361,5288.1
909.446,5064.9
910.531,4948.9
911.616,4911.4
912.701,4875.1
913.786,4836.2
914.871,4785.8
915.956,4790.2
917.04,4728.7
918.124,4719.1
919.209,4691.8
920.293,4655.0
921.376,4624.9
922.46,4612.3
923.544,4577.6
924.627,4559.0
925.711,4529.3
926.794,4514.9
927.877,4508.9
928.96,4459.3
930.042,4413.9
931.125,4434.1
932.207,4400.9
933.29,4362.0
934.372,4352.4
935.454,4307.3
936.536,4301.5
937.617,4293.6
938.699,4290.0
939.78,4264.6
940.861,4247.6
941.943,4227.4
943.023,4200.9
944.104,4189.7
945.185,4163.6
946.265,4165.9
947.346,4158.0
948.426,4126.0
949.506,4115.2
950.586,4103.7
951.665,4086.2
952.745,4083.9
953.824,4059.4
954.904,4054.9
955.983,4037.2
957.062,4024.6
958.141,4007.4
959.219,4004.1
960.298,3988.2
961.376,3985.2
962.454,3977.8
963.532,3963.5
964.61,3951.9
965.688,3956.3
966.765,3941.6
967.842,3929.0
968.92,3924.4
969.997,3923.7
971.074,3906.6
972.15,3905.9
973.227,3891.5
974.303,3886.8
975.379,3887.8
976.455,3882.7
977.531,3872.9
978.607,3862.0
979.683,3855.8
980.758,3854.3
981.833,3844.1
982.908,3843.0
983.983,3833.2
985.058,3828.4
986.133,3823.7
987.207,3823.0
988.281,3817.9
989.355,3813.5
990.429,3806.4
991.503,3801.8
992.577,3799.4
993.65,3793.9
994.723,3792.0
995.796,3791.2
996.869,3784.8
997.942,3783.5
999.014,3781.7
1000.09,3780.4
1001.16,3772.1
1002.23,3773.0
1003.3,3767.7
1004.37,3768.2
1005.45,3761.5
1006.52,3760.0
1007.59,3758.2
1008.66,3758.6
1009.73,3750.6
1010.8,3753.1
1011.87,3749.6
1012.94,3752.1
1014.01,3751.8
1015.08,3746.0
1016.15,3746.4
1017.22,3742.2
1018.29,3740.6
1019.36,3742.7
1020.43,3744.1
1021.5,3744.0
1022.57,3747.3
1023.64,3737.5
1024.7,3737.0
1025.77,3735.3
1026.84,3730.1
1027.91,3728.9
1028.97,3727.4
1030.04,3724.1
1031.11,3724.6
1032.18,3724.4
1033.24,3725.4
1034.31,3728.0
1035.38,3728.4
1036.44,3720.4
1037.51,3723.0
1038.58,3718.4
1039.64,3716.6
1040.71,3719.1
1041.77,3716.8
1042.84,3714.1
1043.9,3715.7
1044.97,3714.4
1046.03,3711.4
1047.1,3713.4
1048.16,3714.0
1049.22,3713.7
1050.29,3710.8
1051.35,3712.3
1052.42,3709.2
1053.48,3710.8
1054.54,3711.5
1055.61,3710.8
1056.67,3711.2
1057.73,3711.5
1058.79,3710.3
1059.86,3709.2
1060.92,3712.5
1061.98,3709.9
1063.04,3707.9
1064.1,3709.3
1065.16,3709.4
1066.22,3709.6
1067.29,3707.5
1068.08,3706.2

File: VLFR_07-PET_bio_Raman_2427d467.csv
nm,Intensity
791.377,19390.7
792.477,17609.5
793.576,16479.2
794.676,16103.0
795.775,15886.7
796.874,15674.3
797.973,15516.3
799.072,15722.3
800.171,15421.7
801.27,15350.0
802.368,15539.1
803.467,14957.7
804.565,14933.9
805.664,14724.3
806.762,14456.0
807.86,14307.9
808.958,14112.3
810.056,14225.1
811.153,13951.7
812.251,13899.4
813.349,13849.9
814.446,13590.4
815.543,13452.7
816.64,13270.8
817.737,13167.6
818.834,12876.0
819.931,12952.1
821.028,12740.8
822.125,12472.3
823.221,12360.0
824.317,12392.4
825.414,12414.4
826.51,12269.5
827.606,11950.5
828.702,11754.3
829.797,11634.7
830.893,11774.0
831.988,11481.1
833.084,11494.4
834.179,11318.3
835.274,11036.8
836.369,11120.4
837.464,11164.9
838.559,10960.2
839.654,11078.0
840.748,11168.8
841.843,11214.4
842.937,10796.3
844.031,10737.3
845.125,10373.4
846.219,10072.2
847.313,10290.3
848.407,9894.02
849.5,9937.98
850.593,9767.96
851.687,9792.62
852.78,9650.8
853.873,9560.8
854.966,9534.44
856.059,9371.94
857.151,9367.26
858.244,9508.28
859.336,9319.76
860.428,9529.44
861.52,9208.04
862.612,9005.56
863.704,8878.66
864.796,8995.1
865.888,8901.06
866.979,8643.36
868.07,8671.04
869.162,8608.56
870.253,8589.64
871.344,8658.6
872.434,9087.22
873.525,9069.52
874.615,8571.68
875.706,8413.66
876.796,8235.24
877.886,8127.64
878.976,8006.48
880.066,7916.1
881.156,7969.24
882.245,7984.1
883.335,7766.76
884.424,7874.82
885.513,7797.46
886.602,7601.76
887.691,7606.56
888.78,7517.6
889.868,7419.98
890.957,7324.42
892.045,7368.22
893.133,7227.56
894.221,7201.52
895.309,7044.48
896.397,7060.86
897.484,7297.72
898.571,8045.48
899.659,7426.1
900.746,6865.92
901.833,6808.46
902.92,6683.02
904.006,6617.36
905.093,6568.58
906.179,6640.5
907.266,7161.06
908.352,7210.58
909.438,6696.64
910.523,6297.04
911.609,6216.06
912.695,6167.1
913.78,6017.96
914.865,6028.92
915.95,5935.68
917.035,5872.12
918.12,5854.72
919.204,5725.36
920.289,5710.08
921.373,5691.78
922.457,5635.9
923.541,5568.5
924.625,5518.66
925.709,5484.2
926.792,5363.4
927.876,5435.68
928.959,5336.08
930.042,5236.24
931.125,5243.78
932.208,5178.28
933.29,5133.2
934.373,5107.62
935.455,5111.24
936.537,4996.68
937.619,4973.78
938.701,4940.56
939.782,4928.92
940.864,4907.5
941.945,4821.32
943.026,4794.78
944.107,4772.18
945.188,4768.8
946.269,4696.32
947.349,4699.1
948.43,4659.24
949.51,4626.92
950.59,4597.68
951.67,4583.0
952.75,4586.66
953.829,4501.2
954.909,4499.18
955.988,4472.94
957.067,4435.6
958.146,4437.52
959.224,4403.66
960.303,4382.78
961.381,4368.82
962.459,4348.48
963.537,4327.86
964.615,4311.4
965.693,4297.78
966.771,4273.68
967.848,4268.44
968.925,4242.74
970.002,4229.14
971.079,4215.12
972.156,4213.6
973.232,4174.28
974.309,4170.56
975.385,4158.58
976.461,4149.96
977.537,4129.64
978.612,4119.26
979.688,4108.96
980.763,4096.56
981.838,4085.24
982.913,4077.24
983.988,4061.98
985.063,4056.42
986.137,4049.66
987.211,4038.84
988.285,4032.46
989.359,4016.56
990.433,4008.22
991.506,3996.86
992.58,3991.78
993.653,3981.94
994.726,3977.44
995.799,3966.4
996.872,3956.16
997.944,3954.52
999.016,3950.44
1000.09,3935.14
1001.16,3936.36
1002.23,3932.64
1003.3,3918.38
1004.38,3912.46
1005.45,3913.3
1006.52,3908.36
1007.59,3897.4
1008.66,3892.6
1009.73,3885.88
1010.8,3880.52
1011.87,3879.24
1012.94,3874.12
1014.01,3872.98
1015.08,3866.2
1016.15,3866.2
1017.22,3863.14
1018.29,3856.04
1019.36,3853.04
1020.42,3855.8
1021.49,3859.92
1022.56,3863.78
1023.63,3856.62
1024.7,3845.12
1025.76,3840.74
1026.83,3834.02
1027.9,3832.86
1028.97,3825.26
1030.03,3822.28
1031.1,3818.2
1032.17,3817.52
1033.23,3819.66
1034.3,3820.88
1035.36,3824.32
1036.43,3821.38
1037.5,3812.98
1038.56,3806.84
1039.63,3803.78
1040.69,3802.16
1041.76,3800.5
1042.82,3798.84
1043.89,3798.94
1044.95,3795.0
1046.01,3795.08
1047.08,3794.12
1048.14,3793.38
1049.2,3791.94
1050.27,3791.6
1051.33,3792.46
1052.39,3791.28
1053.46,3790.14
1054.52,3789.86
1055.58,3789.18
1056.64,3787.78
1057.7,3787.9
1058.77,3787.54
1059.83,3787.66
1060.89,3786.5
1061.95,3787.3
1063.01,3785.28
1064.07,3785.88
1065.13,3785.62
1066.19,3785.74
1067.25,3784.04
1068.05,3784.12

File: VLFR_07-PET_bio_Raman_3357a926.csv
nm,Intensity
791.377,55200.5
792.477,55242.8
793.576,55479.1
794.676,55605.6
795.775,55361.6
796.874,55848.6
797.973,56691.4
799.072,56528.2
800.171,56530.8
801.27,56493.0
802.368,56098.2
803.467,55450.3
804.565,55471.4
805.664,55926.6
806.762,55273.2
807.86,55117.3
808.958,54714.4
810.056,53833.3
811.153,53885.1
812.251,53998.6
813.349,53832.1
814.446,52659.1
815.543,52833.1
816.64,51311.1
817.737,52207.8
818.834,51591.1
819.931,51508.3
821.028,50585.9
822.125,50537.7
823.221,50369.4
824.317,49594.0
825.414,49466.1
826.51,48647.9
827.606,48909.1
828.702,47595.4
829.797,47442.9
830.893,46225.8
831.988,46810.3
833.084,45930.1
834.179,45787.6
835.274,45074.0
836.369,44979.9
837.464,44689.9
838.559,44337.4
839.654,44098.4
840.748,43007.9
841.843,43063.1
842.937,42493.5
844.031,42325.9
845.125,40788.9
846.219,41427.2
847.313,40952.4
848.407,40055.6
849.5,39808.5
850.593,39147.6
851.687,38506.1
852.78,37992.9
853.873,38048.1
854.966,37538.6
856.059,36648.9
857.151,36509.2
858.244,36492.1
859.336,35786.3
860.428,35867.3
861.52,34595.3
862.612,34239.5
863.704,34171.5
864.796,34197.2
865.888,33353.4
866.979,31916.2
868.07,33153.4
869.162,32297.7
870.253,31990.7
871.344,31228.1
872.434,31586.0
873.525,30097.8
874.615,30090.2
875.706,30143.3
876.796,29960.3
877.886,29086.2
878.976,28565.4
880.066,28871.1
881.156,28001.2
882.245,27322.0
883.335,27475.7
884.424,26629.5
885.513,26411.9
886.602,25894.2
887.691,25945.4
888.78,25460.6
889.868,24979.8
890.957,24791.3
892.045,23799.5
893.133,23604.5
894.221,23486.7
895.309,22680.8
896.397,22849.8
897.484,22372.9
898.571,21998.8
899.659,21317.6
900.746,21106.8
901.833,20940.3
902.92,20241.9
904.006,19981.7
905.093,20027.6
906.179,19446.9
907.266,19163.5
908.352,19031.4
909.438,18394.6
910.523,17919.4
911.609,17700.3
912.695,17399.0
913.78,17232.6
914.865,17014.7
915.95,16497.8
917.035,16308.0
918.12,15986.7
919.204,15856.3
920.289,15262.4
921.373,14702.3
922.457,14826.8
923.541,14489.0
924.625,14011.0
925.709,13896.0
926.792,13602.0
927.876,13427.2
928.959,13066.8
930.042,12572.7
931.125,12429.3
932.208,12384.5
933.29,11854.8
934.373,11912.3
935.455,11683.6
936.537,11256.3
937.619,11094.0
938.701,10661.3
939.782,10646.4
940.864,10524.4
941.945,10319.3
943.026,9964.0
944.107,9928.15
945.188,9749.75
946.269,9436.8
947.349,9327.0
948.43,9153.8
949.51,8950.3
950.59,8696.2
951.67,8480.3
952.75,8477.65
953.829,8440.3
954.909,8144.45
955.988,8005.1
957.067,7979.05
958.146,7816.55
959.224,7602.65
960.303,7485.25
961.381,7340.2
962.459,7287.45
963.537,7167.9
964.615,7042.75
965.693,7011.5
966.771,6817.2
967.848,6709.4
968.925,6652.5
970.002,6539.95
971.079,6477.7
972.156,6379.6
973.232,6202.7
974.309,6176.6
975.385,6107.95
976.461,6035.95
977.537,5916.55
978.612,5868.8
979.688,5767.6
980.763,5683.25
981.838,5585.2
982.913,5622.85
983.988,5495.65
985.063,5394.55
986.137,5399.65
987.211,5272.35
988.285,5271.2
989.359,5184.35
990.433,5149.15
991.506,5061.8
992.58,5001.75
993.653,5006.4
994.726,4954.9
995.799,4889.95
996.872,4843.95
997.944,4785.75
999.016,4784.25
1000.09,4756.0
1001.16,4665.0
1002.23,4633.55
1003.3,4602.7
1004.38,4559.6
1005.45,4548.15
1006.52,4501.25
1007.59,4453.25
1008.66,4433.55
1009.73,4432.4
1010.8,4370.15
1011.87,4331.35
1012.94,4293.65
1014.01,4288.35
1015.08,4297.2
1016.15,4238.15
1017.22,4210.65
1018.29,4200.0
1019.36,4193.95
1020.42,4142.55
1021.49,4133.85
1022.56,4120.4
1023.63,4097.6
1024.7,4099.05
1025.76,4066.65
1026.83,4048.3
1027.9,4033.35
1028.97,4022.15
1030.03,4010.1
1031.1,3990.7
1032.17,3976.75
1033.23,3967.05
1034.3,3962.65
1035.36,3959.8
1036.43,3939.55
1037.5,3932.75
1038.56,3915.6
1039.63,3912.15
1040.69,3908.9
1041.76,3903.35
1042.82,3890.2
1043.89,3884.4
1044.95,3877.3
1046.01,3869.7
1047.08,3863.25
1048.14,3855.45
1049.2,3857.15
1050.27,3852.2
1051.33,3849.85
1052.39,3845.9
1053.46,3835.3
1054.52,3839.0
1055.58,3836.8
1056.64,3829.1
1057.7,3827.85
1058.77,3823.15
1059.83,3823.7
1060.89,3819.95
1061.95,3818.65
1063.01,3815.3
1064.07,3814.05
1065.13,3811.0
1066.19,3810.3
1067.25,3807.8
1068.05,3805.05

File: VLFR_07-PET_bio_Raman_4828cc98.csv
nm,Intensity
791.377,5918.12
792.477,5843.72
793.576,5817.88
794.676,5793.92
795.775,5771.96
796.874,5744.58
797.973,5797.1
799.072,5727.3
800.171,5743.3
801.27,5768.92
802.368,5703.86
803.467,5669.24
804.565,5639.3
805.664,5632.18
806.762,5589.78
807.86,5585.5
808.958,5506.92
810.056,5505.7
811.153,5432.56
812.251,5435.36
813.349,5379.02
814.446,5347.18
815.543,5328.24
816.64,5287.72
817.737,5224.48
818.834,5227.0
819.931,5211.58
821.028,5214.22
822.125,5132.86
823.221,5114.56
824.317,5084.92
825.414,5103.22
826.51,5053.7
827.606,5035.12
828.702,5011.42
829.797,5002.78
830.893,4978.84
831.988,4957.48
833.084,4935.64
834.179,4897.98
835.274,4861.42
836.369,4880.34
837.464,4893.36
838.559,4839.14
839.654,4844.08
840.748,4824.9
841.843,4822.9
842.937,4798.58
844.031,4736.5
845.125,4745.56
846.219,4724.88
847.313,4702.38
848.407,4702.74
849.5,4655.78
850.593,4660.04
851.687,4698.76
852.78,4664.14
853.873,4619.56
854.966,4588.96
856.059,4600.42
857.151,4591.16
858.244,4600.38
859.336,4598.04
860.428,4581.76
861.52,4555.3
862.612,4542.64
863.704,4535.0
864.796,4541.94
865.888,4509.9
866.979,4487.34
868.07,4488.52
869.162,4498.28
870.253,4489.3
871.344,4501.42
872.434,4496.72
873.525,4496.0
874.615,4476.16
875.706,4462.46
876.796,4452.08
877.886,4431.5
878.976,4447.18
880.066,4412.8
881.156,4419.54
882.245,4416.4
883.335,4403.98
884.424,4402.6
885.513,4395.48
886.602,4352.68
887.691,4376.28
888.78,4348.58
889.868,4343.6
890.957,4344.74
892.045,4324.5
893.133,4303.14
894.221,4299.06
895.309,4285.44
896.397,4281.5
897.484,4277.32
898.571,4309.1
899.659,4278.12
900.746,4227.3
901.833,4225.22
902.92,4223.26
904.006,4213.66
905.093,4198.32
906.179,4213.82
907.266,4220.5
908.352,4204.94
909.438,4175.62
910.523,4153.94
911.609,4140.06
912.695,4134.22
913.78,4117.24
914.865,4112.56
915.95,4107.84
917.035,4092.34
918.12,4099.48
919.204,4077.62
920.289,4073.12
921.373,4068.76
922.457,4061.5
923.541,4050.4
924.625,4043.96
925.709,4035.66
926.792,4017.16
927.876,4020.76
928.959,3998.76
930.042,3996.78
931.125,3979.4
932.208,3973.66
933.29,3965.72
934.373,3954.98
935.455,3950.38
936.537,3950.12
937.619,3943.18
938.701,3941.7
939.782,3942.94
940.864,3934.86
941.945,3927.34
943.026,3918.78
944.107,3913.96
945.188,3910.14
946.269,3908.6
947.349,3901.7
948.43,3897.98
949.51,3900.6
950.59,3893.0
951.67,3888.26
952.75,3884.16
953.829,3885.58
954.909,3882.48
955.988,3875.34
957.067,3874.04
958.146,3871.9
959.224,3866.14
960.303,3866.98
961.381,3863.56
962.459,3859.78
963.537,3858.02
964.615,3859.32
965.693,3855.06
966.771,3852.76
967.848,3854.16
968.925,3850.44
970.002,3847.0
971.079,3846.82
972.156,3846.18
973.232,3843.6
974.309,3840.26
975.385,3836.18
976.461,3835.0
977.537,3835.14
978.612,3834.16
979.688,3833.42
980.763,3828.38
981.838,3828.6
982.913,3828.3
983.988,3826.18
985.063,3825.46
986.137,3822.88
987.211,3823.28
988.285,3823.06
989.359,3821.32
990.433,3818.32
991.506,3818.02
992.58,3816.9
993.653,3815.26
994.726,3815.26
995.799,3811.48
996.872,3811.52
997.944,3809.76
999.016,3810.48
1000.09,3807.1
1001.16,3805.24
1002.23,3806.6
1003.3,3804.98
1004.38,3802.74
1005.45,3801.92
1006.52,3801.24
1007.59,3801.38
1008.66,3800.34
1009.73,3798.14
1010.8,3798.8
1011.87,3797.78
1012.94,3797.48
1014.01,3796.46
1015.08,3795.24
1016.15,3795.16
1017.22,3793.68
1018.29,3793.58
1019.36,3791.7
1020.42,3792.16
1021.49,3792.7
1022.56,3793.18
1023.63,3790.94
1024.7,3790.12
1025.76,3789.62
1026.83,3788.48
1027.9,3788.98
1028.97,3787.62
1030.03,3788.38
1031.1,3787.16
1032.17,3787.08
1033.23,3786.7
1034.3,3787.0
1035.36,3786.1
1036.43,3785.98
1037.5,3785.42
1038.56,3785.2
1039.63,3784.82
1040.69,3785.36
1041.76,3783.78
1042.82,3784.24
1043.89,3784.1
1044.95,3782.64
1046.01,3782.0
1047.08,3782.88
1048.14,3781.58
1049.2,3783.68
1050.27,3782.82
1051.33,3782.2
1052.39,3781.88
1053.46,3781.8
1054.52,3782.1
1055.58,3782.76
1056.64,3781.88
1057.7,3781.0
1058.77,3781.04
1059.83,3781.84
1060.89,3781.52
1061.95,3781.2
1063.01,3781.4
1064.07,3780.76
1065.13,3781.06
1066.19,3779.58
1067.25,3779.96
1068.05,3780.32

File: VLFR_07-PET_bio_Raman_5167b59f.csv
nm,Intensity
791.588,10239.0
792.685,9583.3
793.781,9254.3
794.878,9036.8
795.975,9015.1
797.071,8998.8
798.168,8958.3
799.264,9033.3
800.36,9008.3
801.456,8978.4
802.552,8992.4
803.648,8766.1
804.744,8692.0
805.84,8686.3
806.936,8525.2
808.031,8530.1
809.127,8508.7
810.222,8360.3
811.317,8255.8
812.412,8229.0
813.507,8140.1
814.602,8076.7
815.697,7996.7
816.792,7937.4
817.887,7788.6
818.981,7850.4
820.076,7806.7
821.17,7837.8
822.265,7674.1
823.359,7581.5
824.453,7566.1
825.547,7645.1
826.641,7564.1
827.735,7396.2
828.828,7383.3
829.922,7367.7
831.016,7403.5
832.109,7279.8
833.202,7237.8
834.295,7218.1
835.388,7077.7
836.481,7097.1
837.574,7106.3
838.667,7071.1
839.76,7036.0
840.852,7095.3
841.945,7092.3
843.037,6964.9
844.129,6881.1
845.221,6757.8
846.314,6713.8
847.405,6576.7
848.497,6595.8
849.589,6513.3
850.68,6484.4
851.772,6491.1
852.863,6423.8
853.955,6403.2
855.046,6401.3
856.137,6306.7
857.228,6340.8
858.318,6353.0
859.409,6374.7
860.5,6356.8
861.59,6299.5
862.681,6224.9
863.771,6174.0
864.861,6227.3
865.951,6093.1
867.041,6085.2
868.131,6060.7
869.22,6062.7
870.31,6053.5
871.399,6214.0
872.488,6262.6
873.578,6227.9
874.667,6110.0
875.756,6022.7
876.845,5985.8
877.933,5873.6
879.022,5892.0
880.11,5804.0
881.199,5855.9
882.287,5824.0
883.375,5754.5
884.463,5834.8
885.551,5748.8
886.639,5727.9
887.726,5686.4
888.814,5646.9
889.901,5599.6
890.988,5552.5
892.075,5538.5
893.162,5520.8
894.249,5470.0
895.336,5411.2
896.423,5412.7
897.509,5558.8
898.595,5773.4
899.682,5556.0
900.768,5267.1
901.854,5207.5
902.94,5228.1
904.025,5196.9
905.111,5176.9
906.196,5214.2
907.282,5386.1
908.367,5324.0
909.452,5169.0
910.537,5002.7
911.622,4965.5
912.706,4910.1
913.791,4881.5
914.875,4857.5
915.959,4794.5
917.044,4821.7
918.128,4764.5
919.211,4752.4
920.295,4724.0
921.379,4702.4
922.462,4677.6
923.546,4653.6
924.629,4634.3
925.712,4581.3
926.795,4555.1
927.877,4523.5
928.96,4491.4
930.043,4476.2
931.125,4451.0
932.207,4432.4
933.289,4401.4
934.371,4379.9
935.453,4349.9
936.535,4346.1
937.616,4336.2
938.697,4303.9
939.779,4300.6
940.86,4287.1
941.941,4257.8
943.022,4242.8
944.102,4239.7
945.183,4215.7
946.263,4204.3
947.343,4190.0
948.423,4172.3
949.503,4162.5
950.583,4154.7
951.663,4130.9
952.742,4116.4
953.822,4113.0
954.901,4101.8
955.98,4087.6
957.059,4097.3
958.137,4069.5
959.216,4048.9
960.294,4046.7
961.373,4039.2
962.451,4030.6
963.529,4024.9
964.607,4018.0
965.684,4014.0
966.762,4001.8
967.839,4004.5
968.917,3990.2
969.994,3990.6
971.071,3977.0
972.147,3970.2
973.224,3964.5
974.3,3955.6
975.377,3952.5
976.453,3940.0
977.529,3935.4
978.605,3928.2
979.68,3926.9
980.756,3921.8
981.831,3920.5
982.907,3921.1
983.982,3901.7
985.057,3903.0
986.131,3905.2
987.206,3897.3
988.28,3892.8
989.355,3890.5
990.429,3880.8
991.503,3872.8
992.576,3875.4
993.65,3872.0
994.723,3865.4
995.797,3859.5
996.87,3853.9
997.943,3855.7
999.016,3848.1
1000.09,3845.1
1001.16,3843.8
1002.23,3838.3
1003.31,3835.2
1004.38,3833.6
1005.45,3825.2
1006.52,3823.9
1007.59,3822.1
1008.66,3819.5
1009.73,3820.1
1010.81,3815.7
1011.88,3810.8
1012.95,3806.4
1014.02,3807.7
1015.09,3805.7
1016.16,3804.3
1017.23,3805.4
1018.3,3801.8
1019.37,3798.1
1020.44,3798.5
1021.51,3801.0
1022.58,3801.7
1023.64,3797.5
1024.71,3791.9
1025.78,3792.5
1026.85,3788.5
1027.92,3787.5
1028.99,3779.6
1030.05,3777.8
1031.12,3779.4
1032.19,3778.9
1033.26,3777.7
1034.32,3781.4
1035.39,3781.2
1036.46,3776.7
1037.52,3778.7
1038.59,3772.8
1039.66,3773.1
1040.72,3771.2
1041.79,3769.8
1042.86,3768.0
1043.92,3766.7
1044.99,3765.7
1046.05,3765.6
1047.12,3766.5
1048.18,3763.8
1049.25,3766.4
1050.31,3764.6
1051.37,3765.5
1052.44,3762.5
1053.5,3765.3
1054.57,3762.1
1055.63,3762.8
1056.69,3759.9
1057.76,3764.3
1058.82,3762.8
1059.88,3761.1
1060.95,3760.6
1062.01,3759.5
1063.07,3761.6
1064.13,3760.7
1065.19,3760.3
1066.26,3760.6
1067.32,3760.9
1068.11,3759.8