Folder: MPX_specDB/spectra (part 12)

File: VLFR_01-LDPE_bio_Raman_b8c9d9d1.csv
nm,Intensity
528.65,1855.75
529.155,1855.95
529.66,1856.3
530.165,1856.9
530.67,1856.75
531.175,1857.65
531.68,1874.8
532.185,2678.55
532.69,1856.6
533.194,1858.45
533.699,1966.25
534.204,2271.15
534.708,2234.95
535.213,2201.4
535.717,2178.05
536.222,2146.65
536.726,2136.6
537.231,2137.35
537.735,2145.1
538.239,2145.7
538.743,2179.7
539.247,2191.25
539.751,2132.95
540.255,2120.75
540.759,2117.0
541.263,2107.45
541.767,2117.3
542.271,2128.25
542.775,2131.3
543.279,2128.15
543.782,2118.1
544.286,2118.35
544.789,2114.3
545.293,2112.05
545.796,2111.45
546.3,2116.35
546.803,2102.1
547.306,2122.05
547.81,2114.9
548.313,2112.25
548.816,2119.2
549.319,2114.1
549.822,2114.5
550.325,2123.55
550.828,2136.8
551.331,2138.9
551.834,2141.6
552.337,2139.1
552.839,2129.65
553.342,2142.85
553.844,2126.85
554.347,2140.9
554.849,2136.15
555.352,2137.95
555.854,2144.9
556.357,2152.15
556.859,2158.6
557.361,2166.95
557.863,2176.9
558.365,2178.05
558.867,2186.45
559.369,2166.1
559.871,2158.8
560.373,2157.55
560.875,2166.45
561.377,2173.55
561.878,2187.6
562.38,2197.05
562.881,2208.35
563.383,2238.9
563.884,2462.0
564.386,2331.5
564.887,2292.55
565.388,2250.65
565.89,2399.9
566.391,2370.45
566.892,2246.25
567.393,2267.35
567.894,2237.25
568.395,2231.7
568.896,2233.9
569.396,2246.25
569.897,2248.2
570.398,2278.75
570.898,2322.0
571.399,2696.85
571.9,2460.5
572.4,2350.95
572.9,2312.1
573.401,2294.45
573.901,2323.75
574.401,2293.8
574.901,2280.05
575.401,2418.2
575.901,2577.05
576.401,2842.7
576.901,2708.6
577.401,2459.95
577.901,2362.2
578.4,2352.25
578.9,2343.25
579.399,2353.65
579.899,2351.1
580.398,2372.15
580.898,2392.6
581.397,2407.85
581.896,2408.05
582.395,2413.4
582.895,2425.7
583.394,2433.15
583.893,2455.05
584.391,2467.15
584.89,2478.5
585.389,2510.1
585.888,2517.65
586.386,2530.85
586.885,2585.8
587.384,2594.2
587.882,2663.8
588.38,2672.65
588.879,2675.65
589.377,2721.5
589.875,2748.65
590.373,2781.15
590.871,2834.9
591.369,2863.4
591.867,2870.75
592.365,2906.9
592.863,2909.15
593.361,2889.3
593.858,2888.65
594.356,2922.35
594.853,2934.95
595.351,2971.0
595.848,2997.95
596.345,2974.0
596.843,3005.05
597.34,3043.95
597.837,3081.65
598.334,3044.35
598.831,3125.35
599.328,3105.25
599.824,3114.4
600.321,3152.95
600.818,3126.9
601.314,3113.25
601.811,3130.0
602.307,3102.4
602.804,3064.2
603.3,3047.95
603.796,3035.1
604.293,2978.55
604.789,2920.45
605.285,2881.8
605.781,2872.45
606.277,2846.0
606.772,2828.6
607.268,2760.25
607.764,2778.8
608.259,2711.7
608.755,2730.2
609.25,2694.95
609.746,2668.45
610.241,2670.8
610.736,2642.85
611.231,2634.5
611.727,2629.75
612.222,2599.2
612.716,2607.6
613.211,2575.05
613.706,2577.0
614.201,2545.95
614.695,2557.8
615.19,2540.0
615.684,2521.95
616.179,2522.95
616.673,2518.35
617.168,2529.65
617.662,2511.45
618.156,2504.05
618.65,2513.4
619.144,2510.3
619.638,2522.6
620.131,2528.15
620.625,2517.25
621.119,2526.5
621.612,2601.5
622.106,2688.0
622.599,2639.1
623.093,2499.95
623.586,2466.15
624.079,2466.75
624.572,2465.6
625.065,2463.15
625.558,2495.05
626.051,2562.75
626.544,2976.85
627.037,5187.15
627.529,5224.8
628.022,4445.5
628.514,5765.55
629.007,4624.8
629.499,4198.7
629.991,3786.6
630.483,3656.0
630.976,3075.55
631.468,2675.0
631.959,2559.35
632.451,2474.45
632.943,2445.65
633.435,2431.7
633.926,2387.8
634.418,2393.7
634.909,2379.75
635.401,2376.5
635.892,2372.5
636.383,2390.4
636.874,2360.5
637.365,2355.9
637.856,2362.6
638.347,2390.85
638.838,2369.95
639.329,2350.65
639.819,2354.95
640.31,2350.25
640.8,2368.1
641.291,2369.95
641.781,2358.9
642.271,2361.05
642.761,2382.4
643.251,2366.0
643.741,2382.45
644.231,2373.15
644.721,2370.25
645.211,2390.2
645.7,2369.1
646.19,2368.05
646.679,2364.7
647.169,2375.5
647.658,2348.95
648.147,2361.8
648.636,2344.2
649.125,2350.15
649.614,2357.3
650.103,2349.05
650.592,2365.0
651.08,2349.65
651.569,2350.85
652.058,2353.8
652.546,2341.2
653.034,2335.9
653.523,2332.2
654.011,2336.5
654.499,2330.15
654.987,2311.35
655.475,2313.35
655.963,2299.1
656.45,2285.45
656.938,2288.25
657.425,2266.75
657.913,2274.55
658.4,2249.9
658.888,2228.4
659.375,2231.6
659.862,2214.45
660.349,2193.35
660.836,2199.3
661.079,2186.45

File: VLFR_01-LDPE_bio_Raman_b846bd83.csv
nm,Intensity
526.508,830.7
527.055,829.7
527.602,829.6
528.149,829.7
528.695,828.9
529.241,828.9
529.787,829.3
530.334,830.9
530.879,829.8
531.425,830.1
531.971,832.1
532.516,830.6
533.062,829.8
533.607,831.2
534.152,916.5
534.697,901.3
535.242,882.2
535.786,873.0
536.331,865.3
536.876,859.3
537.42,857.7
537.964,858.6
538.508,855.5
539.052,854.9
539.596,851.4
540.14,848.0
540.683,846.6
541.227,846.3
541.77,845.5
542.313,847.5
542.856,846.0
543.399,845.6
543.942,846.2
544.485,845.6
545.027,843.3
545.57,843.3
546.112,842.8
546.654,843.4
547.196,843.2
547.738,843.4
548.28,844.2
548.822,841.3
549.363,842.0
549.905,842.2
550.446,841.0
550.988,839.8
551.529,842.3
552.07,843.5
552.611,842.6
553.152,843.1
553.692,845.7
554.233,845.7
554.773,846.4
555.314,846.9
555.854,849.4
556.394,851.2
556.934,854.2
557.474,856.7
558.014,862.0
558.553,861.2
559.093,857.8
559.632,853.7
560.172,854.8
560.711,854.8
561.25,853.9
561.789,856.8
562.328,858.0
562.867,865.0
563.406,869.2
563.944,925.5
564.483,892.6
565.021,886.9
565.559,875.8
566.098,957.4
566.636,883.6
567.174,873.8
567.711,876.5
568.249,872.0
568.787,869.6
569.324,874.3
569.862,878.3
570.399,882.8
570.936,893.6
571.474,994.4
572.011,935.0
572.548,912.0
573.084,905.6
573.621,913.2
574.158,919.8
574.694,921.9
575.231,931.5
575.767,989.5
576.303,1099.9
576.84,1055.5
577.376,1020.8
577.912,992.6
578.447,1000.7
578.983,1018.5
579.519,1037.4
580.054,1044.6
580.59,1066.4
581.125,1077.7
581.661,1091.7
582.196,1110.4
582.731,1126.1
583.266,1142.2
583.801,1149.7
584.336,1161.0
584.87,1172.8
585.405,1187.5
585.94,1203.6
586.474,1209.4
587.008,1239.5
587.543,1247.8
588.077,1260.8
588.611,1280.4
589.145,1288.6
589.679,1314.8
590.213,1332.6
590.747,1358.0
591.28,1373.3
591.814,1382.7
592.347,1387.3
592.881,1397.0
593.414,1408.4
593.947,1410.6
594.48,1426.7
595.014,1425.4
595.547,1445.9
596.079,1438.9
596.612,1453.0
597.145,1465.4
597.678,1471.6
598.21,1487.6
598.743,1499.6
599.275,1530.1
599.807,1516.6
600.34,1523.4
600.872,1520.3
601.404,1514.2
601.936,1513.5
602.468,1497.6
603.0,1497.1
603.532,1466.9
604.063,1441.9
604.595,1438.1
605.126,1405.9
605.658,1377.9
606.189,1357.3
606.721,1332.0
607.252,1304.8
607.783,1295.0
608.314,1276.0
608.845,1259.7
609.376,1260.8
609.907,1233.8
610.438,1219.1
610.968,1217.4
611.499,1203.5
612.03,1192.3
612.56,1189.6
613.091,1180.5
613.621,1169.6
614.151,1160.8
614.681,1162.9
615.212,1152.1
615.742,1144.1
616.272,1133.9
616.802,1135.5
617.332,1131.0
617.861,1124.9
618.391,1125.3
618.921,1112.7
619.45,1109.1
619.98,1110.8
620.509,1107.4
621.039,1109.0
621.568,1114.2
622.097,1136.2
622.627,1133.7
623.156,1105.3
623.685,1096.3
624.214,1095.9
624.743,1089.8
625.272,1100.8
625.801,1103.0
626.33,1129.7
626.858,1352.0
627.387,1873.3
627.916,1569.3
628.444,1784.3
628.973,1681.6
629.501,1551.8
630.029,1425.2
630.558,1397.6
631.086,1253.0
631.614,1154.6
632.142,1127.6
632.67,1111.4
633.198,1108.6
633.726,1108.2
634.254,1111.2
634.782,1113.0
635.31,1108.4
635.838,1106.1
636.365,1113.5
636.893,1114.4
637.421,1109.8
637.948,1116.5
638.476,1122.2
639.003,1124.4
639.531,1129.4
640.058,1135.2
640.585,1141.3
641.113,1146.2
641.64,1153.6
642.167,1157.3
642.694,1158.5
643.221,1157.8
643.748,1162.8
644.275,1166.4
644.802,1169.1
645.329,1171.3
645.856,1173.0
646.382,1172.9
646.909,1178.5
647.436,1175.2
647.962,1173.7
648.489,1172.1
649.016,1169.3
649.542,1169.4
650.069,1164.7
650.595,1170.2
651.121,1163.2
651.648,1168.5
652.174,1166.6
652.7,1172.6
653.227,1170.1
653.753,1167.1
654.279,1167.9
654.805,1161.0
655.331,1154.3
655.857,1160.2
656.383,1147.9
656.909,1148.1
657.435,1140.5
657.961,1131.3
658.487,1135.6
659.013,1120.0
659.538,1112.5
660.064,1106.1
660.59,1092.0
661.116,1082.9
661.641,1074.2
662.167,1058.2
662.692,1051.9
663.087,1047.8

File: VLFR_01-LDPE_bio_Raman_b795649d.csv
nm,Intensity
528.65,1850.4
529.155,1849.35
529.66,1850.15
530.165,1850.4
530.67,1850.95
531.175,1851.5
531.68,1879.55
532.185,3828.15
532.69,1852.2
533.194,1851.1
533.699,1961.45
534.204,2333.95
534.708,2328.25
535.213,2304.6
535.717,2281.35
536.222,2261.0
536.726,2262.65
537.231,2248.4
537.735,2263.75
538.239,2254.4
538.743,2249.55
539.247,2268.9
539.751,2243.25
540.255,2231.35
540.759,2240.15
541.263,2235.7
541.767,2233.75
542.271,2248.85
542.775,2251.35
543.279,2249.0
543.782,2237.95
544.286,2241.2
544.789,2242.1
545.293,2245.9
545.796,2222.45
546.3,2242.1
546.803,2242.45
547.306,2240.5
547.81,2238.4
548.313,2256.15
548.816,2254.1
549.319,2245.95
549.822,2249.15
550.325,2250.95
550.828,2254.85
551.331,2255.95
551.834,2251.9
552.337,2267.4
552.839,2260.3
553.342,2258.75
553.844,2278.75
554.347,2279.2
554.849,2270.9
555.352,2279.3
555.854,2290.55
556.357,2294.5
556.859,2304.5
557.361,2323.75
557.863,2321.95
558.365,2327.05
558.867,2321.75
559.369,2330.8
559.871,2318.3
560.373,2337.0
560.875,2331.85
561.377,2323.0
561.878,2348.7
562.38,2360.6
562.881,2374.9
563.383,2398.15
563.884,2609.4
564.386,2485.05
564.887,2470.2
565.388,2434.95
565.89,2555.6
566.391,2567.25
566.892,2424.05
567.393,2427.45
567.894,2414.95
568.395,2421.65
568.896,2426.85
569.396,2428.4
569.897,2429.65
570.398,2465.3
570.898,2500.15
571.399,2846.45
571.9,2672.8
572.4,2538.05
572.9,2508.05
573.401,2473.4
573.901,2518.25
574.401,2485.7
574.901,2503.6
575.401,2597.1
575.901,2734.9
576.401,3025.8
576.901,2849.25
577.401,2670.85
577.901,2541.5
578.4,2540.2
578.9,2549.15
579.399,2551.35
579.899,2575.0
580.398,2591.55
580.898,2579.05
581.397,2572.75
581.896,2570.6
582.395,2606.95
582.895,2599.55
583.394,2622.35
583.893,2648.2
584.391,2635.45
584.89,2657.05
585.389,2644.3
585.888,2667.0
586.386,2684.9
586.885,2691.95
587.384,2736.25
587.882,2714.25
588.38,2755.65
588.879,2771.25
589.377,2780.7
589.875,2785.3
590.373,2795.75
590.871,2799.5
591.369,2825.8
591.867,2823.1
592.365,2855.95
592.863,2856.4
593.361,2842.1
593.858,2874.8
594.356,2847.65
594.853,2872.15
595.351,2886.0
595.848,2921.65
596.345,2948.75
596.843,2929.1
597.34,2952.6
597.837,2960.8
598.334,2976.1
598.831,2996.95
599.328,3010.7
599.824,3027.85
600.321,3036.3
600.818,3051.6
601.314,3034.35
601.811,2999.2
602.307,3026.05
602.804,2973.85
603.3,2994.15
603.796,2993.5
604.293,2919.65
604.789,2903.95
605.285,2871.15
605.781,2850.2
606.277,2847.9
606.772,2810.1
607.268,2798.35
607.764,2785.15
608.259,2759.65
608.755,2711.7
609.25,2725.6
609.746,2700.45
610.241,2690.9
610.736,2680.35
611.231,2696.35
611.727,2673.2
612.222,2640.45
612.716,2642.3
613.211,2646.1
613.706,2638.15
614.201,2610.2
614.695,2616.7
615.19,2614.3
615.684,2599.45
616.179,2596.0
616.673,2592.65
617.168,2609.0
617.662,2595.9
618.156,2594.0
618.65,2582.3
619.144,2587.1
619.638,2614.2
620.131,2596.8
620.625,2590.8
621.119,2589.4
621.612,2656.7
622.106,2716.05
622.599,2696.35
623.093,2602.9
623.586,2571.2
624.079,2555.3
624.572,2551.0
625.065,2542.7
625.558,2587.25
626.051,2628.35
626.544,2922.95
627.037,4674.0
627.529,4705.95
628.022,4159.65
628.514,5289.55
629.007,4333.85
629.499,3926.25
629.991,3592.7
630.483,3467.8
630.976,3047.7
631.468,2709.65
631.959,2590.25
632.451,2535.55
632.943,2507.3
633.435,2484.05
633.926,2463.3
634.418,2446.95
634.909,2468.85
635.401,2443.55
635.892,2440.9
636.383,2435.95
636.874,2409.35
637.365,2427.5
637.856,2422.35
638.347,2399.25
638.838,2407.2
639.329,2415.15
639.819,2403.2
640.31,2393.8
640.8,2386.2
641.291,2401.65
641.781,2399.0
642.271,2403.65
642.761,2393.65
643.251,2390.3
643.741,2397.25
644.231,2397.2
644.721,2374.5
645.211,2394.5
645.7,2367.9
646.19,2365.1
646.679,2372.6
647.169,2368.15
647.658,2376.1
648.147,2359.6
648.636,2341.4
649.125,2351.7
649.614,2362.85
650.103,2335.25
650.592,2345.15
651.08,2345.6
651.569,2337.55
652.058,2324.45
652.546,2333.7
653.034,2300.5
653.523,2310.95
654.011,2293.35
654.499,2296.0
654.987,2275.5
655.475,2277.0
655.963,2272.65
656.45,2267.9
656.938,2256.05
657.425,2261.2
657.913,2243.45
658.4,2230.05
658.888,2215.7
659.375,2204.8
659.862,2200.05
660.349,2183.4
660.836,2179.55
661.079,2172.25

File: VLFR_01-LDPE_bio_Raman_b3902966.csv
nm,Intensity
526.495,829.55
527.042,829.45
527.589,829.45
528.136,828.2
528.682,829.0
529.229,827.6
529.775,829.7
530.321,829.3
530.867,828.85
531.413,829.05
531.959,831.6
532.505,829.95
533.051,828.25
533.596,829.65
534.141,852.2
534.687,847.8
535.232,844.6
535.777,841.25
536.321,837.4
536.866,838.0
537.41,838.8
537.955,837.8
538.499,837.75
539.043,835.8
539.587,835.2
540.131,835.15
540.675,834.75
541.219,834.8
541.762,833.95
542.305,835.0
542.849,834.4
543.392,835.7
543.935,835.3
544.478,835.35
545.02,832.5
545.563,834.4
546.106,833.4
546.648,833.75
547.19,833.95
547.732,833.3
548.274,834.45
548.816,834.5
549.358,832.3
549.9,834.65
550.441,833.2
550.983,833.9
551.524,834.05
552.065,833.95
552.606,833.45
553.147,833.2
553.688,835.0
554.229,835.15
554.769,834.5
555.31,835.45
555.85,836.7
556.391,835.8
556.931,836.2
557.471,836.1
558.011,837.45
558.551,837.9
559.09,837.0
559.63,837.65
560.169,836.25
560.709,835.8
561.248,835.65
561.787,836.35
562.326,836.65
562.865,837.9
563.404,838.1
563.943,849.6
564.481,843.7
565.02,842.25
565.558,838.7
566.096,853.3
566.634,838.4
567.172,839.2
567.71,838.35
568.248,836.35
568.786,836.45
569.324,837.4
569.861,837.75
570.399,838.1
570.936,840.55
571.473,860.4
572.01,848.35
572.547,841.55
573.084,839.0
573.621,840.1
574.158,841.8
574.694,838.15
575.231,840.05
575.767,851.2
576.303,873.3
576.84,860.5
577.376,851.25
577.912,843.3
578.448,842.5
578.984,841.2
579.519,841.85
580.055,842.6
580.59,842.35
581.126,843.25
581.661,844.65
582.196,845.7
582.731,845.95
583.267,847.1
583.801,848.35
584.336,849.15
584.871,849.65
585.406,851.05
585.94,853.25
586.475,852.85
587.009,853.4
587.543,855.55
588.078,857.65
588.612,857.0
589.146,860.35
589.68,862.2
590.214,862.6
590.747,865.15
591.281,862.65
591.815,866.5
592.348,868.45
592.881,867.35
593.415,869.45
593.948,868.85
594.481,869.3
595.014,872.6
595.547,873.7
596.08,874.15
596.613,879.05
597.146,877.45
597.678,880.2
598.211,883.25
598.743,884.55
599.276,885.0
599.808,887.25
600.34,887.05
600.872,883.9
601.404,887.05
601.936,886.6
602.468,889.05
603.0,884.55
603.532,884.55
604.064,881.65
604.595,878.95
605.127,875.5
605.658,874.3
606.189,873.4
606.721,870.65
607.252,870.15
607.783,867.25
608.314,866.65
608.845,867.2
609.376,863.9
609.907,864.9
610.438,862.55
610.968,862.5
611.499,861.45
612.029,859.05
612.56,859.9
613.09,859.65
613.621,857.85
614.151,859.7
614.681,859.05
615.211,857.05
615.741,857.2
616.271,856.1
616.801,856.75
617.331,856.9
617.861,857.2
618.39,857.15
618.92,856.05
619.45,857.15
619.979,857.25
620.509,856.55
621.038,858.8
621.567,861.6
622.096,867.05
622.626,864.55
623.155,858.75
623.684,856.4
624.213,856.9
624.742,857.95
625.271,857.8
625.799,858.8
626.328,867.1
626.857,931.25
627.386,1068.65
627.914,979.95
628.443,1040.45
628.971,1004.35
629.5,971.95
630.028,941.35
630.556,935.2
631.084,892.7
631.613,868.9
632.141,861.75
632.669,859.25
633.197,855.65
633.725,853.4
634.253,854.9
634.781,854.15
635.308,853.0
635.836,852.7
636.364,852.05
636.891,851.0
637.419,852.2
637.947,851.4
638.474,850.6
639.002,852.7
639.529,852.8
640.056,853.9
640.584,853.7
641.111,854.35
641.638,854.25
642.165,854.4
642.692,854.95
643.219,857.2
643.746,856.05
644.273,855.35
644.8,855.7
645.327,854.4
645.854,855.75
646.381,855.1
646.908,854.75
647.434,855.3
647.961,856.4
648.488,857.35
649.014,855.8
649.541,858.6
650.067,856.35
650.594,855.95
651.12,857.2
651.646,857.55
652.173,857.3
652.699,857.75
653.225,857.75
653.752,858.25
654.278,859.0
654.804,859.7
655.33,855.65
655.856,858.9
656.382,857.9
656.908,857.95
657.434,856.95
657.96,856.35
658.486,853.9
659.012,855.75
659.538,853.8
660.064,855.8
660.589,853.2
661.115,853.8
661.641,852.3
662.166,851.1
662.692,851.65
663.086,847.9

File: VLFR_01-LDPE_bio_Raman_c2ada278.csv
nm,Intensity
526.547,832.75
527.095,831.5
527.642,831.45
528.189,833.1
528.736,832.15
529.283,832.5
529.829,832.8
530.376,832.1
530.922,832.45
531.468,831.4
532.014,836.2
532.56,832.2
533.106,831.55
533.651,833.65
534.196,888.55
534.742,879.4
535.287,871.6
535.832,863.75
536.376,862.25
536.921,861.25
537.465,860.4
538.01,860.95
538.554,858.85
539.098,860.6
539.642,855.8
540.186,854.15
540.729,852.55
541.273,852.7
541.816,851.65
542.36,853.6
542.903,852.2
543.446,853.35
543.988,851.65
544.531,851.65
545.074,851.7
545.616,849.55
546.158,849.9
546.701,850.8
547.243,850.55
547.785,850.0
548.326,851.8
548.868,850.45
549.41,849.75
549.951,850.15
550.492,850.1
551.034,850.5
551.575,850.55
552.116,851.85
552.656,851.45
553.197,851.15
553.738,851.95
554.278,850.5
554.819,853.85
555.359,853.6
555.899,855.0
556.439,855.25
556.979,854.75
557.519,858.5
558.058,861.1
558.598,861.7
559.137,858.2
559.677,858.2
560.216,858.35
560.755,857.0
561.294,860.0
561.833,856.9
562.371,859.6
562.91,863.35
563.449,865.55
563.987,907.85
564.525,877.45
565.064,874.4
565.602,872.0
566.14,928.3
566.678,873.7
567.216,871.4
567.753,871.95
568.291,869.95
568.828,871.2
569.366,872.35
569.903,878.3
570.44,881.55
570.977,888.4
571.514,962.8
572.051,909.5
572.588,896.8
573.125,897.75
573.661,901.5
574.198,908.3
574.734,911.9
575.271,921.2
575.807,954.0
576.343,1008.3
576.879,989.65
577.415,977.95
577.951,970.85
578.486,978.4
579.022,993.95
579.557,1000.25
580.093,1010.35
580.628,1020.55
581.164,1030.65
581.699,1039.7
582.234,1050.95
582.769,1056.1
583.304,1065.35
583.838,1072.15
584.373,1080.2
584.908,1087.3
585.442,1094.2
585.977,1107.55
586.511,1119.9
587.045,1130.05
587.58,1148.2
588.114,1151.1
588.648,1165.45
589.182,1169.85
589.715,1181.8
590.249,1191.7
590.783,1203.0
591.316,1213.45
591.85,1223.05
592.383,1222.1
592.917,1233.95
593.45,1234.85
593.983,1237.35
594.516,1248.4
595.049,1252.0
595.582,1261.35
596.115,1268.4
596.648,1287.1
597.18,1295.95
597.713,1304.2
598.245,1325.95
598.778,1331.3
599.31,1342.9
599.842,1356.7
600.375,1351.45
600.907,1351.5
601.439,1349.35
601.971,1337.15
602.503,1329.45
603.034,1319.9
603.566,1308.75
604.098,1281.45
604.629,1267.05
605.161,1246.1
605.692,1221.65
606.224,1199.25
606.755,1186.8
607.286,1183.4
607.817,1172.7
608.348,1157.0
608.879,1145.35
609.41,1138.15
609.941,1129.75
610.472,1115.95
611.002,1115.0
611.533,1108.7
612.063,1103.45
612.594,1098.65
613.124,1094.75
613.655,1088.5
614.185,1080.45
614.715,1073.2
615.245,1074.6
615.775,1065.5
616.305,1057.6
616.835,1057.05
617.365,1058.0
617.895,1055.45
618.425,1055.35
618.954,1046.85
619.484,1046.7
620.013,1046.3
620.543,1041.85
621.072,1044.5
621.602,1047.45
622.131,1057.75
622.66,1054.05
623.189,1044.45
623.718,1039.65
624.247,1034.9
624.776,1034.95
625.305,1039.15
625.834,1041.55
626.363,1060.4
626.891,1201.85
627.42,1443.15
627.949,1293.65
628.477,1448.8
629.006,1349.65
629.534,1286.1
630.062,1228.9
630.591,1217.7
631.119,1123.3
631.647,1083.0
632.175,1063.75
632.703,1058.0
633.231,1053.75
633.759,1052.2
634.287,1050.3
634.815,1046.9
635.343,1049.3
635.871,1053.65
636.398,1055.0
636.926,1055.85
637.454,1057.75
637.981,1060.25
638.509,1057.0
639.036,1058.9
639.564,1065.95
640.091,1066.85
640.618,1068.55
641.146,1071.3
641.673,1071.8
642.2,1074.35
642.727,1075.9
643.254,1078.25
643.781,1078.8
644.308,1077.2
644.835,1080.8
645.362,1076.85
645.889,1081.6
646.416,1081.55
646.942,1079.0
647.469,1080.45
647.996,1081.85
648.522,1080.5
649.049,1083.8
649.576,1080.05
650.102,1079.75
650.629,1083.55
651.155,1086.0
651.682,1086.45
652.208,1087.9
652.734,1086.8
653.261,1091.9
653.787,1090.3
654.313,1087.05
654.839,1087.25
655.365,1085.15
655.892,1080.25
656.418,1078.0
656.944,1070.6
657.47,1074.5
657.996,1064.5
658.522,1058.3
659.048,1047.6
659.574,1043.8
660.099,1037.7
660.625,1030.0
661.151,1023.95
661.677,1015.75
662.203,1006.75
662.728,1004.75
663.123,996.95

File: VLFR_01-LDPE_bio_Raman_c5d3db52.csv
nm,Intensity
526.508,829.3
527.055,831.9
527.602,829.7
528.149,830.5
528.695,829.7
529.241,830.4
529.787,830.0
530.334,829.7
530.879,830.8
531.425,829.4
531.971,832.7
532.516,831.4
533.062,830.0
533.607,829.8
534.152,891.6
534.697,882.1
535.242,871.3
535.786,863.6
536.331,860.8
536.876,858.1
537.42,859.6
537.964,855.8
538.508,856.1
539.052,854.3
539.596,852.0
540.14,850.7
540.683,849.2
541.227,848.4
541.77,846.5
542.313,847.1
542.856,846.5
543.399,847.1
543.942,848.9
544.485,848.3
545.027,845.6
545.57,845.0
546.112,847.4
546.654,845.5
547.196,845.6
547.738,843.5
548.28,846.9
548.822,846.2
549.363,845.0
549.905,845.8
550.446,844.7
550.988,846.1
551.529,844.9
552.07,845.3
552.611,844.7
553.152,843.5
553.692,847.4
554.233,847.0
554.773,849.6
555.314,850.1
555.854,851.7
556.394,852.5
556.934,854.9
557.474,856.3
558.014,858.0
558.553,857.8
559.093,857.7
559.632,855.7
560.172,857.7
560.711,857.0
561.25,856.0
561.789,858.3
562.328,861.5
562.867,862.7
563.406,868.4
563.944,906.5
564.483,883.0
565.021,882.3
565.559,877.3
566.098,939.6
566.636,881.3
567.174,869.7
567.711,874.8
568.249,872.1
568.787,877.9
569.324,880.3
569.862,884.9
570.399,885.3
570.936,894.2
571.474,964.2
572.011,924.6
572.548,908.9
573.084,906.8
573.621,916.9
574.158,926.8
574.694,928.5
575.231,936.6
575.767,988.5
576.303,1033.5
576.84,1017.7
577.376,1006.8
577.912,1004.0
578.447,1018.0
578.983,1028.0
579.519,1047.2
580.054,1066.9
580.59,1083.6
581.125,1105.4
581.661,1115.1
582.196,1134.8
582.731,1150.8
583.266,1175.9
583.801,1183.1
584.336,1204.1
584.87,1214.7
585.405,1231.7
585.94,1250.6
586.474,1278.3
587.008,1294.7
587.543,1313.6
588.077,1344.7
588.611,1367.6
589.145,1394.4
589.679,1420.8
590.213,1459.3
590.747,1488.8
591.28,1500.7
591.814,1526.2
592.347,1544.5
592.881,1557.7
593.414,1564.2
593.947,1573.6
594.48,1594.4
595.014,1605.4
595.547,1628.9
596.079,1643.1
596.612,1665.1
597.145,1688.7
597.678,1705.7
598.21,1730.1
598.743,1762.1
599.275,1770.1
599.807,1782.3
600.34,1789.8
600.872,1785.6
601.404,1762.1
601.936,1760.5
602.468,1744.6
603.0,1720.5
603.532,1708.0
604.063,1673.5
604.595,1647.0
605.126,1604.1
605.658,1558.1
606.189,1537.8
606.721,1505.7
607.252,1486.9
607.783,1457.2
608.314,1437.2
608.845,1416.9
609.376,1402.8
609.907,1385.5
610.438,1366.3
610.968,1356.8
611.499,1353.0
612.03,1336.3
612.56,1333.7
613.091,1314.2
613.621,1308.1
614.151,1299.2
614.681,1283.8
615.212,1273.0
615.742,1266.2
616.272,1256.7
616.802,1243.9
617.332,1250.4
617.861,1233.8
618.391,1233.6
618.921,1220.1
619.45,1205.3
619.98,1217.8
620.509,1203.7
621.039,1203.2
621.568,1207.3
622.097,1213.9
622.627,1210.1
623.156,1195.4
623.685,1188.3
624.214,1190.5
624.743,1183.4
625.272,1185.9
625.801,1189.4
626.33,1205.0
626.858,1330.4
627.387,1661.6
627.916,1468.8
628.444,1581.3
628.973,1546.2
629.501,1483.4
630.029,1415.0
630.558,1389.9
631.086,1292.8
631.614,1235.6
632.142,1217.0
632.67,1203.3
633.198,1205.8
633.726,1209.7
634.254,1213.1
634.782,1215.7
635.31,1208.2
635.838,1219.0
636.365,1217.2
636.893,1227.3
637.421,1225.5
637.948,1230.2
638.476,1238.9
639.003,1249.0
639.531,1245.9
640.058,1249.2
640.585,1264.8
641.113,1266.1
641.64,1271.3
642.167,1292.6
642.694,1285.5
643.221,1295.3
643.748,1298.7
644.275,1305.8
644.802,1295.6
645.329,1306.9
645.856,1305.1
646.382,1306.2
646.909,1306.3
647.436,1311.7
647.962,1320.4
648.489,1309.3
649.016,1309.5
649.542,1304.1
650.069,1312.7
650.595,1317.3
651.121,1300.2
651.648,1311.1
652.174,1308.9
652.7,1303.7
653.227,1307.2
653.753,1318.5
654.279,1311.7
654.805,1309.6
655.331,1297.1
655.857,1289.9
656.383,1288.5
656.909,1276.8
657.435,1269.8
657.961,1255.4
658.487,1256.2
659.013,1242.6
659.538,1226.1
660.064,1222.2
660.59,1212.8
661.116,1188.9
661.641,1178.8
662.167,1170.5
662.692,1164.9
663.087,1141.6