Folder: MPX_specDB/spectra (part 112)

File: VLFR_07-PET_nobio_Raman_8a73164e.csv
nm,Intensity
791.588,9781.3
792.685,9207.2
793.781,9037.5
794.878,8766.1
795.975,8851.5
797.071,8737.4
798.168,8695.1
799.264,8691.3
800.36,8742.1
801.456,8759.1
802.552,8708.0
803.648,8637.9
804.744,8575.6
805.84,8572.8
806.936,8360.6
808.031,8376.6
809.127,8297.5
810.222,8263.8
811.317,8165.8
812.412,8093.9
813.507,8044.4
814.602,7959.8
815.697,7884.7
816.792,7820.9
817.887,7814.5
818.981,7753.6
820.076,7781.5
821.17,7616.8
822.265,7593.7
823.359,7556.3
824.453,7490.0
825.547,7537.9
826.641,7465.1
827.735,7326.1
828.828,7310.4
829.922,7248.9
831.016,7295.1
832.109,7153.0
833.202,7169.2
834.295,7055.7
835.388,7076.4
836.481,7053.0
837.574,7076.7
838.667,6991.5
839.76,6900.5
840.852,6982.7
841.945,7109.2
843.037,6847.9
844.129,6756.3
845.221,6732.5
846.314,6609.8
847.405,6623.5
848.497,6532.3
849.589,6493.1
850.681,6511.4
851.772,6507.3
852.863,6479.9
853.955,6447.1
855.046,6315.4
856.137,6360.2
857.228,6377.6
858.318,6369.9
859.409,6383.1
860.5,6395.7
861.59,6190.9
862.681,6192.2
863.771,6177.1
864.861,6183.6
865.951,6102.1
867.041,6069.1
868.131,6065.1
869.22,6069.6
870.31,6104.4
871.399,6108.6
872.488,6207.8
873.578,6230.7
874.667,6049.9
875.756,5970.9
876.845,5968.0
877.933,5863.1
879.022,5912.8
880.11,5836.8
881.199,5785.0
882.287,5823.7
883.375,5819.3
884.463,5730.1
885.551,5748.7
886.639,5705.8
887.726,5625.7
888.814,5603.5
889.901,5640.5
890.988,5556.4
892.075,5580.9
893.162,5534.0
894.249,5540.3
895.336,5421.3
896.423,5462.8
897.509,5624.0
898.595,5879.3
899.682,5594.6
900.768,5363.7
901.854,5275.3
902.94,5220.8
904.025,5235.6
905.111,5199.4
906.196,5265.8
907.282,5456.8
908.367,5436.9
909.452,5231.6
910.537,5083.0
911.622,4985.4
912.706,4995.1
913.791,4920.0
914.875,4920.0
915.959,4914.2
917.044,4846.1
918.128,4846.1
919.211,4807.7
920.295,4775.8
921.379,4744.1
922.462,4719.5
923.546,4692.4
924.629,4661.6
925.712,4649.4
926.795,4601.7
927.877,4594.6
928.96,4554.8
930.043,4528.3
931.125,4515.1
932.207,4476.7
933.289,4472.1
934.371,4440.7
935.453,4414.8
936.535,4406.6
937.616,4383.9
938.697,4371.6
939.779,4350.0
940.86,4328.9
941.941,4328.7
943.022,4295.7
944.102,4281.6
945.183,4263.8
946.263,4251.5
947.343,4252.2
948.423,4212.2
949.503,4212.2
950.583,4191.5
951.663,4174.6
952.742,4175.8
953.822,4161.8
954.901,4127.8
955.98,4130.7
957.059,4131.6
958.137,4101.4
959.216,4102.6
960.294,4093.4
961.373,4066.3
962.451,4075.1
963.529,4057.9
964.607,4053.7
965.684,4031.2
966.762,4040.0
967.839,4025.1
968.917,4007.9
969.994,4005.7
971.071,3998.7
972.147,3986.7
973.224,3980.4
974.3,3973.1
975.377,3963.5
976.453,3961.7
977.529,3957.7
978.605,3947.2
979.68,3939.3
980.756,3931.9
981.831,3924.4
982.907,3925.3
983.982,3917.0
985.057,3907.0
986.131,3907.9
987.206,3894.1
988.28,3900.9
989.355,3896.2
990.429,3891.1
991.503,3882.3
992.576,3883.3
993.65,3873.0
994.723,3867.7
995.797,3865.5
996.87,3864.3
997.943,3854.1
999.016,3849.3
1000.09,3850.8
1001.16,3849.8
1002.23,3841.5
1003.31,3840.9
1004.38,3832.4
1005.45,3832.2
1006.52,3831.3
1007.59,3828.9
1008.66,3825.8
1009.73,3819.4
1010.81,3819.9
1011.88,3813.1
1012.95,3818.6
1014.02,3811.5
1015.09,3807.8
1016.16,3809.3
1017.23,3805.4
1018.3,3804.5
1019.37,3801.2
1020.44,3803.8
1021.51,3803.5
1022.58,3806.3
1023.64,3805.3
1024.71,3797.2
1025.78,3796.6
1026.85,3791.1
1027.92,3787.9
1028.99,3785.5
1030.05,3781.2
1031.12,3784.8
1032.19,3781.3
1033.26,3781.9
1034.32,3786.1
1035.39,3786.4
1036.46,3785.0
1037.52,3778.7
1038.59,3776.8
1039.66,3774.4
1040.72,3771.2
1041.79,3773.1
1042.86,3772.3
1043.92,3770.8
1044.99,3768.9
1046.05,3770.6
1047.12,3767.0
1048.18,3767.5
1049.25,3766.9
1050.31,3767.0
1051.37,3764.6
1052.44,3765.8
1053.5,3765.8
1054.57,3763.3
1055.63,3765.2
1056.69,3766.2
1057.76,3765.3
1058.82,3763.5
1059.88,3763.6
1060.95,3763.3
1062.01,3763.9
1063.07,3762.9
1064.13,3763.6
1065.19,3762.0
1066.26,3762.2
1067.32,3763.6
1068.11,3760.4

File: VLFR_07-PET_nobio_Raman_8fd6b8dc.csv
nm,Intensity
791.377,9952.04
792.477,9034.68
793.576,8452.02
794.676,8108.0
795.775,7931.66
796.874,7941.84
797.973,7916.64
799.072,7895.8
800.171,7794.0
801.27,7866.08
802.368,7757.9
803.467,7531.46
804.565,7472.16
805.664,7451.42
806.762,7340.14
807.86,7342.28
808.958,7229.2
810.056,7167.54
811.153,7115.02
812.251,7011.82
813.349,7019.2
814.446,6961.8
815.543,6879.1
816.64,6876.74
817.737,6801.68
818.834,6809.12
819.931,6753.8
821.028,6663.08
822.125,6665.84
823.221,6564.08
824.317,6543.62
825.414,6771.12
826.51,6626.36
827.606,6463.12
828.702,6406.64
829.797,6396.78
830.893,6442.1
831.988,6272.86
833.084,6258.5
834.179,6206.66
835.274,6129.98
836.369,6194.3
837.464,6310.86
838.559,6178.88
839.654,6242.8
840.748,6388.24
841.843,6382.32
842.937,6223.12
844.031,6043.74
845.125,5903.18
846.219,5867.32
847.313,5844.12
848.407,5836.5
849.5,5784.78
850.593,5729.26
851.687,5732.24
852.78,5755.84
853.873,5740.12
854.966,5677.74
856.059,5636.96
857.151,5630.8
858.244,5689.04
859.336,5820.8
860.428,5778.94
861.52,5609.44
862.612,5503.56
863.704,5521.02
864.796,5574.88
865.888,5440.08
866.979,5400.08
868.07,5394.12
869.162,5374.64
870.253,5397.46
871.344,5566.26
872.434,5784.26
873.525,5730.1
874.615,5527.22
875.706,5337.2
876.796,5309.22
877.886,5213.18
878.976,5207.1
880.066,5178.08
881.156,5143.36
882.245,5197.66
883.335,5138.54
884.424,5140.22
885.513,5139.74
886.602,5061.58
887.691,5050.78
888.78,4993.06
889.868,4941.84
890.957,4975.06
892.045,4968.96
893.133,4914.34
894.221,4887.92
895.309,4825.34
896.397,4866.66
897.484,5135.4
898.571,5547.44
899.659,5165.02
900.746,4755.96
901.833,4754.36
902.92,4691.68
904.006,4686.9
905.093,4677.76
906.179,4823.5
907.266,5140.48
908.352,5116.34
909.438,4849.58
910.523,4606.82
911.609,4564.3
912.695,4520.7
913.78,4491.26
914.865,4480.1
915.95,4450.16
917.035,4434.58
918.12,4406.2
919.204,4419.5
920.289,4383.78
921.373,4358.46
922.457,4367.12
923.541,4326.96
924.625,4309.14
925.709,4317.86
926.792,4286.3
927.876,4266.52
928.959,4239.68
930.042,4245.64
931.125,4209.2
932.208,4208.34
933.29,4186.1
934.373,4160.86
935.455,4164.64
936.537,4140.4
937.619,4137.5
938.701,4124.96
939.782,4126.48
940.864,4110.28
941.945,4088.12
943.026,4082.82
944.107,4068.02
945.188,4067.54
946.269,4051.02
947.349,4044.04
948.43,4026.24
949.51,4024.12
950.59,4018.72
951.67,4004.86
952.75,3986.58
953.829,3987.8
954.909,3983.14
955.988,3974.2
957.067,3965.82
958.146,3953.84
959.224,3954.96
960.303,3937.72
961.381,3935.06
962.459,3930.2
963.537,3924.02
964.615,3921.58
965.693,3913.56
966.771,3905.86
967.848,3901.4
968.925,3898.44
970.002,3894.78
971.079,3886.8
972.156,3880.1
973.232,3875.42
974.309,3874.6
975.385,3870.4
976.461,3865.88
977.537,3861.88
978.612,3852.18
979.688,3849.72
980.763,3848.94
981.838,3845.82
982.913,3839.9
983.988,3836.74
985.063,3836.34
986.137,3832.08
987.211,3833.04
988.285,3824.12
989.359,3821.0
990.433,3815.76
991.506,3812.52
992.58,3809.08
993.653,3807.22
994.726,3804.9
995.799,3804.08
996.872,3798.32
997.944,3798.68
999.016,3794.58
1000.09,3795.78
1001.16,3787.12
1002.23,3788.56
1003.3,3784.24
1004.38,3783.42
1005.45,3781.02
1006.52,3781.72
1007.59,3777.62
1008.66,3773.1
1009.73,3773.68
1010.8,3770.28
1011.87,3771.1
1012.94,3768.48
1014.01,3767.86
1015.08,3766.82
1016.15,3767.84
1017.22,3764.92
1018.29,3763.34
1019.36,3763.04
1020.42,3763.0
1021.49,3768.7
1022.56,3773.76
1023.63,3771.3
1024.7,3766.12
1025.76,3760.06
1026.83,3757.34
1027.9,3755.6
1028.97,3752.7
1030.03,3750.32
1031.1,3747.8
1032.17,3748.32
1033.23,3749.9
1034.3,3752.9
1035.36,3755.18
1036.43,3754.22
1037.5,3749.06
1038.56,3743.56
1039.63,3742.26
1040.69,3742.36
1041.76,3741.0
1042.82,3740.96
1043.89,3740.36
1044.95,3738.36
1046.01,3737.4
1047.08,3738.84
1048.14,3738.0
1049.2,3736.7
1050.27,3736.48
1051.33,3736.76
1052.39,3737.72
1053.46,3736.4
1054.52,3735.76
1055.58,3735.94
1056.64,3736.8
1057.7,3736.3
1058.77,3735.84
1059.83,3735.24
1060.89,3736.32
1061.95,3735.36
1063.01,3735.16
1064.07,3735.46
1065.13,3734.88
1066.19,3734.18
1067.25,3734.18
1068.05,3734.54

File: VLFR_07-PET_nobio_Raman_8feda554.csv
nm,Intensity
791.75,11228.5
792.846,10568.0
793.942,10337.6
795.037,10159.0
796.133,9959.2
797.228,10087.1
798.324,9997.25
799.419,9938.7
800.514,9888.35
801.61,9794.1
802.705,9723.45
803.8,9525.45
804.894,9610.25
805.989,9333.8
807.084,9290.55
808.178,9291.55
809.273,9091.65
810.367,9186.35
811.461,8979.05
812.556,9054.95
813.65,8939.9
814.744,8895.05
815.837,8832.15
816.931,8691.6
818.025,8645.35
819.118,8611.65
820.212,8518.25
821.305,8402.2
822.398,8392.15
823.491,8271.3
824.585,8162.2
825.677,8413.3
826.77,8122.6
827.863,7948.15
828.956,7883.95
830.048,7908.4
831.14,7802.3
832.233,7581.6
833.325,7665.7
834.417,7503.4
835.509,7480.6
836.601,7482.2
837.692,7520.95
838.784,7319.3
839.876,7324.95
840.967,7567.95
842.058,7350.55
843.149,7220.1
844.24,7052.95
845.331,6916.4
846.422,6780.1
847.513,6834.95
848.604,6845.35
849.694,6695.9
850.784,6713.0
851.875,6667.9
852.965,6725.55
854.055,6606.55
855.145,6504.5
856.235,6561.05
857.324,6586.85
858.414,6641.0
859.503,6659.2
860.593,6579.5
861.682,6324.7
862.771,6327.7
863.86,6369.95
864.949,6325.1
866.038,6228.55
867.126,6179.35
868.215,6154.7
869.303,6158.0
870.391,6182.75
871.479,6396.95
872.567,6411.0
873.655,6348.8
874.743,6115.7
875.831,6029.95
876.918,5906.1
878.006,5912.75
879.093,5909.75
880.18,5831.0
881.267,5833.15
882.354,5774.65
883.441,5801.6
884.527,5780.75
885.614,5716.5
886.7,5635.4
887.786,5607.35
888.872,5583.5
889.958,5505.65
891.044,5564.65
892.13,5512.5
893.216,5418.75
894.301,5418.8
895.386,5404.4
896.472,5408.0
897.557,5868.1
898.642,5817.7
899.726,5400.3
900.811,5185.6
901.896,5190.95
902.98,5137.5
904.064,5126.3
905.148,5160.1
906.232,5271.7
907.316,5502.4
908.4,5339.65
909.484,5038.4
910.567,4982.5
911.65,4905.65
912.734,4908.95
913.817,4833.95
914.9,4802.1
915.982,4790.2
917.065,4745.25
918.147,4741.5
919.23,4708.6
920.312,4651.35
921.394,4648.1
922.476,4623.85
923.558,4589.45
924.639,4573.95
925.721,4521.85
926.802,4547.6
927.884,4501.2
928.965,4481.3
930.046,4455.7
931.126,4455.3
932.207,4397.4
933.288,4365.1
934.368,4359.0
935.448,4356.5
936.528,4316.8
937.608,4319.2
938.688,4296.85
939.767,4263.0
940.847,4248.65
941.926,4249.8
943.005,4210.35
944.084,4196.95
945.163,4177.3
946.242,4156.45
947.321,4158.6
948.399,4127.5
949.477,4134.0
950.556,4116.4
951.634,4098.85
952.711,4078.3
953.789,4071.4
954.867,4059.35
955.944,4046.85
957.021,4043.15
958.098,4031.3
959.175,4007.7
960.252,4001.3
961.328,3986.0
962.405,3982.45
963.481,3970.95
964.557,3960.15
965.633,3946.3
966.709,3952.75
967.785,3934.95
968.86,3923.3
969.936,3913.3
971.011,3919.6
972.086,3906.3
973.161,3890.75
974.235,3883.6
975.31,3884.3
976.384,3875.8
977.459,3871.85
978.533,3862.4
979.607,3856.3
980.68,3852.9
981.754,3844.5
982.827,3838.0
983.901,3833.35
984.974,3833.35
986.047,3828.5
987.119,3814.15
988.192,3812.7
989.264,3812.4
990.337,3805.6
991.409,3798.9
992.481,3791.1
993.553,3788.75
994.624,3787.1
995.696,3782.85
996.767,3777.9
997.838,3778.85
998.909,3775.8
999.98,3769.7
1001.05,3763.35
1002.12,3761.85
1003.19,3760.8
1004.26,3756.2
1005.33,3759.2
1006.4,3752.45
1007.47,3749.05
1008.54,3745.7
1009.61,3742.85
1010.68,3740.3
1011.75,3740.0
1012.82,3740.3
1013.88,3738.6
1014.95,3735.7
1016.02,3732.95
1017.09,3731.3
1018.16,3732.05
1019.22,3728.65
1020.29,3731.85
1021.36,3733.65
1022.43,3733.05
1023.49,3728.15
1024.56,3727.35
1025.63,3723.2
1026.69,3717.1
1027.76,3714.9
1028.83,3713.1
1029.89,3715.2
1030.96,3711.45
1032.02,3712.55
1033.09,3713.25
1034.15,3714.8
1035.22,3714.5
1036.28,3711.85
1037.35,3708.0
1038.41,3704.85
1039.48,3703.45
1040.54,3702.65
1041.6,3702.85
1042.67,3700.9
1043.73,3700.2
1044.79,3700.95
1045.86,3700.0
1046.92,3699.5
1047.98,3698.85
1049.05,3697.85
1050.11,3696.9
1051.17,3698.6
1052.23,3698.0
1053.29,3697.5
1054.36,3697.0
1055.42,3696.7
1056.48,3697.95
1057.54,3696.6
1058.6,3696.0
1059.66,3697.25
1060.72,3696.2
1061.78,3695.3
1062.84,3696.2
1063.9,3694.7
1064.96,3694.95
1066.02,3695.4
1067.08,3694.75
1067.88,3693.85

File: VLFR_07-PET_nobio_Raman_9ba1d6f5.csv
nm,Intensity
791.377,12004.4
792.477,10922.4
793.576,10315.6
794.676,10092.0
795.775,9879.24
796.874,9810.74
797.973,9730.56
799.072,9835.52
800.171,9651.84
801.27,9724.24
802.368,9532.66
803.467,9386.1
804.565,9286.36
805.664,9105.72
806.762,9168.78
807.86,9126.04
808.958,9100.52
810.056,8946.88
811.153,8838.44
812.251,8833.34
813.349,8766.56
814.446,8614.16
815.543,8628.88
816.64,8418.6
817.737,8479.04
818.834,8324.64
819.931,8447.46
821.028,8289.68
822.125,8125.02
823.221,8045.62
824.317,8073.3
825.414,8270.2
826.51,7997.68
827.606,7910.46
828.702,7853.02
829.797,7868.04
830.893,7862.34
831.988,7641.28
833.084,7484.14
834.179,7529.26
835.274,7509.04
836.369,7483.86
837.464,7626.04
838.559,7500.16
839.654,7449.46
840.748,7620.66
841.843,7696.8
842.937,7401.38
844.031,7301.9
845.125,7131.02
846.219,7010.92
847.313,7023.82
848.407,6968.54
849.5,6858.88
850.593,6916.0
851.687,6897.06
852.78,6837.92
853.873,6815.94
854.966,6768.58
856.059,6703.94
857.151,6621.2
858.244,6762.54
859.336,6826.08
860.428,6763.82
861.52,6611.78
862.612,6455.54
863.704,6445.62
864.796,6592.6
865.888,6334.34
866.979,6371.26
868.07,6261.18
869.162,6279.8
870.253,6291.52
871.344,6479.06
872.434,6622.0
873.525,6538.12
874.615,6328.96
875.706,6158.92
876.796,6074.96
877.886,5989.4
878.976,6009.52
880.066,5967.4
881.156,5878.06
882.245,5962.4
883.335,5879.84
884.424,5868.52
885.513,5876.7
886.602,5763.7
887.691,5685.72
888.78,5629.2
889.868,5659.88
890.957,5601.56
892.045,5653.16
893.133,5490.08
894.221,5507.0
895.309,5473.16
896.397,5474.72
897.484,5715.14
898.571,6159.94
899.659,5655.0
900.746,5366.4
901.833,5279.0
902.92,5189.9
904.006,5231.8
905.093,5146.18
906.179,5344.6
907.266,5654.86
908.352,5639.12
909.438,5318.0
910.523,5058.88
911.609,5008.7
912.695,4954.58
913.78,4940.68
914.865,4916.4
915.95,4863.16
917.035,4836.1
918.12,4812.74
919.204,4776.98
920.289,4748.88
921.373,4703.82
922.457,4726.64
923.541,4668.04
924.625,4626.38
925.709,4632.9
926.792,4573.1
927.876,4559.0
928.959,4547.5
930.042,4531.4
931.125,4503.82
932.208,4445.76
933.29,4447.18
934.373,4408.24
935.455,4400.76
936.537,4384.78
937.619,4363.62
938.701,4360.62
939.782,4321.4
940.864,4318.8
941.945,4309.82
943.026,4281.2
944.107,4239.14
945.188,4244.98
946.269,4220.98
947.349,4216.8
948.43,4209.24
949.51,4190.64
950.59,4160.84
951.67,4149.86
952.75,4154.18
953.829,4138.08
954.909,4104.7
955.988,4107.58
957.067,4094.08
958.146,4082.88
959.224,4083.6
960.303,4063.42
961.381,4050.46
962.459,4036.42
963.537,4036.78
964.615,4014.58
965.693,4022.72
966.771,4005.4
967.848,3997.34
968.925,3982.72
970.002,3977.06
971.079,3976.18
972.156,3972.22
973.232,3961.46
974.309,3946.74
975.385,3933.96
976.461,3934.04
977.537,3930.2
978.612,3916.78
979.688,3916.28
980.763,3910.9
981.838,3906.32
982.913,3896.36
983.988,3894.5
985.063,3887.12
986.137,3881.48
987.211,3878.6
988.285,3876.84
989.359,3866.36
990.433,3860.0
991.506,3854.78
992.58,3847.68
993.653,3846.48
994.726,3838.9
995.799,3840.18
996.872,3832.66
997.944,3828.04
999.016,3830.7
1000.09,3824.16
1001.16,3820.08
1002.23,3814.76
1003.3,3812.74
1004.38,3808.74
1005.45,3806.7
1006.52,3799.88
1007.59,3798.3
1008.66,3798.12
1009.73,3792.82
1010.8,3792.92
1011.87,3788.44
1012.94,3787.24
1014.01,3787.22
1015.08,3782.04
1016.15,3782.88
1017.22,3782.24
1018.29,3778.62
1019.36,3777.86
1020.42,3776.64
1021.49,3781.46
1022.56,3785.82
1023.63,3782.94
1024.7,3775.7
1025.76,3770.16
1026.83,3768.06
1027.9,3763.76
1028.97,3759.22
1030.03,3756.42
1031.1,3755.66
1032.17,3756.3
1033.23,3756.96
1034.3,3760.02
1035.36,3762.26
1036.43,3757.4
1037.5,3752.98
1038.56,3748.66
1039.63,3748.78
1040.69,3746.96
1041.76,3745.06
1042.82,3744.32
1043.89,3742.16
1044.95,3741.64
1046.01,3740.28
1047.08,3741.8
1048.14,3740.98
1049.2,3740.36
1050.27,3738.94
1051.33,3739.78
1052.39,3739.02
1053.46,3738.38
1054.52,3738.84
1055.58,3739.32
1056.64,3737.12
1057.7,3737.56
1058.77,3736.76
1059.83,3737.86
1060.89,3737.54
1061.95,3737.22
1063.01,3737.2
1064.07,3735.92
1065.13,3736.62
1066.19,3735.46
1067.25,3734.42
1068.05,3733.74

File: VLFR_07-PET_nobio_Raman_9f1794c8.csv
nm,Intensity
791.75,16379.8
792.846,15303.4
793.942,14547.5
795.037,14397.7
796.133,14192.9
797.228,14243.3
798.324,14092.8
799.419,14213.3
800.514,14053.8
801.61,13926.7
802.705,13667.3
803.8,13554.8
804.894,13323.0
805.989,13364.5
807.084,13174.4
808.178,12960.1
809.273,12820.8
810.367,12617.0
811.461,12659.3
812.556,12624.6
813.65,12402.0
814.744,12331.3
815.837,12324.0
816.931,12046.3
818.025,11992.0
819.118,12022.8
820.212,11862.5
821.305,11764.0
822.398,11661.1
823.491,11469.8
824.585,11508.8
825.677,11829.8
826.77,11181.8
827.863,11007.0
828.956,11067.6
830.048,11018.8
831.14,10798.5
832.233,10489.5
833.325,10403.5
834.417,10106.0
835.509,10220.5
836.601,10249.3
837.692,10313.6
838.784,10031.5
839.876,10067.0
840.967,10365.2
842.058,9989.05
843.149,9912.05
844.24,9703.65
845.331,9319.35
846.422,9251.8
847.513,9133.4
848.604,9129.6
849.694,9031.8
850.784,8946.9
851.875,9037.1
852.965,8780.65
854.055,8947.7
855.145,8664.85
856.235,8596.4
857.324,8739.9
858.414,8823.9
859.503,8900.75
860.593,8656.85
861.682,8434.9
862.771,8392.4
863.86,8439.4
864.949,8282.45
866.038,8171.75
867.126,8113.95
868.215,8041.1
869.303,8109.1
870.391,8067.0
871.479,8357.95
872.567,8435.4
873.655,8362.4
874.743,7964.65
875.831,7687.5
876.918,7804.15
878.006,7461.95
879.093,7570.6
880.18,7485.85
881.267,7474.2
882.354,7368.8
883.441,7336.45
884.527,7360.35
885.614,7303.05
886.7,7127.45
887.786,7049.35
888.872,6944.85
889.958,6904.9
891.044,6956.95
892.13,6881.25
893.216,6730.65
894.301,6658.15
895.386,6621.2
896.472,6723.15
897.557,7401.0
898.642,7282.4
899.726,6572.5
900.811,6320.3
901.896,6236.0
902.98,6221.7
904.064,6263.9
905.148,6219.45
906.232,6519.35
907.316,6806.15
908.4,6429.75
909.484,6159.25
910.567,5907.25
911.65,5846.95
912.734,5740.35
913.817,5682.9
914.9,5599.8
915.982,5572.0
917.065,5586.7
918.147,5502.6
919.23,5437.15
920.312,5419.4
921.394,5344.1
922.476,5312.7
923.558,5321.9
924.639,5194.6
925.721,5179.65
926.802,5179.6
927.884,5124.65
928.965,5060.5
930.046,5058.45
931.126,5004.25
932.207,4970.15
933.288,4952.05
934.368,4830.65
935.448,4869.25
936.528,4825.15
937.608,4771.75
938.688,4755.25
939.767,4704.8
940.847,4688.3
941.926,4650.0
943.005,4606.1
944.084,4617.85
945.163,4561.7
946.242,4571.5
947.321,4544.9
948.399,4491.9
949.477,4474.8
950.556,4448.25
951.634,4433.8
952.711,4393.4
953.789,4383.85
954.867,4363.5
955.944,4331.6
957.021,4332.2
958.098,4299.2
959.175,4282.15
960.252,4278.25
961.328,4239.35
962.405,4231.9
963.481,4217.2
964.557,4196.65
965.633,4171.1
966.709,4153.7
967.785,4138.25
968.86,4131.2
969.936,4115.3
971.011,4105.55
972.086,4091.8
973.161,4069.3
974.235,4066.55
975.31,4064.9
976.384,4031.95
977.459,4031.85
978.533,4016.5
979.607,4006.1
980.68,3995.6
981.754,3995.1
982.827,3970.05
983.901,3965.35
984.974,3968.7
986.047,3944.9
987.119,3941.2
988.192,3936.9
989.264,3927.55
990.337,3917.8
991.409,3900.95
992.481,3905.6
993.553,3889.25
994.624,3881.4
995.696,3873.0
996.767,3869.9
997.838,3856.75
998.909,3857.35
999.98,3853.65
1001.05,3841.5
1002.12,3838.3
1003.19,3832.5
1004.26,3830.1
1005.33,3821.45
1006.4,3816.0
1007.47,3809.55
1008.54,3803.65
1009.61,3799.2
1010.68,3793.0
1011.75,3796.8
1012.82,3793.55
1013.88,3788.55
1014.95,3785.75
1016.02,3778.05
1017.09,3779.45
1018.16,3772.9
1019.22,3771.55
1020.29,3776.65
1021.36,3780.25
1022.43,3775.35
1023.49,3772.8
1024.56,3765.75
1025.63,3759.2
1026.69,3752.1
1027.76,3751.6
1028.83,3745.0
1029.89,3741.85
1030.96,3739.45
1032.02,3738.85
1033.09,3740.05
1034.15,3745.25
1035.22,3742.65
1036.28,3740.15
1037.35,3733.15
1038.41,3728.25
1039.48,3728.65
1040.54,3724.6
1041.6,3724.6
1042.67,3722.95
1043.73,3720.85
1044.79,3719.05
1045.86,3717.75
1046.92,3718.35
1047.98,3717.6
1049.05,3715.45
1050.11,3716.85
1051.17,3715.1
1052.23,3715.25
1053.29,3713.5
1054.36,3713.9
1055.42,3713.35
1056.48,3713.8
1057.54,3712.7
1058.6,3710.75
1059.66,3710.75
1060.72,3711.45
1061.78,3709.85
1062.84,3710.9
1063.9,3709.8
1064.96,3710.15
1066.02,3710.05
1067.08,3709.3
1067.88,3708.5

File: VLFR_07-PET_nobio_Raman_15a68930.csv
nm,Intensity
791.75,7511.15
792.846,7344.0
793.942,7209.5
795.037,7192.7
796.133,7152.45
797.228,7109.7
798.324,7113.35
799.419,7141.2
800.514,7069.15
801.61,7034.1
802.705,7098.45
803.8,6968.2
804.894,6948.45
805.989,6945.4
807.084,6892.5
808.178,6913.15
809.273,6854.25
810.367,6827.75
811.461,6759.3
812.556,6796.65
813.65,6620.4
814.744,6661.0
815.837,6545.8
816.931,6542.5
818.025,6501.85
819.118,6453.35
820.212,6440.9
821.305,6362.0
822.398,6303.4
823.491,6301.7
824.585,6217.1
825.677,6277.2
826.77,6203.2
827.863,6119.3
828.956,6065.3
830.048,6082.3
831.14,6060.8
832.233,5953.7
833.325,5999.3
834.417,5930.3
835.509,5898.65
836.601,5899.5
837.692,5896.65
838.784,5861.2
839.876,5847.85
840.967,5892.45
842.058,5808.05
843.149,5788.9
844.24,5729.0
845.331,5650.7
846.422,5582.4
847.513,5617.25
848.604,5551.0
849.694,5561.8
850.784,5535.5
851.875,5517.9
852.965,5520.3
854.055,5475.15
855.145,5452.7
856.235,5425.3
857.324,5442.6
858.414,5465.3
859.503,5465.55
860.593,5384.1
861.682,5345.15
862.771,5307.1
863.86,5325.2
864.949,5332.75
866.038,5232.0
867.126,5238.2
868.215,5220.6
869.303,5215.95
870.391,5256.55
871.479,5224.25
872.567,5292.25
873.655,5187.95
874.743,5190.55
875.831,5182.15
876.918,5101.6
878.006,5070.9
879.093,5085.85
880.18,5046.0
881.267,5070.5
882.354,5012.8
883.441,4999.7
884.527,4997.85
885.614,4986.7
886.7,4934.5
887.786,4934.85
888.872,4878.35
889.958,4912.2
891.044,4861.55
892.13,4850.6
893.216,4832.65
894.301,4813.05
895.386,4760.55
896.472,4826.85
897.557,4944.0
898.642,4918.2
899.726,4750.75
900.811,4690.3
901.896,4656.15
902.98,4676.95
904.064,4633.75
905.148,4644.8
906.232,4720.65
907.316,4751.9
908.4,4699.2
909.484,4593.0
910.567,4553.65
911.65,4516.15
912.734,4479.8
913.817,4478.3
914.9,4461.5
915.982,4441.5
917.065,4411.6
918.147,4403.35
919.23,4403.3
920.312,4363.95
921.394,4346.3
922.476,4337.35
923.558,4326.4
924.639,4297.75
925.721,4288.45
926.802,4277.55
927.884,4266.65
928.965,4227.7
930.046,4208.0
931.126,4203.25
932.207,4172.55
933.288,4159.7
934.368,4155.0
935.448,4140.5
936.528,4121.2
937.608,4116.15
938.688,4102.7
939.767,4086.75
940.847,4085.25
941.926,4055.05
943.005,4051.9
944.084,4049.15
945.163,4038.0
946.242,4017.55
947.321,4015.35
948.399,4005.55
949.477,3986.4
950.556,3982.25
951.634,3967.75
952.711,3959.6
953.789,3955.9
954.867,3944.65
955.944,3946.95
957.021,3930.2
958.098,3929.8
959.175,3915.65
960.252,3910.9
961.328,3898.05
962.405,3916.6
963.481,3897.4
964.557,3881.1
965.633,3880.65
966.709,3878.2
967.785,3869.5
968.86,3863.6
969.936,3858.65
971.011,3853.75
972.086,3850.65
973.161,3844.75
974.235,3841.45
975.31,3834.45
976.384,3832.6
977.459,3826.0
978.533,3821.75
979.607,3825.2
980.68,3812.7
981.754,3805.4
982.827,3811.4
983.901,3806.85
984.974,3806.1
986.047,3796.0
987.119,3795.05
988.192,3796.45
989.264,3785.55
990.337,3787.1
991.409,3784.1
992.481,3779.4
993.553,3777.1
994.624,3776.05
995.696,3772.8
996.767,3771.0
997.838,3767.85
998.909,3768.0
999.98,3766.3
1001.05,3762.4
1002.12,3758.55
1003.19,3758.3
1004.26,3753.5
1005.33,3751.25
1006.4,3750.7
1007.47,3749.25
1008.54,3748.5
1009.61,3746.1
1010.68,3743.7
1011.75,3743.65
1012.82,3739.15
1013.88,3741.15
1014.95,3738.75
1016.02,3737.7
1017.09,3736.5
1018.16,3732.4
1019.22,3733.85
1020.29,3732.2
1021.36,3734.55
1022.43,3732.75
1023.49,3731.65
1024.56,3728.9
1025.63,3726.9
1026.69,3726.2
1027.76,3723.95
1028.83,3721.8
1029.89,3721.9
1030.96,3721.0
1032.02,3721.45
1033.09,3720.25
1034.15,3720.45
1035.22,3721.75
1036.28,3718.0
1037.35,3715.5
1038.41,3715.7
1039.48,3712.45
1040.54,3713.75
1041.6,3713.55
1042.67,3712.25
1043.73,3711.55
1044.79,3711.9
1045.86,3711.0
1046.92,3711.95
1047.98,3709.3
1049.05,3708.9
1050.11,3710.2
1051.17,3709.35
1052.23,3709.2
1053.29,3709.25
1054.36,3707.2
1055.42,3706.7
1056.48,3708.55
1057.54,3708.85
1058.6,3707.75
1059.66,3708.85
1060.72,3708.25
1061.78,3707.25
1062.84,3706.1
1063.9,3707.1
1064.96,3705.4
1066.02,3704.35
1067.08,3706.3
1067.88,3705.75