Folder: MPX_specDB/spectra (part 75)

File: VLFR_06-PET_bio_Raman_6765d138.csv
nm,Intensity
526.493,829.25
527.039,828.6
527.586,829.1
528.133,828.7
528.679,830.3
529.225,828.5
529.771,829.3
530.317,828.05
530.863,829.25
531.409,828.7
531.955,831.35
532.5,829.4
533.046,828.45
533.591,828.25
534.136,853.65
534.681,848.8
535.226,845.95
535.771,845.5
536.315,843.55
536.86,844.85
537.404,845.8
537.948,844.8
538.493,847.25
539.037,846.3
539.58,848.55
540.124,848.95
540.668,848.2
541.211,849.5
541.755,848.55
542.298,848.5
542.841,847.45
543.384,848.35
543.927,847.85
544.47,848.35
545.013,848.85
545.555,848.4
546.098,848.45
546.64,849.4
547.182,848.85
547.724,850.05
548.266,849.65
548.808,850.45
549.35,852.5
549.892,851.95
550.433,852.2
550.974,852.15
551.516,852.9
552.057,853.35
552.598,855.05
553.139,853.95
553.68,854.25
554.22,854.55
554.761,855.05
555.301,853.05
555.842,855.0
556.382,855.2
556.922,856.2
557.462,858.1
558.002,858.4
558.542,857.1
559.082,857.4
559.621,856.75
560.161,857.6
560.7,856.95
561.239,858.2
561.778,858.9
562.317,859.15
562.856,860.2
563.395,862.05
563.934,859.15
564.472,862.9
565.011,861.1
565.549,863.05
566.088,863.6
566.626,863.45
567.164,861.15
567.702,862.85
568.24,863.45
568.777,863.5
569.315,866.65
569.853,865.6
570.39,864.55
570.927,868.35
571.465,867.55
572.002,868.05
572.539,867.1
573.076,868.85
573.612,866.05
574.149,867.65
574.686,869.1
575.222,869.45
575.759,869.0
576.295,869.9
576.831,869.85
577.367,869.5
577.903,871.45
578.439,871.2
578.975,871.45
579.511,870.55
580.046,872.9
580.582,871.65
581.117,873.1
581.653,871.8
582.188,883.0
582.723,873.9
583.258,872.6
583.793,874.8
584.328,874.2
584.863,873.1
585.398,874.1
585.932,878.35
586.467,880.3
587.001,876.95
587.535,875.8
588.07,876.1
588.604,875.25
589.138,876.05
589.672,874.85
590.206,875.8
590.739,876.8
591.273,874.25
591.807,876.45
592.34,876.7
592.873,875.05
593.407,875.55
593.94,873.35
594.473,875.4
595.006,875.95
595.539,876.1
596.072,877.55
596.605,878.15
597.138,876.45
597.67,876.65
598.203,876.8
598.735,877.55
599.268,877.75
599.8,877.7
600.332,878.3
600.865,878.0
601.397,874.7
601.929,875.8
602.46,875.45
602.992,878.65
603.524,877.15
604.056,875.1
604.587,876.25
605.119,878.6
605.65,876.3
606.182,875.9
606.713,876.05
607.244,875.65
607.775,876.8
608.306,874.45
608.837,876.4
609.368,875.35
609.899,874.25
610.43,875.6
610.961,874.7
611.491,874.45
612.022,877.65
612.552,874.7
613.083,875.35
613.613,877.8
614.143,874.25
614.673,875.55
615.203,874.95
615.734,875.75
616.263,876.4
616.793,874.65
617.323,876.3
617.853,872.9
618.383,875.2
618.912,874.1
619.442,874.9
619.971,874.95
620.501,874.5
621.03,875.75
621.56,876.15
622.089,873.55
622.618,873.5
623.147,875.9
623.676,873.15
624.205,874.65
624.734,875.25
625.263,874.9
625.792,874.8
626.321,874.5
626.849,874.2
627.378,873.9
627.906,875.15
628.435,876.0
628.963,876.55
629.492,877.2
630.02,875.7
630.548,876.0
631.077,879.3
631.605,877.9
632.133,878.4
632.661,876.4
633.189,874.4
633.717,874.35
634.245,876.9
634.773,876.55
635.3,876.0
635.828,878.5
636.356,879.3
636.883,878.9
637.411,877.25
637.938,877.25
638.466,877.35
638.993,877.45
639.521,879.3
640.048,878.1
640.575,877.35
641.103,878.4
641.63,875.45
642.157,878.4
642.684,876.6
643.211,875.75
643.738,874.85
644.265,876.9
644.792,877.0
645.319,873.2
645.845,875.9
646.372,875.4
646.899,876.75
647.425,876.35
647.952,876.05
648.479,874.3
649.005,874.05
649.532,876.2
650.058,874.4
650.585,875.7
651.111,874.55
651.637,874.05
652.164,874.2
652.69,875.05
653.216,874.85
653.742,874.95
654.268,874.0
654.794,874.4
655.32,873.15
655.846,873.45
656.372,872.6
656.898,872.85
657.424,872.9
657.95,872.9
658.476,874.15
659.002,873.15
659.528,873.95
660.053,873.75
660.579,871.65
661.105,871.35
661.63,870.35
662.156,870.55
662.681,870.5
663.076,872.05

File: VLFR_06-PET_bio_Raman_7772f868.csv
nm,Intensity
526.547,832.9
527.095,832.65
527.642,832.85
528.189,832.65
528.736,832.4
529.283,832.3
529.829,830.95
530.376,832.65
530.922,831.5
531.468,832.45
532.014,840.55
532.56,831.65
533.106,832.35
533.651,841.85
534.196,1468.5
534.742,1284.8
535.287,1117.05
535.832,1016.65
536.376,958.05
536.921,935.85
537.465,925.3
538.01,922.25
538.554,928.25
539.098,926.4
539.642,934.7
540.186,937.45
540.729,915.95
541.273,912.8
541.816,915.85
542.36,915.35
542.903,915.0
543.446,915.1
543.988,921.85
544.531,919.5
545.074,920.65
545.616,921.2
546.158,924.8
546.701,930.75
547.243,928.45
547.785,931.35
548.326,931.35
548.868,932.05
549.41,937.0
549.951,936.85
550.492,952.25
551.034,947.25
551.575,944.75
552.116,947.85
552.656,953.55
553.197,958.55
553.738,955.25
554.278,955.45
554.819,957.35
555.359,966.8
555.899,991.25
556.439,998.85
556.979,1004.2
557.519,1085.4
558.058,1013.0
558.598,1016.8
559.137,992.55
559.677,982.2
560.216,983.85
560.755,986.5
561.294,989.6
561.833,991.75
562.371,1001.85
562.91,1010.35
563.449,1011.85
563.987,1009.1
564.525,1016.1
565.064,1045.55
565.602,1076.1
566.14,1075.6
566.678,1028.65
567.216,1024.0
567.753,1063.05
568.291,1027.7
568.828,1030.85
569.366,1036.75
569.903,1050.85
570.44,1079.75
570.977,1147.5
571.514,1193.85
572.051,1123.45
572.588,1072.5
573.125,1061.0
573.661,1060.65
574.198,1076.75
574.734,1072.35
575.271,1096.2
575.807,1080.3
576.343,1097.25
576.879,1102.75
577.415,1087.4
577.951,1082.95
578.486,1087.95
579.022,1088.35
579.557,1093.95
580.093,1098.6
580.628,1100.3
581.164,1108.05
581.699,1166.35
582.234,1765.4
582.769,1139.35
583.304,1119.75
583.838,1119.35
584.373,1121.9
584.908,1130.05
585.442,1201.25
585.977,1458.35
586.511,1303.95
587.045,1159.4
587.58,1143.45
588.114,1133.95
588.648,1137.7
589.182,1136.1
589.715,1132.45
590.249,1142.3
590.783,1144.95
591.316,1143.3
591.85,1139.35
592.383,1137.6
592.917,1140.7
593.45,1145.05
593.983,1142.95
594.516,1152.95
595.049,1150.4
595.582,1149.55
596.115,1153.0
596.648,1160.8
597.18,1160.3
597.713,1163.2
598.245,1161.85
598.778,1165.45
599.31,1171.35
599.842,1167.8
600.375,1170.7
600.907,1168.55
601.439,1166.75
601.971,1165.55
602.503,1177.2
603.034,1168.2
603.566,1177.35
604.098,1175.65
604.629,1169.6
605.161,1173.05
605.692,1166.05
606.224,1161.5
606.755,1167.25
607.286,1168.75
607.817,1169.8
608.348,1179.85
608.879,1174.15
609.41,1177.75
609.941,1169.75
610.472,1175.95
611.002,1174.6
611.533,1180.95
612.063,1175.85
612.594,1186.8
613.124,1189.95
613.655,1196.45
614.185,1195.35
614.715,1198.65
615.245,1196.95
615.775,1199.65
616.305,1202.0
616.835,1204.55
617.365,1207.45
617.895,1206.9
618.425,1211.5
618.954,1215.5
619.484,1210.85
620.013,1208.15
620.543,1212.6
621.072,1213.75
621.602,1208.5
622.131,1221.0
622.66,1226.6
623.189,1229.6
623.718,1236.8
624.247,1232.4
624.776,1245.35
625.305,1249.75
625.834,1248.9
626.363,1246.75
626.891,1246.85
627.42,1253.35
627.949,1256.85
628.477,1273.05
629.006,1283.15
629.534,1286.1
630.062,1277.95
630.591,1290.45
631.119,1332.5
631.647,1407.7
632.175,1390.1
632.703,1355.1
633.231,1340.8
633.759,1335.05
634.287,1317.15
634.815,1316.35
635.343,1329.35
635.871,1371.5
636.398,1446.65
636.926,1423.2
637.454,1357.85
637.981,1336.9
638.509,1339.55
639.036,1339.2
639.564,1339.4
640.091,1346.0
640.618,1345.95
641.146,1356.4
641.673,1363.35
642.2,1361.7
642.727,1367.3
643.254,1357.05
643.781,1356.7
644.308,1361.0
644.835,1357.4
645.362,1359.55
645.889,1364.1
646.416,1366.3
646.942,1370.1
647.469,1371.35
647.996,1376.35
648.522,1371.75
649.049,1375.1
649.576,1377.95
650.102,1370.7
650.629,1381.05
651.155,1375.05
651.682,1383.3
652.208,1381.05
652.734,1381.95
653.261,1384.05
653.787,1385.15
654.313,1384.65
654.839,1380.65
655.365,1389.2
655.892,1385.85
656.418,1387.0
656.944,1391.7
657.47,1390.6
657.996,1390.75
658.522,1390.25
659.048,1386.9
659.574,1386.55
660.099,1388.0
660.625,1388.05
661.151,1376.05
661.677,1384.75
662.203,1376.2
662.728,1381.15
663.123,1375.65

File: VLFR_06-PET_bio_Raman_9468c16d.csv
nm,Intensity
528.626,1865.2
529.132,1867.0
529.637,1866.3
530.143,1867.4
530.648,1866.8
531.153,1869.7
531.658,1925.5
532.164,4897.7
532.669,1873.7
533.174,1882.3
533.679,3631.2
534.184,8351.5
534.689,6582.2
535.194,5147.6
535.699,4022.4
536.203,3382.5
536.708,3071.9
537.213,2984.3
537.717,2959.8
538.222,2976.9
538.726,2971.6
539.231,3005.4
539.735,3170.6
540.239,3048.3
540.744,2899.1
541.248,2808.8
541.752,2804.2
542.256,2853.4
542.76,2838.3
543.264,2831.0
543.768,2883.3
544.272,2863.2
544.776,2869.5
545.28,2876.1
545.784,2877.8
546.287,2894.0
546.791,2909.5
547.294,2942.3
547.798,2934.7
548.301,2930.9
548.805,2965.5
549.308,2939.9
549.811,2976.9
550.315,3097.0
550.818,3577.3
551.321,3038.5
551.824,3048.9
552.327,3044.6
552.83,3464.4
553.333,3096.9
553.835,3114.2
554.338,3150.2
554.841,3171.6
555.343,3387.5
555.846,3599.7
556.349,3645.5
556.851,3730.5
557.353,4555.6
557.856,4207.4
558.358,3888.2
558.86,3710.5
559.362,3379.1
559.864,3372.7
560.366,3358.4
560.868,3423.3
561.37,3459.1
561.872,3535.7
562.374,3618.3
562.876,3720.0
563.377,3694.1
563.879,3586.8
564.38,3697.9
564.882,3926.3
565.383,4441.7
565.885,4675.0
566.386,4000.3
566.887,3776.8
567.388,3999.8
567.889,4190.8
568.391,3794.2
568.892,3807.1
569.392,3885.3
569.893,4148.4
570.394,4561.4
570.895,5517.9
571.395,6416.2
571.896,5163.3
572.397,4362.1
572.897,4135.6
573.397,4091.4
573.898,4195.1
574.398,4181.7
574.898,4278.5
575.398,4563.5
575.898,4265.4
576.398,4517.4
576.898,4533.1
577.398,4260.3
577.898,4291.8
578.398,4257.4
578.897,4317.2
579.397,4305.2
579.896,4360.9
580.396,4423.9
580.895,4583.3
581.395,4868.8
581.894,8847.6
582.393,8423.6
582.892,4653.0
583.391,4599.0
583.89,4588.9
584.389,4685.3
584.888,4845.2
585.387,5842.8
585.886,9091.8
586.384,7478.8
586.883,5203.8
587.381,4805.9
587.88,4727.6
588.378,4691.2
588.876,4747.8
589.375,4722.4
589.873,4669.8
590.371,4661.0
590.869,4664.7
591.367,4805.2
591.865,4809.7
592.363,4778.9
592.86,4815.4
593.358,4752.2
593.856,4826.8
594.353,4774.8
594.851,4897.2
595.348,4936.7
595.845,4947.6
596.342,4965.8
596.84,5013.0
597.337,4929.1
597.834,5000.4
598.331,5009.2
598.828,5060.0
599.324,5037.9
599.821,5037.3
600.318,5123.9
600.814,5075.8
601.311,5150.7
601.807,5148.5
602.304,5124.2
602.8,5253.2
603.296,5200.5
603.792,5216.1
604.288,5295.9
604.784,5238.1
605.28,5312.8
605.776,5346.9
606.272,5423.4
606.767,5497.4
607.263,5428.1
607.759,5645.9
608.254,5621.9
608.749,5622.4
609.245,5591.4
609.74,5508.2
610.235,5619.3
610.73,5674.8
611.225,5685.1
611.72,5659.1
612.215,5614.8
612.71,5751.6
613.204,5658.9
613.699,5704.1
614.194,5760.3
614.688,5790.4
615.182,5865.5
615.677,5867.9
616.171,5747.7
616.665,5786.5
617.159,5809.4
617.653,5799.1
618.147,5883.7
618.641,5836.4
619.135,5929.3
619.628,5755.8
620.122,5948.9
620.615,5835.1
621.109,5798.6
621.602,5828.7
622.095,5877.7
622.589,5901.8
623.082,5859.8
623.575,5935.6
624.068,5873.6
624.561,6057.1
625.053,5861.7
625.546,5921.4
626.039,5985.1
626.531,5891.7
627.024,5829.5
627.516,5911.4
628.008,5949.5
628.501,6097.4
628.993,6173.8
629.485,6156.7
629.977,6148.8
630.469,6199.0
630.96,6589.3
631.452,7138.2
631.944,7293.5
632.435,6840.5
632.927,6561.6
633.418,6660.2
633.91,6394.9
634.401,6233.1
634.892,6228.1
635.383,6327.5
635.874,6719.8
636.365,7567.5
636.856,7208.8
637.346,6440.4
637.837,6295.0
638.327,6162.6
638.818,6080.4
639.308,6176.1
639.799,6075.4
640.289,6106.6
640.779,5835.3
641.269,6033.1
641.759,6044.7
642.249,6133.4
642.738,6212.6
643.228,6075.3
643.718,6109.9
644.207,6109.7
644.697,6122.2
645.186,6020.5
645.675,6121.0
646.164,6054.6
646.653,5953.7
647.142,6018.2
647.631,6069.0
648.12,5939.8
648.609,5887.2
649.098,5986.4
649.586,5857.6
650.075,5865.3
650.563,5838.6
651.051,5923.7
651.539,5882.3
652.027,5714.1
652.515,5787.7
653.003,5830.4
653.491,5605.9
653.979,5781.4
654.467,5745.4
654.954,5576.5
655.442,5654.9
655.929,5710.8
656.416,5570.9
656.904,5692.5
657.391,5477.1
657.878,5402.4
658.365,5428.8
658.851,5446.0
659.338,5235.8
659.825,5257.8
660.311,5192.4
660.798,5269.9
661.041,5244.7

File: VLFR_06-PET_bio_Raman_29127d5f.csv
nm,Intensity
526.508,831.2
527.055,831.2
527.602,830.7
528.149,831.6
528.695,831.7
529.241,829.0
529.787,831.3
530.334,830.4
530.879,832.2
531.425,831.2
531.971,834.9
532.516,831.2
533.062,832.5
533.607,840.0
534.152,2217.2
534.697,2342.3
535.242,2330.2
535.786,2413.9
536.331,2455.2
536.876,2483.3
537.42,2514.1
537.964,2566.4
538.508,2622.0
539.052,2648.7
539.596,2713.8
540.14,2745.2
540.683,2777.7
541.227,2815.5
541.77,2892.6
542.313,2935.7
542.856,2983.2
543.399,3036.4
543.942,3092.6
544.485,3149.7
545.027,3221.3
545.57,3243.3
546.112,3307.2
546.654,3365.5
547.196,3417.0
547.738,3452.0
548.28,3516.6
548.822,3564.9
549.363,3628.1
549.905,3671.9
550.446,3708.0
550.988,3761.9
551.529,3831.8
552.07,3903.9
552.611,3922.4
553.152,3973.6
553.692,4052.2
554.233,4107.0
554.773,4163.1
555.314,4170.6
555.854,4196.0
556.394,4269.0
556.934,4320.1
557.474,4372.1
558.014,4411.8
558.553,4435.1
559.093,4484.8
559.632,4574.3
560.172,4642.9
560.711,4705.6
561.25,4760.5
561.789,4799.8
562.328,4858.1
562.867,4936.8
563.406,5046.6
563.944,5090.1
564.483,5179.5
565.021,5260.6
565.559,5299.0
566.098,5374.4
566.636,5368.9
567.174,5404.5
567.711,5431.7
568.249,5514.2
568.787,5625.0
569.324,5722.8
569.862,5770.8
570.399,5834.0
570.936,5842.6
571.474,5839.1
572.011,5967.2
572.548,6049.9
573.084,6130.5
573.621,6198.5
574.158,6265.6
574.694,6340.4
575.231,6356.9
575.767,6425.4
576.303,6468.8
576.84,6541.1
577.376,6600.4
577.912,6649.6
578.447,6732.1
578.983,6816.6
579.519,6837.4
580.054,6875.6
580.59,6930.6
581.125,6957.8
581.661,6999.0
582.196,7147.1
582.731,7155.4
583.266,7209.4
583.801,7290.7
584.336,7293.6
584.87,7322.9
585.405,7398.1
585.94,7458.8
586.474,7564.7
587.008,7611.3
587.543,7645.3
588.077,7664.1
588.611,7676.6
589.145,7617.0
589.679,7686.7
590.213,7760.4
590.747,7773.6
591.28,7842.4
591.814,7856.2
592.347,7886.4
592.881,7849.1
593.414,7871.9
593.947,7878.7
594.48,7972.6
595.014,8060.0
595.547,8114.2
596.079,8137.1
596.612,8192.5
597.145,8258.6
597.678,8197.9
598.21,8314.8
598.743,8358.6
599.275,8422.0
599.807,8420.2
600.34,8405.7
600.872,8371.1
601.404,8361.3
601.936,8396.2
602.468,8425.0
603.0,8463.2
603.532,8537.0
604.063,8541.1
604.595,8465.0
605.126,8451.3
605.658,8346.5
606.189,8335.0
606.721,8363.1
607.252,8393.8
607.783,8441.5
608.314,8528.0
608.845,8565.5
609.376,8563.9
609.907,8574.9
610.438,8560.0
610.968,8581.0
611.499,8600.3
612.03,8695.6
612.56,8780.3
613.091,8866.7
613.621,8885.8
614.151,8938.9
614.681,8895.7
615.212,8885.4
615.742,8917.1
616.272,8877.4
616.802,8937.9
617.332,9025.1
617.861,8990.2
618.391,9058.8
618.921,9000.6
619.45,9039.6
619.98,9019.9
620.509,8993.6
621.039,8961.0
621.568,9002.4
622.097,9021.3
622.627,9043.5
623.156,9131.5
623.685,9133.0
624.214,9185.2
624.743,9174.6
625.272,9170.8
625.801,9162.8
626.33,9135.7
626.858,9101.8
627.387,9128.4
627.916,9098.4
628.444,9094.4
628.973,9125.3
629.501,9115.3
630.029,9172.6
630.558,9122.3
631.086,9163.5
631.614,9127.2
632.142,9117.3
632.67,9065.9
633.198,9068.2
633.726,9033.5
634.254,8998.6
634.782,8998.2
635.31,9016.4
635.838,9033.6
636.365,9060.7
636.893,9019.8
637.421,8991.7
637.948,8979.1
638.476,8990.2
639.003,8954.3
639.531,8927.2
640.058,8917.3
640.585,8913.0
641.113,8921.2
641.64,8881.6
642.167,8890.0
642.694,8845.9
643.221,8759.1
643.748,8672.4
644.275,8648.3
644.802,8592.7
645.329,8571.1
645.856,8538.8
646.382,8564.9
646.909,8554.5
647.436,8563.3
647.962,8555.7
648.489,8491.4
649.016,8461.4
649.542,8397.2
650.069,8347.1
650.595,8320.8
651.121,8301.9
651.648,8328.3
652.174,8281.1
652.7,8287.6
653.227,8269.8
653.753,8223.0
654.279,8258.9
654.805,8195.7
655.331,8162.0
655.857,8201.0
656.383,8115.3
656.909,8121.1
657.435,8134.1
657.961,8114.8
658.487,8101.1
659.013,8102.3
659.538,8119.9
660.064,8057.4
660.59,8048.8
661.116,7953.9
661.641,7891.4
662.167,7876.8
662.692,7890.6
663.087,7838.2

File: VLFR_06-PET_bio_Raman_00515583.csv
nm,Intensity
528.626,1864.99
529.132,1865.23
529.637,1865.4
530.143,1866.11
530.648,1866.12
531.153,1868.47
531.658,1910.94
532.164,5444.65
532.669,1868.61
533.174,1867.09
533.679,2014.01
534.184,2563.92
534.689,2484.94
535.194,2459.0
535.699,2395.77
536.203,2342.99
536.708,2315.81
537.213,2295.84
537.717,2301.59
538.222,2288.29
538.726,2299.6
539.231,2307.09
539.735,2304.08
540.239,2311.94
540.744,2306.32
541.248,2309.51
541.752,2315.4
542.256,2328.13
542.76,2333.3
543.264,2338.97
543.768,2348.57
544.272,2342.68
544.776,2354.76
545.28,2358.0
545.784,2372.37
546.287,2375.75
546.791,2395.57
547.294,2396.96
547.798,2408.77
548.301,2411.78
548.805,2419.87
549.308,2425.87
549.811,2427.43
550.315,2441.5
550.818,2460.25
551.321,2454.64
551.824,2461.81
552.327,2472.28
552.83,2459.8
553.333,2474.05
553.835,2493.75
554.338,2519.44
554.841,2511.97
555.343,2523.32
555.846,2531.08
556.349,2535.47
556.851,2548.62
557.353,2575.39
557.856,2566.39
558.358,2574.79
558.86,2582.81
559.362,2587.47
559.864,2600.15
560.366,2582.08
560.868,2604.85
561.37,2622.12
561.872,2623.75
562.374,2646.98
562.876,2644.17
563.377,2651.33
563.879,2649.57
564.38,2648.17
564.882,2668.82
565.383,2667.79
565.885,2697.18
566.386,2671.59
566.887,2662.78
567.388,2690.83
567.889,2712.48
568.391,2734.51
568.892,2717.28
569.392,2768.12
569.893,2773.47
570.394,2792.47
570.895,2802.77
571.395,2830.73
571.896,2878.11
572.397,2864.3
572.897,2847.51
573.397,2843.6
573.898,2826.23
574.398,2809.27
574.898,2831.76
575.398,2873.48
575.898,2903.73
576.398,2949.4
576.898,2947.58
577.398,2887.12
577.898,2870.93
578.398,2873.69
578.897,2852.55
579.397,2887.43
579.896,2890.91
580.396,2891.23
580.895,2888.11
581.395,2898.36
581.894,3032.75
582.393,2975.5
582.892,2932.76
583.391,2945.75
583.89,2930.54
584.389,2907.4
584.888,2905.56
585.387,2875.22
585.886,2919.94
586.384,2905.21
586.883,2882.61
587.381,2873.15
587.88,2877.74
588.378,2867.74
588.876,2869.67
589.375,2830.27
589.873,2848.85
590.371,2850.87
590.869,2868.96
591.367,2854.95
591.865,2858.94
592.363,2865.14
592.86,2860.52
593.358,2856.25
593.856,2837.96
594.353,2851.59
594.851,2863.1
595.348,2870.56
595.845,2860.42
596.342,2870.71
596.84,2885.96
597.337,2861.07
597.834,2882.23
598.331,2880.65
598.828,2895.26
599.324,2884.56
599.821,2897.86
600.318,2903.76
600.814,2901.06
601.311,2886.69
601.807,2903.23
602.304,2899.51
602.8,2906.55
603.296,2917.31
603.792,2939.29
604.288,2929.76
604.784,2924.89
605.28,2913.28
605.776,2937.6
606.272,2922.15
606.767,2923.89
607.263,2926.93
607.759,2920.55
608.254,2932.66
608.749,2946.55
609.245,2947.88
609.74,2954.77
610.235,2954.9
610.73,2960.31
611.225,2964.52
611.72,2960.29
612.215,2975.31
612.71,2958.63
613.204,2957.13
613.699,2951.99
614.194,2964.29
614.688,2984.66
615.182,2967.79
615.677,2980.84
616.171,2964.97
616.665,2975.99
617.159,2978.68
617.653,2960.24
618.147,2970.88
618.641,2956.98
619.135,2961.94
619.628,2997.63
620.122,2968.22
620.615,2988.71
621.109,2975.19
621.602,2975.05
622.095,2971.54
622.589,2985.87
623.082,2956.93
623.575,2944.77
624.068,2964.87
624.561,2962.44
625.053,2961.88
625.546,2934.54
626.039,2937.69
626.531,2944.48
627.024,3070.47
627.516,3151.94
628.008,3138.79
628.501,3203.34
628.993,3196.16
629.485,3185.47
629.977,3213.42
630.469,3232.65
630.96,3141.08
631.452,3097.12
631.944,3035.3
632.435,2991.16
632.927,2967.97
633.418,2951.43
633.91,2916.74
634.401,2875.64
634.892,2910.21
635.383,2890.57
635.874,2870.16
636.365,2889.21
636.856,2861.62
637.346,2853.22
637.837,2820.97
638.327,2838.56
638.818,2809.21
639.308,2813.05
639.799,2826.09
640.289,2787.08
640.779,2785.43
641.269,2772.69
641.759,2760.98
642.249,2799.87
642.738,2765.36
643.228,2753.89
643.718,2768.85
644.207,2775.23
644.697,2735.21
645.186,2755.35
645.675,2720.5
646.164,2711.73
646.653,2713.79
647.142,2711.4
647.631,2703.29
648.12,2689.11
648.609,2675.47
649.098,2653.91
649.586,2637.76
650.075,2636.76
650.563,2635.79
651.051,2648.73
651.539,2634.68
652.027,2634.23
652.515,2598.76
653.003,2613.58
653.491,2586.9
653.979,2577.87
654.467,2561.86
654.954,2535.14
655.442,2550.6
655.929,2554.22
656.416,2529.48
656.904,2536.56
657.391,2526.12
657.878,2505.8
658.365,2492.31
658.851,2485.83
659.338,2455.36
659.825,2456.25
660.311,2470.43
660.798,2441.3
661.041,2445.43

File: VLFR_06-PET_bio_Raman_a38a0259.csv
nm,Intensity
526.493,828.45
527.039,829.95
527.586,829.0
528.133,829.7
528.679,829.2
529.225,829.3
529.771,829.5
530.317,829.6
530.863,828.7
531.409,829.2
531.955,830.3
532.5,829.45
533.046,829.2
533.591,838.3
534.136,1876.6
534.681,1597.95
535.226,1306.35
535.771,1116.75
536.315,1009.0
536.86,960.85
537.404,940.9
537.948,935.0
538.493,940.7
539.037,933.75
539.58,946.85
540.124,952.95
540.668,916.0
541.211,905.55
541.755,901.55
542.298,899.75
542.841,903.75
543.384,899.75
543.927,907.4
544.47,905.4
545.013,903.35
545.555,905.5
546.098,908.0
546.64,905.95
547.182,905.6
547.724,908.95
548.266,910.3
548.808,912.0
549.35,908.3
549.892,913.95
550.433,924.0
550.974,933.1
551.516,918.9
552.057,920.1
552.598,924.6
553.139,940.55
553.68,924.2
554.22,923.9
554.761,926.45
555.301,937.3
555.842,978.4
556.382,981.15
556.922,986.2
557.462,1099.65
558.002,1016.15
558.542,1002.0
559.082,967.7
559.621,944.0
560.161,940.95
560.7,945.6
561.239,951.05
561.778,953.7
562.317,965.7
562.856,972.05
563.395,973.6
563.934,965.3
564.472,978.1
565.011,1010.6
565.549,1063.75
566.088,1062.1
566.626,984.65
567.164,971.85
567.702,1036.85
568.24,979.25
568.777,976.05
569.315,976.85
569.853,1004.3
570.39,1037.55
570.927,1147.55
571.465,1251.35
572.002,1109.6
572.539,1024.8
573.076,996.55
573.612,998.85
574.149,1020.75
574.686,1004.95
575.222,1027.25
575.759,1010.5
576.295,1031.25
576.831,1045.25
577.367,1021.65
577.903,1004.75
578.439,1010.1
578.975,1007.85
579.511,1007.2
580.046,1011.9
580.582,1019.2
581.117,1041.0
581.653,1102.65
582.188,2099.9
582.723,1079.25
583.258,1034.65
583.793,1029.75
584.328,1037.65
584.863,1046.55
585.398,1124.9
585.932,1562.1
586.467,1370.45
587.001,1085.95
587.535,1043.1
588.07,1044.55
588.604,1037.4
589.138,1034.5
589.672,1034.25
590.206,1032.55
590.739,1036.1
591.273,1036.1
591.807,1041.0
592.34,1039.2
592.873,1035.3
593.407,1038.45
593.94,1037.25
594.473,1039.2
595.006,1043.25
595.539,1043.7
596.072,1044.6
596.605,1048.5
597.138,1046.6
597.67,1049.0
598.203,1050.5
598.735,1050.6
599.268,1050.5
599.8,1049.5
600.332,1051.85
600.865,1051.0
601.397,1050.0
601.929,1052.7
602.46,1050.5
602.992,1054.65
603.524,1056.8
604.056,1054.4
604.587,1053.35
605.119,1047.4
605.65,1046.25
606.182,1048.3
606.713,1048.15
607.244,1051.1
607.775,1049.9
608.306,1053.7
608.837,1055.6
609.368,1053.65
609.899,1051.4
610.43,1053.35
610.961,1051.6
611.491,1050.4
612.022,1056.2
612.552,1059.7
613.083,1064.5
613.613,1068.05
614.143,1069.35
614.673,1068.15
615.203,1068.85
615.734,1066.3
616.263,1065.25
616.793,1075.35
617.323,1073.0
617.853,1073.95
618.383,1078.35
618.912,1075.6
619.442,1068.85
619.971,1066.6
620.501,1069.25
621.03,1068.6
621.56,1079.7
622.089,1071.75
622.618,1076.65
623.147,1078.25
623.676,1082.9
624.205,1084.85
624.734,1090.8
625.263,1092.9
625.792,1095.3
626.321,1090.35
626.849,1086.65
627.378,1090.4
627.906,1099.35
628.435,1109.85
628.963,1130.7
629.492,1130.95
630.02,1128.3
630.548,1127.0
631.077,1171.7
631.605,1273.5
632.133,1271.8
632.661,1203.15
633.189,1193.4
633.717,1179.6
634.245,1155.15
634.773,1150.35
635.3,1149.05
635.828,1201.25
636.356,1295.25
636.883,1299.4
637.411,1180.15
637.938,1154.0
638.466,1150.25
638.993,1150.2
639.521,1151.45
640.048,1153.75
640.575,1147.1
641.103,1158.6
641.63,1160.1
642.157,1166.55
642.684,1161.6
643.211,1154.65
643.738,1152.7
644.265,1156.75
644.792,1157.5
645.319,1157.9
645.845,1159.6
646.372,1153.1
646.899,1163.3
647.425,1168.6
647.952,1165.95
648.479,1163.65
649.005,1162.8
649.532,1165.75
650.058,1160.15
650.585,1159.95
651.111,1164.2
651.637,1167.45
652.164,1164.7
652.69,1168.8
653.216,1167.15
653.742,1171.4
654.268,1165.5
654.794,1166.15
655.32,1167.8
655.846,1165.5
656.372,1165.15
656.898,1168.45
657.424,1168.4
657.95,1163.65
658.476,1166.05
659.002,1162.35
659.528,1168.2
660.053,1170.2
660.579,1168.2
661.105,1160.0
661.63,1158.75
662.156,1155.95
662.681,1160.5
663.076,1159.1