Folder: MPX_specDB/spectra (part 124)

File: VLFR_07-PET_nobio_Raman_e3623f29.csv
nm,Intensity
791.377,10784.3
792.477,9875.56
793.576,9455.8
794.676,9170.38
795.775,9044.42
796.874,8898.22
797.973,8937.78
799.072,8936.56
800.171,8764.5
801.27,8852.42
802.368,8684.82
803.467,8720.5
804.565,8562.9
805.664,8492.06
806.762,8452.64
807.86,8354.58
808.958,8345.7
810.056,8230.74
811.153,8164.78
812.251,8108.36
813.349,8047.66
814.446,7862.38
815.543,7923.68
816.64,7915.12
817.737,7805.74
818.834,7734.62
819.931,7624.88
821.028,7572.0
822.125,7485.54
823.221,7468.6
824.317,7342.92
825.414,7486.56
826.51,7400.98
827.606,7216.7
828.702,7190.62
829.797,7213.38
830.893,7195.04
831.988,7073.86
833.084,7012.82
834.179,7030.78
835.274,6889.24
836.369,6877.18
837.464,7062.0
838.559,6924.42
839.654,6985.74
840.748,7002.38
841.843,7164.42
842.937,6796.36
844.031,6793.94
845.125,6536.3
846.219,6520.42
847.313,6513.22
848.407,6468.36
849.5,6404.48
850.593,6332.64
851.687,6365.42
852.78,6380.64
853.873,6264.12
854.966,6240.56
856.059,6229.28
857.151,6182.9
858.244,6266.82
859.336,6344.38
860.428,6280.26
861.52,6163.48
862.612,6068.84
863.704,6028.16
864.796,6082.84
865.888,5991.18
866.979,5932.48
868.07,5913.32
869.162,5905.84
870.253,5909.92
871.344,6036.7
872.434,6200.6
873.525,6190.94
874.615,5992.62
875.706,5799.76
876.796,5764.82
877.886,5680.06
878.976,5660.06
880.066,5648.42
881.156,5611.36
882.245,5583.66
883.335,5635.32
884.424,5551.86
885.513,5588.34
886.602,5471.46
887.691,5428.04
888.78,5420.4
889.868,5388.5
890.957,5368.18
892.045,5387.72
893.133,5275.4
894.221,5257.58
895.309,5282.8
896.397,5251.26
897.484,5489.1
898.571,5961.64
899.659,5474.72
900.746,5127.1
901.833,5098.3
902.92,5033.2
904.006,5065.24
905.093,5017.02
906.179,5141.52
907.266,5408.42
908.352,5465.5
909.438,5160.0
910.523,4945.14
911.609,4845.08
912.695,4836.86
913.78,4776.9
914.865,4755.96
915.95,4735.2
917.035,4721.64
918.12,4674.34
919.204,4648.04
920.289,4623.5
921.373,4613.8
922.457,4609.06
923.541,4596.22
924.625,4538.84
925.709,4515.74
926.792,4488.24
927.876,4485.72
928.959,4432.74
930.042,4431.66
931.125,4398.96
932.208,4377.48
933.29,4362.08
934.373,4357.52
935.455,4313.58
936.537,4316.34
937.619,4292.32
938.701,4277.94
939.782,4255.2
940.864,4251.52
941.945,4222.34
943.026,4212.32
944.107,4210.46
945.188,4161.38
946.269,4176.66
947.349,4167.82
948.43,4144.8
949.51,4129.62
950.59,4127.2
951.67,4110.9
952.75,4096.24
953.829,4072.54
954.909,4080.62
955.988,4057.92
957.067,4058.6
958.146,4036.7
959.224,4036.0
960.303,4030.28
961.381,4010.76
962.459,4006.06
963.537,3991.74
964.615,3986.88
965.693,3983.86
966.771,3973.9
967.848,3965.76
968.925,3962.88
970.002,3954.8
971.079,3949.68
972.156,3928.6
973.232,3934.86
974.309,3922.74
975.385,3919.72
976.461,3916.12
977.537,3898.58
978.612,3901.12
979.688,3893.72
980.763,3887.14
981.838,3882.32
982.913,3885.16
983.988,3877.46
985.063,3871.26
986.137,3866.02
987.211,3864.66
988.285,3857.48
989.359,3852.12
990.433,3851.14
991.506,3842.52
992.58,3838.66
993.653,3836.12
994.726,3828.12
995.799,3823.82
996.872,3823.54
997.944,3821.82
999.016,3818.2
1000.09,3816.54
1001.16,3813.02
1002.23,3810.14
1003.3,3806.04
1004.38,3802.42
1005.45,3800.3
1006.52,3798.66
1007.59,3793.14
1008.66,3793.84
1009.73,3790.94
1010.8,3787.14
1011.87,3786.06
1012.94,3784.02
1014.01,3786.34
1015.08,3780.72
1016.15,3778.92
1017.22,3777.92
1018.29,3776.6
1019.36,3775.1
1020.42,3774.98
1021.49,3780.02
1022.56,3780.4
1023.63,3782.64
1024.7,3776.56
1025.76,3769.82
1026.83,3766.42
1027.9,3763.74
1028.97,3759.32
1030.03,3757.74
1031.1,3757.3
1032.17,3756.52
1033.23,3756.5
1034.3,3760.9
1035.36,3761.06
1036.43,3759.82
1037.5,3753.8
1038.56,3750.7
1039.63,3747.46
1040.69,3747.46
1041.76,3745.48
1042.82,3745.22
1043.89,3744.62
1044.95,3743.54
1046.01,3742.96
1047.08,3742.52
1048.14,3742.26
1049.2,3742.0
1050.27,3741.16
1051.33,3741.96
1052.39,3741.04
1053.46,3739.42
1054.52,3740.48
1055.58,3740.12
1056.64,3738.94
1057.7,3738.1
1058.77,3739.18
1059.83,3739.98
1060.89,3739.28
1061.95,3738.66
1063.01,3738.42
1064.07,3738.14
1065.13,3738.24
1066.19,3738.04
1067.25,3736.38
1068.05,3736.46

File: VLFR_07-PET_nobio_Raman_f0cb5463.csv
nm,Intensity
791.588,11252.0
792.685,10322.1
793.781,9994.4
794.878,9641.0
795.975,9565.5
797.071,9461.3
798.168,9565.7
799.264,9557.0
800.36,9504.7
801.456,9436.5
802.552,9401.9
803.648,9227.7
804.744,9095.1
805.84,9068.7
806.936,8917.6
808.031,8830.1
809.127,8783.5
810.222,8655.0
811.317,8659.7
812.412,8677.8
813.507,8647.3
814.602,8461.3
815.697,8428.3
816.792,8372.8
817.887,8288.7
818.981,8229.5
820.076,8214.0
821.17,8154.7
822.265,8022.7
823.359,7961.1
824.453,7967.9
825.547,8040.6
826.641,7940.5
827.735,7795.0
828.828,7673.1
829.922,7642.8
831.016,7771.9
832.109,7595.4
833.202,7487.0
834.295,7358.5
835.388,7456.1
836.481,7415.9
837.574,7499.0
838.667,7444.3
839.76,7365.8
840.852,7532.6
841.945,7548.3
843.037,7342.4
844.129,7186.4
845.221,7064.2
846.314,6913.5
847.405,6907.2
848.497,6906.4
849.589,6762.8
850.681,6784.7
851.772,6815.8
852.863,6848.6
853.955,6722.5
855.046,6672.8
856.137,6594.8
857.228,6621.8
858.318,6712.0
859.409,6746.9
860.5,6738.1
861.59,6590.2
862.681,6492.7
863.771,6470.2
864.861,6511.3
865.951,6361.0
867.041,6326.2
868.131,6245.8
869.22,6285.1
870.31,6318.7
871.399,6457.0
872.488,6649.1
873.578,6589.6
874.667,6390.6
875.756,6230.4
876.845,6170.9
877.933,6102.1
879.022,6099.7
880.11,6006.2
881.199,5963.3
882.287,5990.7
883.375,6013.0
884.463,5893.3
885.551,5963.9
886.639,5828.1
887.726,5863.8
888.814,5746.3
889.901,5722.4
890.988,5740.7
892.075,5706.9
893.162,5615.8
894.249,5584.1
895.336,5559.2
896.423,5567.5
897.509,5788.0
898.595,6199.5
899.682,5859.0
900.768,5423.9
901.854,5334.9
902.94,5327.7
904.025,5308.4
905.111,5266.9
906.196,5418.2
907.282,5718.9
908.367,5745.8
909.452,5386.0
910.537,5153.1
911.622,5067.5
912.706,5009.7
913.791,5015.1
914.875,4936.3
915.959,4951.1
917.044,4876.9
918.128,4856.9
919.211,4837.4
920.295,4823.8
921.379,4822.1
922.462,4755.7
923.546,4706.2
924.629,4678.8
925.712,4669.8
926.795,4646.4
927.877,4605.1
928.96,4586.3
930.043,4552.7
931.125,4516.2
932.207,4508.3
933.289,4454.7
934.371,4467.7
935.453,4437.2
936.535,4396.5
937.616,4402.6
938.697,4384.6
939.779,4364.3
940.86,4329.9
941.941,4339.9
943.022,4302.6
944.102,4298.5
945.183,4271.5
946.263,4262.7
947.343,4237.1
948.423,4227.6
949.503,4222.5
950.583,4187.1
951.663,4181.3
952.742,4172.8
953.822,4156.5
954.901,4145.3
955.98,4129.5
957.059,4127.1
958.137,4102.3
959.216,4090.1
960.294,4084.0
961.373,4067.7
962.451,4058.5
963.529,4054.1
964.607,4039.0
965.684,4031.0
966.762,4022.8
967.839,4024.6
968.917,4003.6
969.994,3995.4
971.071,3996.9
972.147,3984.2
973.224,3973.3
974.3,3965.8
975.377,3954.3
976.453,3950.4
977.529,3944.1
978.605,3937.5
979.68,3938.3
980.756,3925.7
981.831,3925.5
982.907,3913.7
983.982,3910.1
985.057,3903.6
986.131,3900.5
987.206,3894.1
988.28,3889.5
989.355,3892.6
990.429,3885.8
991.503,3879.1
992.576,3869.7
993.65,3864.1
994.723,3859.6
995.797,3861.2
996.87,3846.2
997.943,3851.7
999.016,3847.8
1000.09,3843.6
1001.16,3835.2
1002.23,3834.8
1003.31,3833.9
1004.38,3829.3
1005.45,3821.7
1006.52,3817.4
1007.59,3816.9
1008.66,3812.7
1009.73,3810.2
1010.81,3811.6
1011.88,3804.6
1012.95,3800.9
1014.02,3803.4
1015.09,3801.3
1016.16,3800.6
1017.23,3796.4
1018.3,3795.8
1019.37,3787.7
1020.44,3793.6
1021.51,3800.1
1022.58,3800.4
1023.64,3793.7
1024.71,3794.5
1025.78,3790.8
1026.85,3787.4
1027.92,3780.4
1028.99,3776.8
1030.05,3774.3
1031.12,3773.2
1032.19,3770.8
1033.26,3771.3
1034.32,3776.6
1035.39,3777.9
1036.46,3773.4
1037.52,3771.2
1038.59,3765.9
1039.66,3761.8
1040.72,3764.2
1041.79,3761.6
1042.86,3760.5
1043.92,3759.0
1044.99,3756.9
1046.05,3756.7
1047.12,3756.6
1048.18,3755.4
1049.25,3755.5
1050.31,3753.5
1051.37,3756.3
1052.44,3756.5
1053.5,3752.8
1054.57,3754.8
1055.63,3756.9
1056.69,3755.5
1057.76,3753.8
1058.82,3749.6
1059.88,3755.0
1060.95,3751.3
1062.01,3754.4
1063.07,3751.6
1064.13,3754.2
1065.19,3752.6
1066.26,3749.8
1067.32,3751.4
1068.11,3751.5

File: VLFR_07-PET_nobio_Raman_f9c589ed.csv
nm,Intensity
791.377,12743.6
792.477,11754.8
793.576,11033.4
794.676,10765.2
795.775,10650.7
796.874,10544.8
797.973,10517.4
799.072,10467.6
800.171,10257.3
801.27,10299.8
802.368,10220.3
803.467,10020.2
804.565,9806.7
805.664,9824.24
806.762,9639.28
807.86,9524.32
808.958,9486.82
810.056,9385.28
811.153,9328.32
812.251,9308.36
813.349,9108.74
814.446,9063.68
815.543,9069.98
816.64,9001.98
817.737,8909.72
818.834,8803.64
819.931,8680.56
821.028,8692.86
822.125,8573.32
823.221,8472.14
824.317,8437.84
825.414,8490.62
826.51,8222.8
827.606,8165.0
828.702,8058.54
829.797,8040.54
830.893,8031.42
831.988,7785.48
833.084,7763.98
834.179,7675.06
835.274,7629.58
836.369,7597.52
837.464,7663.58
838.559,7652.38
839.654,7559.8
840.748,7722.52
841.843,7757.58
842.937,7409.02
844.031,7416.68
845.125,7148.44
846.219,7054.04
847.313,7020.6
848.407,7052.22
849.5,7057.6
850.593,6951.98
851.687,6953.64
852.78,6948.52
853.873,6850.1
854.966,6864.7
856.059,6741.24
857.151,6755.5
858.244,6767.54
859.336,6857.02
860.428,6917.3
861.52,6696.92
862.612,6553.92
863.704,6533.06
864.796,6596.02
865.888,6455.96
866.979,6338.38
868.07,6431.9
869.162,6370.66
870.253,6337.5
871.344,6533.22
872.434,6656.82
873.525,6643.12
874.615,6393.58
875.706,6212.02
876.796,6201.28
877.886,6166.06
878.976,6072.52
880.066,5992.64
881.156,6039.8
882.245,5954.26
883.335,5998.4
884.424,5881.78
885.513,5938.18
886.602,5874.38
887.691,5735.72
888.78,5764.08
889.868,5701.22
890.957,5622.84
892.045,5696.84
893.133,5612.84
894.221,5569.4
895.309,5548.24
896.397,5498.32
897.484,5731.2
898.571,6235.92
899.659,5781.9
900.746,5431.24
901.833,5307.58
902.92,5262.62
904.006,5260.94
905.093,5196.48
906.179,5325.18
907.266,5621.06
908.352,5699.6
909.438,5370.74
910.523,5104.82
911.609,5034.36
912.695,4932.52
913.78,4945.92
914.865,4909.78
915.95,4870.32
917.035,4839.0
918.12,4821.48
919.204,4813.82
920.289,4773.14
921.373,4773.04
922.457,4700.92
923.541,4721.72
924.625,4656.16
925.709,4627.42
926.792,4605.54
927.876,4591.58
928.959,4543.92
930.042,4524.68
931.125,4491.5
932.208,4472.98
933.29,4454.36
934.373,4431.06
935.455,4395.26
936.537,4384.52
937.619,4365.92
938.701,4360.98
939.782,4316.44
940.864,4318.22
941.945,4289.6
943.026,4298.54
944.107,4238.26
945.188,4248.68
946.269,4247.96
947.349,4213.8
948.43,4195.68
949.51,4179.62
950.59,4167.94
951.67,4158.44
952.75,4126.32
953.829,4132.86
954.909,4126.66
955.988,4093.9
957.067,4105.2
958.146,4068.88
959.224,4062.68
960.303,4058.26
961.381,4040.96
962.459,4047.74
963.537,4026.48
964.615,4016.7
965.693,4012.0
966.771,3998.42
967.848,3999.36
968.925,3984.62
970.002,3979.2
971.079,3959.26
972.156,3958.3
973.232,3951.34
974.309,3952.2
975.385,3933.2
976.461,3929.26
977.537,3918.44
978.612,3920.62
979.688,3906.24
980.763,3902.08
981.838,3896.02
982.913,3897.24
983.988,3887.82
985.063,3884.1
986.137,3873.48
987.211,3871.22
988.285,3870.74
989.359,3867.7
990.433,3856.1
991.506,3850.84
992.58,3847.38
993.653,3842.54
994.726,3839.28
995.799,3835.54
996.872,3829.24
997.944,3826.08
999.016,3819.12
1000.09,3819.96
1001.16,3815.84
1002.23,3809.76
1003.3,3811.04
1004.38,3806.02
1005.45,3802.58
1006.52,3799.9
1007.59,3794.5
1008.66,3792.76
1009.73,3787.74
1010.8,3786.24
1011.87,3786.9
1012.94,3783.2
1014.01,3780.5
1015.08,3783.2
1016.15,3779.88
1017.22,3774.24
1018.29,3773.92
1019.36,3771.66
1020.42,3771.0
1021.49,3777.12
1022.56,3779.36
1023.63,3775.88
1024.7,3771.84
1025.76,3766.46
1026.83,3763.22
1027.9,3759.92
1028.97,3757.58
1030.03,3753.66
1031.1,3750.88
1032.17,3752.22
1033.23,3752.68
1034.3,3755.36
1035.36,3755.94
1036.43,3754.36
1037.5,3750.52
1038.56,3746.52
1039.63,3744.96
1040.69,3742.22
1041.76,3741.9
1042.82,3740.78
1043.89,3740.18
1044.95,3737.86
1046.01,3736.9
1047.08,3738.18
1048.14,3737.18
1049.2,3736.78
1050.27,3736.08
1051.33,3736.78
1052.39,3735.36
1053.46,3735.04
1054.52,3734.8
1055.58,3734.64
1056.64,3734.34
1057.7,3733.28
1058.77,3734.18
1059.83,3732.34
1060.89,3732.58
1061.95,3732.72
1063.01,3732.42
1064.07,3732.92
1065.13,3731.9
1066.19,3731.24
1067.25,3730.52
1068.05,3729.8

File: VLFR_07-PET_nobio_Raman_f315b230.csv
nm,Intensity
782.722,3748.96
783.822,3755.4
784.922,5612.56
786.022,3956.48
787.122,3762.64
788.222,4850.26
789.321,7324.22
790.421,7367.3
791.52,7269.44
792.619,7186.74
793.718,7135.92
794.817,7069.7
795.916,7031.92
797.015,7056.1
798.114,7031.86
799.212,7010.58
800.311,7029.54
801.409,7017.24
802.507,7036.14
803.605,6993.58
804.703,6977.04
805.801,6977.78
806.899,6860.1
807.997,6892.98
809.094,6849.26
810.191,6763.48
811.289,6813.84
812.386,6705.9
813.483,6681.4
814.58,6619.06
815.677,6607.88
816.774,6549.56
817.87,6471.28
818.967,6535.68
820.063,6445.42
821.159,6473.7
822.255,6386.4
823.351,6369.44
824.447,6370.38
825.543,6359.18
826.639,6327.36
827.734,6253.3
828.83,6157.2
829.925,6140.5
831.02,6205.9
832.115,6095.18
833.21,6047.88
834.305,6075.74
835.4,6018.8
836.494,6008.42
837.589,6017.66
838.683,5944.8
839.777,5953.36
840.871,5865.92
841.965,5896.86
843.059,5857.74
844.152,5811.64
845.246,5744.08
846.339,5715.6
847.433,5686.0
848.526,5664.84
849.619,5632.28
850.712,5601.3
851.804,5573.84
852.897,5610.88
853.989,5524.08
855.082,5471.98
856.174,5479.98
857.266,5487.04
858.358,5521.64
859.45,5514.56
860.542,5411.76
861.633,5395.08
862.725,5359.8
863.816,5369.32
864.907,5268.22
865.998,5231.16
867.089,5209.6
868.18,5214.44
869.27,5252.54
870.361,5190.7
871.451,5244.32
872.541,5202.18
873.631,5179.56
874.721,5137.26
875.811,5086.1
876.901,5099.26
877.99,5049.28
879.08,5050.4
880.169,5010.14
881.258,4996.9
882.347,4957.7
883.436,4990.6
884.524,4922.26
885.613,4904.68
886.701,4906.86
887.79,4839.6
888.878,4863.22
889.966,4839.8
891.053,4800.92
892.141,4760.7
893.229,4729.96
894.316,4712.18
895.403,4683.52
896.49,4666.12
897.577,4702.12
898.664,4709.66
899.751,4635.44
900.837,4584.76
901.923,4557.16
903.01,4559.5
904.096,4567.78
905.181,4553.52
906.267,4525.34
907.353,4538.52
908.438,4528.78
909.523,4493.52
910.609,4454.66
911.694,4421.68
912.778,4396.56
913.863,4380.08
914.948,4379.94
916.032,4338.12
917.116,4346.1
918.2,4341.5
919.284,4328.22
920.368,4304.32
921.452,4288.9
922.535,4286.54
923.618,4255.58
924.701,4226.24
925.784,4236.36
926.867,4221.92
927.95,4202.36
929.032,4174.02
930.115,4153.92
931.197,4154.92
932.279,4121.64
933.361,4111.3
934.442,4111.22
935.524,4076.36
936.605,4086.06
937.687,4062.72
938.768,4063.76
939.849,4055.68
940.929,4049.14
942.01,4033.5
943.09,4024.2
944.171,4017.1
945.251,4019.54
946.331,4003.72
947.41,3997.6
948.49,3989.4
949.569,3980.36
950.649,3977.02
951.728,3965.18
952.807,3962.46
953.885,3947.14
954.964,3948.68
956.042,3947.32
957.121,3935.7
958.199,3926.34
959.277,3924.12
960.354,3922.36
961.432,3922.86
962.509,3911.36
963.587,3906.26
964.664,3904.92
965.741,3900.4
966.817,3895.88
967.894,3896.84
968.97,3889.94
970.047,3888.5
971.123,3885.4
972.198,3884.44
973.274,3875.76
974.35,3865.28
975.425,3864.16
976.5,3862.3
977.575,3855.66
978.65,3856.24
979.725,3851.0
980.799,3847.56
981.873,3847.04
982.947,3841.8
984.021,3836.46
985.095,3840.4
986.169,3834.46
987.242,3832.56
988.315,3830.18
989.388,3830.0
990.461,3824.44
991.534,3818.82
992.607,3817.74
993.679,3813.74
994.751,3813.22
995.823,3812.96
996.895,3809.04
997.966,3807.2
999.038,3807.4
1000.11,3802.84
1001.18,3800.92
1002.25,3798.12
1003.32,3796.78
1004.39,3794.68
1005.46,3793.34
1006.53,3791.34
1007.6,3788.62
1008.67,3790.18
1009.74,3786.34
1010.81,3785.48
1011.88,3784.9
1012.95,3783.2
1014.02,3783.14
1015.09,3781.18
1016.16,3780.68
1017.22,3779.84
1018.29,3775.72
1019.36,3776.94
1020.43,3773.64
1021.49,3771.62
1022.56,3773.58
1023.63,3772.84
1024.7,3770.54
1025.76,3768.46
1026.83,3766.28
1027.9,3765.4
1028.96,3764.52
1030.03,3762.98
1031.09,3762.2
1032.16,3762.92
1033.22,3760.36
1034.29,3760.68
1035.35,3760.66
1036.42,3761.74
1037.48,3759.2
1038.55,3757.92
1039.61,3756.96
1040.68,3757.26
1041.74,3755.74
1042.8,3754.34
1043.87,3755.3
1044.93,3754.32
1045.99,3754.56
1047.06,3754.0
1048.12,3753.62
1049.18,3753.28
1050.24,3753.62
1051.31,3753.2
1052.37,3752.4
1053.43,3752.44
1054.49,3752.4
1055.55,3752.06
1056.61,3751.06
1057.67,3751.08
1058.73,3751.1
1059.53,3750.54

File: VLFR_07-PET_nobio_Raman_fd9aa068.csv
nm,Intensity
791.588,9336.3
792.685,8811.0
793.781,8740.7
794.878,8504.5
795.975,8471.7
797.071,8485.1
798.168,8527.4
799.264,8496.2
800.36,8484.2
801.456,8498.9
802.552,8469.1
803.648,8460.6
804.744,8321.5
805.84,8318.8
806.936,8080.3
808.031,8128.1
809.127,8060.5
810.222,7978.3
811.317,8002.3
812.412,7841.8
813.507,7847.3
814.602,7805.7
815.697,7677.0
816.792,7635.1
817.887,7559.8
818.981,7577.7
820.076,7597.6
821.17,7488.7
822.265,7382.7
823.359,7417.4
824.453,7333.5
825.547,7379.6
826.641,7292.5
827.735,7242.0
828.828,7198.6
829.922,7199.6
831.016,7232.2
832.109,7089.4
833.202,7012.2
834.295,6961.9
835.388,6941.8
836.481,6918.0
837.574,6938.8
838.667,6883.9
839.76,6869.4
840.852,6952.7
841.945,6891.4
843.037,6696.6
844.129,6638.5
845.221,6594.6
846.314,6489.4
847.405,6420.7
848.497,6435.9
849.589,6344.9
850.681,6378.6
851.772,6326.8
852.863,6329.4
853.955,6348.6
855.046,6293.3
856.137,6261.4
857.228,6213.5
858.318,6247.9
859.409,6290.9
860.5,6278.9
861.59,6161.2
862.681,6091.7
863.771,6107.8
864.861,6120.8
865.951,6030.3
867.041,5998.8
868.131,5944.6
869.22,5955.6
870.31,6013.8
871.399,6051.6
872.488,6118.0
873.578,6131.1
874.667,6011.5
875.756,5920.4
876.845,5882.2
877.933,5783.4
879.022,5797.3
880.11,5803.3
881.199,5757.9
882.287,5721.5
883.375,5747.3
884.463,5730.7
885.551,5669.1
886.639,5671.7
887.726,5592.1
888.814,5526.1
889.901,5567.4
890.988,5505.5
892.075,5521.4
893.162,5386.0
894.249,5399.8
895.336,5379.4
896.423,5393.0
897.509,5559.1
898.595,5756.5
899.682,5488.9
900.768,5247.3
901.854,5209.3
902.94,5167.1
904.025,5155.7
905.111,5146.5
906.196,5201.7
907.282,5386.9
908.367,5330.6
909.452,5210.2
910.537,4994.3
911.622,4958.5
912.706,4922.9
913.791,4862.8
914.875,4838.4
915.959,4807.2
917.044,4793.4
918.128,4766.2
919.211,4726.3
920.295,4740.9
921.379,4667.8
922.462,4658.3
923.546,4650.1
924.629,4612.5
925.712,4591.3
926.795,4584.2
927.877,4535.4
928.96,4515.3
930.043,4487.8
931.125,4463.8
932.207,4450.1
933.289,4428.9
934.371,4411.7
935.453,4391.9
936.535,4383.9
937.616,4355.2
938.697,4342.6
939.779,4318.6
940.86,4298.0
941.941,4283.3
943.022,4275.5
944.102,4251.0
945.183,4232.2
946.263,4238.5
947.343,4220.6
948.423,4206.1
949.503,4184.9
950.583,4175.2
951.663,4161.5
952.742,4154.2
953.822,4136.0
954.901,4112.7
955.98,4116.7
957.059,4099.2
958.137,4101.2
959.216,4082.4
960.294,4065.5
961.373,4061.3
962.451,4050.2
963.529,4051.1
964.607,4033.7
965.684,4027.1
966.762,4016.6
967.839,4017.3
968.917,4005.2
969.994,4001.1
971.071,3988.5
972.147,3985.9
973.224,3975.2
974.3,3967.4
975.377,3960.5
976.453,3949.7
977.529,3955.2
978.605,3942.7
979.68,3936.2
980.756,3919.9
981.831,3928.8
982.907,3922.7
983.982,3926.1
985.057,3913.3
986.131,3913.1
987.206,3907.3
988.28,3891.9
989.355,3893.0
990.429,3891.6
991.503,3882.0
992.576,3878.6
993.65,3872.7
994.723,3869.3
995.797,3860.1
996.87,3859.6
997.943,3856.7
999.016,3855.1
1000.09,3845.8
1001.16,3846.8
1002.23,3845.5
1003.31,3843.7
1004.38,3837.9
1005.45,3827.0
1006.52,3830.9
1007.59,3830.6
1008.66,3824.6
1009.73,3815.5
1010.81,3818.4
1011.88,3818.2
1012.95,3812.8
1014.02,3812.7
1015.09,3813.0
1016.16,3810.4
1017.23,3803.1
1018.3,3800.6
1019.37,3801.6
1020.44,3805.4
1021.51,3802.4
1022.58,3806.1
1023.64,3803.0
1024.71,3799.6
1025.78,3795.7
1026.85,3792.5
1027.92,3788.7
1028.99,3787.7
1030.05,3783.3
1031.12,3782.4
1032.19,3781.7
1033.26,3782.4
1034.32,3783.1
1035.39,3785.6
1036.46,3783.5
1037.52,3777.4
1038.59,3775.1
1039.66,3773.2
1040.72,3772.1
1041.79,3770.2
1042.86,3768.1
1043.92,3771.2
1044.99,3769.0
1046.05,3766.3
1047.12,3767.4
1048.18,3767.6
1049.25,3764.9
1050.31,3766.6
1051.37,3768.8
1052.44,3766.5
1053.5,3766.2
1054.57,3765.2
1055.63,3764.4
1056.69,3764.4
1057.76,3764.6
1058.82,3762.3
1059.88,3763.6
1060.95,3761.0
1062.01,3762.5
1063.07,3762.7
1064.13,3761.6
1065.19,3761.8
1066.26,3761.0
1067.32,3762.3
1068.11,3762.0

File: VLFR_08-PLA_bio_Raman_0bf82c81.csv
nm,Intensity
526.495,829.5
527.042,829.733
527.589,829.7
528.136,829.1
528.682,829.2
529.229,829.6
529.775,828.767
530.321,828.667
530.867,829.5
531.413,828.767
531.959,831.767
532.505,830.2
533.051,828.833
533.596,829.433
534.141,856.0
534.687,857.567
535.232,854.833
535.777,854.033
536.321,853.7
536.866,854.7
537.41,854.1
537.955,854.133
538.499,856.067
539.043,856.067
539.587,855.233
540.131,854.367
540.675,856.067
541.219,857.467
541.762,856.767
542.305,857.667
542.849,857.433
543.392,859.567
543.935,859.733
544.478,859.167
545.02,860.9
545.563,861.533
546.106,859.6
546.648,859.867
547.19,859.4
547.732,861.6
548.274,861.967
548.816,862.1
549.358,864.2
549.9,863.967
550.441,862.233
550.983,863.967
551.524,863.267
552.065,862.767
552.606,863.467
553.147,865.367
553.688,863.9
554.229,865.667
554.769,866.3
555.31,864.767
555.85,865.2
556.391,863.933
556.931,865.567
557.471,867.133
558.011,874.4
558.551,866.9
559.09,865.867
559.63,866.267
560.169,868.9
560.709,868.367
561.248,868.367
561.787,869.167
562.326,898.467
562.865,871.267
563.404,871.067
563.943,870.9
564.481,871.367
565.02,875.033
565.558,873.167
566.096,873.767
566.634,874.767
567.172,871.533
567.71,873.1
568.248,872.133
568.786,871.533
569.324,872.567
569.861,875.067
570.399,872.567
570.936,874.267
571.473,872.833
572.01,874.767
572.547,874.967
573.084,876.2
573.621,877.133
574.158,876.667
574.694,876.667
575.231,877.3
575.767,877.333
576.303,878.1
576.84,880.633
577.376,878.967
577.912,876.0
578.448,878.433
578.984,878.2
579.519,876.3
580.055,876.6
580.59,877.233
581.126,876.433
581.661,877.7
582.196,878.4
582.731,878.1
583.267,879.3
583.801,877.533
584.336,878.9
584.871,877.1
585.406,879.667
585.94,879.7
586.475,880.167
587.009,881.333
587.543,883.167
588.078,881.5
588.612,880.433
589.146,879.267
589.68,879.267
590.214,878.533
590.747,881.433
591.281,879.3
591.815,879.5
592.348,879.767
592.881,878.7
593.415,878.4
593.948,880.1
594.481,879.0
595.014,879.967
595.547,879.633
596.08,880.433
596.613,880.133
597.146,879.633
597.678,880.233
598.211,878.9
598.743,881.133
599.276,878.8
599.808,879.1
600.34,879.767
600.872,878.333
601.404,879.267
601.936,878.667
602.468,879.7
603.0,879.467
603.532,877.867
604.064,878.567
604.595,879.3
605.127,878.2
605.658,877.2
606.189,877.967
606.721,877.733
607.252,876.067
607.783,878.0
608.314,874.733
608.845,877.3
609.376,877.0
609.907,877.233
610.438,877.4
610.968,875.7
611.499,875.9
612.029,877.967
612.56,877.467
613.09,877.333
613.621,877.367
614.151,876.4
614.681,876.933
615.211,877.3
615.741,875.667
616.271,874.6
616.801,876.767
617.331,876.767
617.861,875.733
618.39,877.933
618.92,877.267
619.45,876.9
619.979,877.767
620.509,874.833
621.038,874.3
621.567,874.167
622.096,875.133
622.626,876.6
623.155,875.333
623.684,875.467
624.213,876.233
624.742,876.267
625.271,875.733
625.799,873.867
626.328,875.7
626.857,876.0
627.386,873.467
627.914,874.6
628.443,877.3
628.971,877.233
629.5,877.4
630.028,875.9
630.556,880.6
631.084,902.1
631.613,887.5
632.141,880.333
632.669,878.367
633.197,883.1
633.725,881.4
634.253,875.633
634.781,874.0
635.308,873.967
635.836,872.8
636.364,872.2
636.891,871.0
637.419,870.4
637.947,871.267
638.474,871.633
639.002,871.367
639.529,871.567
640.056,871.167
640.584,870.933
641.111,871.6
641.638,871.233
642.165,871.5
642.692,870.4
643.219,871.7
643.746,872.167
644.273,875.567
644.8,874.633
645.327,873.933
645.854,871.7
646.381,875.133
646.908,872.033
647.434,872.333
647.961,871.9
648.488,873.267
649.014,872.633
649.541,872.5
650.067,871.7
650.594,870.0
651.12,869.333
651.646,868.633
652.173,867.367
652.699,867.9
653.225,868.1
653.752,869.333
654.278,867.867
654.804,866.733
655.33,865.8
655.856,866.133
656.382,865.967
656.908,864.2
657.434,863.4
657.96,864.433
658.486,862.5
659.012,864.067
659.538,863.367
660.064,862.333
660.589,862.067
661.115,861.2
661.641,860.667
662.166,861.433
662.692,859.767
663.086,860.9