Folder: MPX_specDB/spectra (part 164)

File: VLFR_09-PET_bio_Raman_20d7697b.csv
nm,Intensity
526.493,828.8
527.039,829.38
527.586,828.66
528.133,828.74
528.679,829.82
529.225,829.28
529.771,829.1
530.317,829.44
530.863,829.08
531.409,829.16
531.955,830.22
532.5,829.28
533.046,828.36
533.591,828.72
534.136,848.86
534.681,848.34
535.226,846.9
535.771,847.32
536.315,847.68
536.86,847.44
537.404,847.16
537.948,849.74
538.493,852.0
539.037,849.08
539.58,849.98
540.124,855.04
540.668,851.24
541.211,850.0
541.755,849.14
542.298,848.48
542.841,848.96
543.384,849.92
543.927,848.78
544.47,847.98
545.013,848.16
545.555,848.9
546.098,848.58
546.64,847.12
547.182,847.66
547.724,848.76
548.266,848.1
548.808,848.48
549.35,848.48
549.892,849.56
550.433,849.44
550.974,849.98
551.516,850.26
552.057,850.3
552.598,849.8
553.139,848.44
553.68,847.24
554.22,847.08
554.761,846.48
555.301,846.44
555.842,844.98
556.382,845.32
556.922,845.44
557.462,845.82
558.002,845.14
558.542,844.48
559.082,844.9
559.621,845.0
560.161,845.64
560.7,846.24
561.239,845.56
561.778,845.98
562.317,846.0
562.856,845.14
563.395,846.64
563.934,845.98
564.472,845.9
565.011,847.8
565.549,848.36
566.088,848.0
566.626,848.46
567.164,847.62
567.702,849.0
568.24,849.32
568.777,849.56
569.315,849.92
569.853,850.54
570.39,850.18
570.927,851.58
571.465,850.58
572.002,851.64
572.539,853.14
573.076,851.24
573.612,852.06
574.149,850.88
574.686,851.18
575.222,851.3
575.759,850.46
576.295,851.64
576.831,850.9
577.367,850.66
577.903,851.0
578.439,851.2
578.975,851.42
579.511,851.5
580.046,852.02
580.582,851.88
581.117,852.24
581.653,851.98
582.188,851.96
582.723,851.8
583.258,851.42
583.793,851.52
584.328,852.3
584.863,851.3
585.398,851.28
585.932,852.34
586.467,850.9
587.001,851.84
587.535,852.46
588.07,851.94
588.604,851.94
589.138,852.98
589.672,852.4
590.206,852.54
590.739,853.2
591.273,853.62
591.807,853.26
592.34,853.8
592.873,852.78
593.407,854.4
593.94,853.18
594.473,853.6
595.006,853.78
595.539,854.52
596.072,854.78
596.605,853.82
597.138,855.56
597.67,854.82
598.203,854.92
598.735,855.38
599.268,855.2
599.8,856.38
600.332,855.48
600.865,856.68
601.397,856.8
601.929,856.04
602.46,857.04
602.992,855.32
603.524,856.48
604.056,857.28
604.587,855.82
605.119,856.3
605.65,857.74
606.182,858.18
606.713,857.36
607.244,856.48
607.775,857.38
608.306,858.0
608.837,857.56
609.368,859.18
609.899,857.96
610.43,857.7
610.961,857.68
611.491,859.1
612.022,859.48
612.552,858.62
613.083,859.48
613.613,859.84
614.143,859.94
614.673,860.46
615.203,860.44
615.734,860.6
616.263,860.64
616.793,862.1
617.323,861.64
617.853,861.08
618.383,862.72
618.912,862.2
619.442,861.74
619.971,861.76
620.501,861.46
621.03,861.52
621.56,862.0
622.089,861.44
622.618,862.44
623.147,862.46
623.676,863.06
624.205,862.82
624.734,862.56
625.263,862.98
625.792,864.0
626.321,863.58
626.849,863.5
627.378,864.02
627.906,863.66
628.435,862.54
628.963,864.84
629.492,863.74
630.02,863.8
630.548,863.98
631.077,864.74
631.605,864.76
632.133,864.34
632.661,864.22
633.189,864.54
633.717,864.8
634.245,864.36
634.773,863.9
635.3,864.76
635.828,865.06
636.356,865.32
636.883,864.8
637.411,864.76
637.938,864.82
638.466,865.86
638.993,863.22
639.521,864.46
640.048,865.58
640.575,864.66
641.103,865.0
641.63,865.26
642.157,866.4
642.684,864.56
643.211,865.6
643.738,865.32
644.265,865.82
644.792,863.48
645.319,864.26
645.845,863.78
646.372,863.94
646.899,865.1
647.425,865.36
647.952,864.88
648.479,865.66
649.005,864.0
649.532,865.38
650.058,864.36
650.585,864.3
651.111,865.44
651.637,865.2
652.164,864.46
652.69,865.04
653.216,866.0
653.742,864.68
654.268,866.46
654.794,865.44
655.32,866.04
655.846,865.34
656.372,864.96
656.898,867.14
657.424,865.28
657.95,867.4
658.476,865.3
659.002,866.36
659.528,866.86
660.053,866.5
660.579,866.52
661.105,867.32
661.63,866.24
662.156,867.06
662.681,866.0
663.076,864.84

File: VLFR_09-PET_bio_Raman_22dec369.csv
nm,Intensity
526.508,830.2
527.055,830.1
527.602,829.5
528.149,830.6
528.695,831.0
529.241,830.9
529.787,829.5
530.334,829.0
530.879,829.9
531.425,829.9
531.971,832.3
532.516,831.7
533.062,829.9
533.607,828.6
534.152,925.1
534.697,925.6
535.242,918.7
535.786,912.5
536.331,914.6
536.876,912.1
537.42,917.9
537.964,916.1
538.508,918.1
539.052,917.7
539.596,924.2
540.14,919.6
540.683,925.6
541.227,926.6
541.77,924.7
542.313,928.2
542.856,929.9
543.399,932.6
543.942,939.1
544.485,938.7
545.027,942.3
545.57,940.3
546.112,944.8
546.654,945.5
547.196,946.2
547.738,938.9
548.28,944.3
548.822,948.5
549.363,953.7
549.905,950.4
550.446,958.0
550.988,953.9
551.529,954.4
552.07,958.3
552.611,958.6
553.152,958.3
553.692,957.6
554.233,963.3
554.773,964.9
555.314,962.4
555.854,966.1
556.394,966.9
556.934,966.7
557.474,974.5
558.014,971.2
558.553,971.3
559.093,971.8
559.632,969.3
560.172,975.4
560.711,978.5
561.25,976.8
561.789,982.5
562.328,1011.0
562.867,991.4
563.406,986.5
563.944,986.1
564.483,989.2
565.021,994.7
565.559,992.8
566.098,993.5
566.636,994.9
567.174,990.5
567.711,998.8
568.249,993.2
568.787,997.0
569.324,998.9
569.862,1000.1
570.399,1002.5
570.936,1003.4
571.474,1014.3
572.011,1007.3
572.548,1006.7
573.084,1010.9
573.621,1010.2
574.158,1016.1
574.694,1013.2
575.231,1014.3
575.767,1017.0
576.303,1015.6
576.84,1021.0
577.376,1019.6
577.912,1020.9
578.447,1025.3
578.983,1025.6
579.519,1026.5
580.054,1030.8
580.59,1025.8
581.125,1027.9
581.661,1035.5
582.196,1075.2
582.731,1034.9
583.266,1036.0
583.801,1034.9
584.336,1036.3
584.87,1037.9
585.405,1041.5
585.94,1064.4
586.474,1064.9
587.008,1047.5
587.543,1041.3
588.077,1043.6
588.611,1043.0
589.145,1038.8
589.679,1043.7
590.213,1041.9
590.747,1050.8
591.28,1053.4
591.814,1047.9
592.347,1050.3
592.881,1045.9
593.414,1058.1
593.947,1046.4
594.48,1053.9
595.014,1058.5
595.547,1054.6
596.079,1053.1
596.612,1059.9
597.145,1054.9
597.678,1065.0
598.21,1059.4
598.743,1063.2
599.275,1068.5
599.807,1062.6
600.34,1062.1
600.872,1066.5
601.404,1062.7
601.936,1067.6
602.468,1070.1
603.0,1068.8
603.532,1069.6
604.063,1068.4
604.595,1072.3
605.126,1066.6
605.658,1066.9
606.189,1065.3
606.721,1069.0
607.252,1068.7
607.783,1075.0
608.314,1073.1
608.845,1077.9
609.376,1075.8
609.907,1077.5
610.438,1077.9
610.968,1078.7
611.499,1085.9
612.03,1087.0
612.56,1093.9
613.091,1092.4
613.621,1097.9
614.151,1098.2
614.681,1102.2
615.212,1105.5
615.742,1104.5
616.272,1102.0
616.802,1111.4
617.332,1105.0
617.861,1108.8
618.391,1117.8
618.921,1113.0
619.45,1113.4
619.98,1109.7
620.509,1123.3
621.039,1113.1
621.568,1120.9
622.097,1129.4
622.627,1124.6
623.156,1133.2
623.685,1132.8
624.214,1137.3
624.743,1141.6
625.272,1146.2
625.801,1139.9
626.33,1143.2
626.858,1142.7
627.387,1145.4
627.916,1154.8
628.444,1157.2
628.973,1158.7
629.501,1156.7
630.029,1163.9
630.558,1158.0
631.086,1167.8
631.614,1169.5
632.142,1175.2
632.67,1169.5
633.198,1182.6
633.726,1168.4
634.254,1176.6
634.782,1184.8
635.31,1179.9
635.838,1186.0
636.365,1186.6
636.893,1198.9
637.421,1199.9
637.948,1187.1
638.476,1194.1
639.003,1192.3
639.531,1197.3
640.058,1198.9
640.585,1189.0
641.113,1197.8
641.64,1200.2
642.167,1199.1
642.694,1197.8
643.221,1203.9
643.748,1197.6
644.275,1199.0
644.802,1196.7
645.329,1193.1
645.856,1198.0
646.382,1200.2
646.909,1198.7
647.436,1203.7
647.962,1199.7
648.489,1201.5
649.016,1199.6
649.542,1204.9
650.069,1200.7
650.595,1201.6
651.121,1198.4
651.648,1202.4
652.174,1200.0
652.7,1202.7
653.227,1211.1
653.753,1203.6
654.279,1205.9
654.805,1213.6
655.331,1210.6
655.857,1205.0
656.383,1206.3
656.909,1215.1
657.435,1212.9
657.961,1208.1
658.487,1211.1
659.013,1216.2
659.538,1214.7
660.064,1213.6
660.59,1211.5
661.116,1207.2
661.641,1198.4
662.167,1206.1
662.692,1211.7
663.087,1204.2

File: VLFR_09-PET_bio_Raman_22f87ac7.csv
nm,Intensity
526.547,835.05
527.095,832.2
527.642,832.3
528.189,833.15
528.736,831.3
529.283,832.45
529.829,832.9
530.376,833.15
530.922,833.85
531.468,833.5
532.014,834.45
532.56,833.15
533.106,833.25
533.651,850.1
534.196,2136.45
534.742,2016.0
535.287,1876.9
535.832,1833.25
536.376,1770.1
536.921,1765.75
537.465,1754.75
538.01,1768.25
538.554,1784.45
539.098,1787.45
539.642,1817.65
540.186,1842.8
540.729,1839.3
541.273,1851.35
541.816,1857.75
542.36,1870.75
542.903,1891.95
543.446,1909.65
543.988,1922.55
544.531,1946.8
545.074,1962.45
545.616,1964.25
546.158,1973.25
546.701,2004.1
547.243,2009.2
547.785,2018.85
548.326,2040.95
548.868,2061.25
549.41,2065.35
549.951,2071.95
550.492,2112.65
551.034,2107.35
551.575,2123.9
552.116,2135.7
552.656,2162.75
553.197,2162.3
553.738,2175.0
554.278,2189.1
554.819,2211.0
555.359,2218.9
555.899,2242.4
556.439,2267.7
556.979,2293.7
557.519,2484.15
558.058,2348.35
558.598,2320.6
559.137,2302.75
559.677,2325.15
560.216,2353.45
560.755,2364.8
561.294,2374.4
561.833,2402.75
562.371,2419.35
562.91,2441.65
563.449,2445.25
563.987,2483.7
564.525,2530.7
565.064,2678.6
565.602,2622.45
566.14,2631.85
566.678,2560.3
567.216,2548.5
567.753,2630.5
568.291,2608.55
568.828,2615.45
569.366,2640.1
569.903,2675.65
570.44,2706.8
570.977,2841.4
571.514,3004.95
572.051,2822.85
572.588,2759.45
573.125,2766.8
573.661,2783.35
574.198,2797.5
574.734,2811.1
575.271,2859.2
575.807,2857.25
576.343,2865.2
576.879,2890.95
577.415,2900.65
577.951,2897.45
578.486,2911.3
579.022,2931.4
579.557,2938.75
580.093,2934.95
580.628,2964.5
581.164,2979.0
581.699,3115.1
582.234,4309.15
582.769,3089.1
583.304,3053.35
583.838,3059.9
584.373,3068.95
584.908,3092.0
585.442,3188.75
585.977,3742.8
586.511,3481.0
587.045,3192.1
587.58,3169.65
588.114,3153.65
588.648,3146.35
589.182,3140.95
589.715,3141.85
590.249,3156.65
590.783,3169.35
591.316,3177.95
591.85,3183.9
592.383,3173.2
592.917,3188.25
593.45,3175.85
593.983,3193.15
594.516,3208.95
595.049,3221.7
595.582,3237.65
596.115,3256.85
596.648,3258.35
597.18,3273.5
597.713,3292.1
598.245,3312.7
598.778,3332.2
599.31,3346.25
599.842,3332.4
600.375,3344.45
600.907,3335.65
601.439,3338.65
601.971,3342.4
602.503,3370.55
603.034,3399.1
603.566,3407.8
604.098,3406.55
604.629,3405.15
605.161,3391.6
605.692,3374.65
606.224,3390.4
606.755,3395.1
607.286,3430.5
607.817,3459.5
608.348,3490.65
608.879,3521.85
609.41,3546.55
609.941,3555.7
610.472,3563.1
611.002,3574.65
611.533,3597.4
612.063,3655.0
612.594,3708.95
613.124,3765.65
613.655,3809.85
614.185,3830.65
614.715,3854.75
615.245,3876.1
615.775,3880.15
616.305,3920.7
616.835,3959.05
617.365,4005.9
617.895,4025.8
618.425,4095.5
618.954,4094.55
619.484,4132.65
620.013,4153.25
620.543,4157.2
621.072,4194.45
621.602,4221.15
622.131,4273.5
622.66,4316.85
623.189,4356.9
623.718,4413.1
624.247,4457.25
624.776,4499.75
625.305,4501.05
625.834,4544.5
626.363,4540.45
626.891,4574.7
627.42,4607.7
627.949,4633.2
628.477,4683.85
629.006,4738.0
629.534,4775.1
630.062,4795.3
630.591,4834.5
631.119,4886.05
631.647,4963.8
632.175,5008.55
632.703,4999.1
633.231,4971.95
633.759,4979.6
634.287,4953.3
634.815,4988.6
635.343,5020.4
635.871,5120.95
636.398,5332.65
636.926,5313.95
637.454,5169.2
637.981,5151.25
638.509,5155.3
639.036,5202.0
639.564,5211.15
640.091,5237.2
640.618,5229.55
641.146,5261.4
641.673,5278.1
642.2,5312.2
642.727,5274.7
643.254,5261.35
643.781,5242.9
644.308,5252.3
644.835,5237.65
645.362,5252.45
645.889,5268.4
646.416,5295.25
646.942,5312.4
647.469,5314.2
647.996,5344.95
648.522,5308.95
649.049,5310.45
649.576,5292.0
650.102,5289.1
650.629,5292.75
651.155,5284.2
651.682,5326.75
652.208,5340.15
652.734,5331.5
653.261,5325.6
653.787,5336.9
654.313,5368.9
654.839,5348.8
655.365,5340.05
655.892,5340.05
656.418,5327.2
656.944,5378.75
657.47,5356.35
657.996,5358.25
658.522,5377.65
659.048,5378.6
659.574,5371.8
660.099,5401.15
660.625,5363.5
661.151,5324.85
661.677,5302.7
662.203,5292.9
662.728,5315.45
663.123,5288.05

File: VLFR_09-PET_bio_Raman_23c19d96.csv
nm,Intensity
526.508,829.0
527.055,832.0
527.602,830.6
528.149,830.1
528.695,830.5
529.241,829.0
529.787,829.6
530.334,831.0
530.879,829.7
531.425,830.4
531.971,833.7
532.516,831.2
533.062,829.3
533.607,834.0
534.152,1471.1
534.697,1459.3
535.242,1409.4
535.786,1416.7
536.331,1413.3
536.876,1418.5
537.42,1431.9
537.964,1432.2
538.508,1444.9
539.052,1445.9
539.596,1473.3
540.14,1488.2
540.683,1495.4
541.227,1492.6
541.77,1524.7
542.313,1509.4
542.856,1524.0
543.399,1532.2
543.942,1553.6
544.485,1564.8
545.027,1580.7
545.57,1587.1
546.112,1605.6
546.654,1608.2
547.196,1618.8
547.738,1612.4
548.28,1634.3
548.822,1635.0
549.363,1656.9
549.905,1663.9
550.446,1666.6
550.988,1681.0
551.529,1691.1
552.07,1699.1
552.611,1695.2
553.152,1706.6
553.692,1724.0
554.233,1737.0
554.773,1744.4
555.314,1742.1
555.854,1757.5
556.394,1771.6
556.934,1780.3
557.474,1828.1
558.014,1807.0
558.553,1799.2
559.093,1801.0
559.632,1812.5
560.172,1841.2
560.711,1852.5
561.25,1849.4
561.789,1862.5
562.328,1880.8
562.867,1891.4
563.406,1917.1
563.944,1922.8
564.483,1926.6
565.021,1977.7
565.559,1972.3
566.098,1984.4
566.636,1976.0
567.174,1979.2
567.711,1992.7
568.249,1996.7
568.787,2008.9
569.324,2026.6
569.862,2046.9
570.399,2052.8
570.936,2095.2
571.474,2129.4
572.011,2108.8
572.548,2094.8
573.084,2118.3
573.621,2117.6
574.158,2143.9
574.694,2138.7
575.231,2144.5
575.767,2159.4
576.303,2162.5
576.84,2176.8
577.376,2187.9
577.912,2197.6
578.447,2205.1
578.983,2227.8
579.519,2212.5
580.054,2223.5
580.59,2233.2
581.125,2244.5
581.661,2275.5
582.196,2619.8
582.731,2298.1
583.266,2284.6
583.801,2286.5
584.336,2308.3
584.87,2295.5
585.405,2334.1
585.94,2492.3
586.474,2459.7
587.008,2371.4
587.543,2353.3
588.077,2355.3
588.611,2358.2
589.145,2367.5
589.679,2357.2
590.213,2369.0
590.747,2366.0
591.28,2390.1
591.814,2401.3
592.347,2383.5
592.881,2374.4
593.414,2386.8
593.947,2394.1
594.48,2399.8
595.014,2399.8
595.547,2438.8
596.079,2439.3
596.612,2427.9
597.145,2450.6
597.678,2455.6
598.21,2470.4
598.743,2483.4
599.275,2481.1
599.807,2503.4
600.34,2486.2
600.872,2479.9
601.404,2479.9
601.936,2486.8
602.468,2514.2
603.0,2513.1
603.532,2522.3
604.063,2533.4
604.595,2523.7
605.126,2518.7
605.658,2512.1
606.189,2500.3
606.721,2509.4
607.252,2544.1
607.783,2570.1
608.314,2578.3
608.845,2588.6
609.376,2591.9
609.907,2601.1
610.438,2607.2
610.968,2625.5
611.499,2646.6
612.03,2667.9
612.56,2702.1
613.091,2753.1
613.621,2760.6
614.151,2794.9
614.681,2798.8
615.212,2814.4
615.742,2828.4
616.272,2842.6
616.802,2881.7
617.332,2900.7
617.861,2916.9
618.391,2955.7
618.921,2978.3
619.45,2986.2
619.98,3006.7
620.509,3012.9
621.039,3052.0
621.568,3057.7
622.097,3094.0
622.627,3122.4
623.156,3142.0
623.685,3183.8
624.214,3211.3
624.743,3246.6
625.272,3264.9
625.801,3296.6
626.33,3284.7
626.858,3345.8
627.387,3341.5
627.916,3358.1
628.444,3376.8
628.973,3415.7
629.501,3457.5
630.029,3481.4
630.558,3498.7
631.086,3543.5
631.614,3597.7
632.142,3616.2
632.67,3600.9
633.198,3596.3
633.726,3609.1
634.254,3628.9
634.782,3626.4
635.31,3668.7
635.838,3715.0
636.365,3755.4
636.893,3802.5
637.421,3729.3
637.948,3767.1
638.476,3791.5
639.003,3811.2
639.531,3827.8
640.058,3830.3
640.585,3827.4
641.113,3869.2
641.64,3873.6
642.167,3885.0
642.694,3876.8
643.221,3863.4
643.748,3846.5
644.275,3847.3
644.802,3859.6
645.329,3866.7
645.856,3881.8
646.382,3868.3
646.909,3916.4
647.436,3946.9
647.962,3940.7
648.489,3951.5
649.016,3919.3
649.542,3914.0
650.069,3934.0
650.595,3912.5
651.121,3901.5
651.648,3913.1
652.174,3942.2
652.7,3957.6
653.227,3955.8
653.753,3967.6
654.279,3955.4
654.805,3955.4
655.331,3942.8
655.857,3977.4
656.383,3962.1
656.909,3979.0
657.435,3974.5
657.961,3974.4
658.487,3990.5
659.013,3977.8
659.538,3998.4
660.064,3996.5
660.59,3984.1
661.116,3952.9
661.641,3936.3
662.167,3929.4
662.692,3963.6
663.087,3904.4

File: VLFR_09-PET_bio_Raman_045d928a.csv
nm,Intensity
528.65,1854.1
529.155,1851.45
529.66,1851.25
530.165,1852.4
530.67,1852.35
531.175,1851.8
531.68,1874.45
532.185,2861.85
532.69,1858.1
533.194,1862.7
533.699,2839.4
534.204,5506.75
534.708,5286.9
535.213,5175.95
535.717,4978.8
536.222,4873.7
536.726,4913.25
537.231,4924.65
537.735,5083.75
538.239,5115.75
538.743,5089.2
539.247,5225.9
539.751,5370.65
540.255,5396.0
540.759,5410.85
541.263,5402.7
541.767,5428.15
542.271,5584.75
542.775,5628.45
543.279,5723.4
543.782,5730.05
544.286,5821.3
544.789,5828.55
545.293,5953.4
545.796,6045.0
546.3,6086.75
546.803,6113.1
547.306,6249.9
547.81,6230.8
548.313,6373.15
548.816,6409.0
549.319,6561.75
549.822,6451.2
550.325,6705.55
550.828,6984.5
551.331,6839.25
551.834,6889.1
552.337,6975.95
552.839,7178.1
553.342,6960.55
553.844,7076.05
554.347,7195.45
554.849,7205.5
555.352,7351.7
555.854,7465.6
556.357,7449.85
556.859,7588.2
557.361,7988.1
557.863,8017.7
558.365,7796.0
558.867,7737.0
559.369,7667.45
559.871,7684.95
560.373,7871.05
560.875,7925.55
561.377,8059.65
561.878,8182.2
562.38,8120.75
562.881,8274.05
563.383,8282.95
563.884,8343.85
564.386,8511.3
564.887,8826.25
565.388,9031.6
565.89,9051.1
566.391,8841.35
566.892,8848.95
567.393,8867.7
567.894,9181.85
568.395,9005.8
568.896,9134.95
569.396,9170.55
569.897,9435.35
570.398,9496.7
570.898,10113.2
571.399,10689.7
571.9,10038.8
572.4,9809.0
572.9,9668.7
573.401,9655.7
573.901,9805.35
574.401,9740.8
574.901,9918.45
575.401,10172.3
575.901,10111.6
576.401,10364.8
576.901,10119.7
577.401,10162.7
577.901,10112.2
578.4,10192.9
578.9,10184.0
579.399,10301.3
579.899,10543.2
580.398,10483.9
580.898,10603.5
581.397,10662.4
581.896,13039.8
582.395,12453.0
582.895,10531.3
583.394,10552.9
583.893,10796.0
584.391,10619.6
584.89,10701.3
585.389,11014.6
585.888,12925.1
586.386,12020.2
586.885,10920.1
587.384,10954.8
587.882,10929.6
588.38,10763.4
588.879,10702.8
589.377,10720.5
589.875,10781.7
590.373,10795.0
590.871,10916.1
591.369,10836.5
591.867,10949.0
592.365,11035.7
592.863,10924.5
593.361,10868.5
593.858,11049.3
594.356,10955.3
594.853,11105.3
595.351,11036.3
595.848,10939.0
596.345,11209.4
596.843,11351.6
597.34,11134.1
597.837,11170.8
598.334,11317.6
598.831,11183.5
599.328,11494.0
599.824,11401.1
600.321,11394.1
600.818,11622.6
601.314,11538.0
601.811,11584.8
602.307,11666.5
602.804,11670.9
603.3,11730.2
603.796,11701.8
604.293,11800.7
604.789,11852.3
605.285,11975.6
605.781,11957.6
606.277,12120.9
606.772,12226.8
607.268,12243.5
607.764,12261.2
608.259,12260.8
608.755,12461.0
609.25,12696.3
609.746,12490.3
610.241,12591.5
610.736,12892.5
611.231,12993.8
611.727,13039.4
612.222,13062.1
612.716,13225.2
613.211,13034.8
613.706,13125.3
614.201,13306.4
614.695,13663.9
615.19,13555.0
615.684,13734.0
616.179,13667.2
616.673,13988.2
617.168,14070.9
617.662,14294.8
618.156,14526.1
618.65,14587.2
619.144,14657.0
619.638,14708.7
620.131,14950.0
620.625,15053.5
621.119,15145.5
621.612,15363.8
622.106,14989.0
622.599,15083.6
623.093,15464.7
623.586,15610.3
624.079,15689.3
624.572,15785.7
625.065,16285.8
625.558,15923.4
626.051,16445.8
626.544,15968.3
627.037,16300.3
627.529,16400.3
628.022,16479.7
628.514,16831.3
629.007,16444.0
629.499,17169.9
629.991,16832.2
630.483,17191.1
630.976,17238.1
631.468,17280.1
631.959,17595.8
632.451,17670.3
632.943,17955.3
633.435,17889.8
633.926,17697.1
634.418,17280.2
634.909,17555.8
635.401,18026.7
635.892,17362.5
636.383,18160.5
636.874,17942.3
637.365,17282.1
637.856,17730.7
638.347,17822.0
638.838,17701.5
639.329,17733.4
639.819,17566.3
640.31,17800.0
640.8,17387.9
641.291,17538.8
641.781,17532.0
642.271,17623.2
642.761,17239.3
643.251,17236.7
643.741,17208.1
644.231,17570.3
644.721,17092.0
645.211,17186.1
645.7,17237.4
646.19,16774.1
646.679,17205.4
647.169,16243.0
647.658,17243.3
648.147,16772.9
648.636,16899.9
649.125,16389.3
649.614,16492.3
650.103,16732.7
650.592,16956.0
651.08,16535.9
651.569,16319.0
652.058,16160.0
652.546,16141.8
653.034,16092.8
653.523,15824.5
654.011,15775.4
654.499,15319.2
654.987,15530.7
655.475,15136.5
655.963,15249.5
656.45,15132.8
656.938,14492.7
657.425,14858.0
657.913,14670.7
658.4,14478.8
658.888,14362.0
659.375,14113.5
659.862,13950.8
660.349,14254.5
660.836,13872.0
661.079,13632.0

File: VLFR_09-PET_bio_Raman_47ca3adc.csv
nm,Intensity
528.626,1872.7
529.132,1870.85
529.637,1869.7
530.143,1871.7
530.648,1873.2
531.153,1874.85
531.658,1925.75
532.164,4749.45
532.669,1877.35
533.174,1886.55
533.679,3373.65
534.184,8391.6
534.689,7616.55
535.194,6836.6
535.699,6390.3
536.203,5748.65
536.708,5624.2
537.213,5714.65
537.717,5571.25
538.222,5578.25
538.726,5559.05
539.231,5816.0
539.735,5952.9
540.239,6027.05
540.744,6036.85
541.248,5930.8
541.752,5932.7
542.256,6092.4
542.76,6160.35
543.264,6215.6
543.768,6272.9
544.272,6249.05
544.776,6344.65
545.28,6479.45
545.784,6577.6
546.287,6584.05
546.791,6728.05
547.294,6725.35
547.798,6869.15
548.301,6992.95
548.805,7052.6
549.308,7049.15
549.811,7083.65
550.315,7411.5
550.818,8119.1
551.321,7490.2
551.824,7559.05
552.327,7598.9
552.83,7965.05
553.333,7595.65
553.835,7748.15
554.338,7814.1
554.841,8139.15
555.343,8301.7
555.846,8364.25
556.349,8524.0
556.851,8668.7
557.353,9879.3
557.856,9989.25
558.358,8898.45
558.86,8872.1
559.362,8726.2
559.864,8640.65
560.366,8798.35
560.868,9069.0
561.37,9186.45
561.872,9625.95
562.374,9537.7
562.876,9341.4
563.377,9403.4
563.879,9330.15
564.38,9922.9
564.882,10873.0
565.383,10831.0
565.885,11130.3
566.386,10343.8
566.887,10091.5
567.388,10166.4
567.889,10880.3
568.391,10227.7
568.892,10283.8
569.392,10457.3
569.893,10666.1
570.394,11114.3
570.895,12734.8
571.395,14616.5
571.896,12561.3
572.397,11305.2
572.897,11069.3
573.397,10907.6
573.898,10998.2
574.398,11117.8
574.898,11255.3
575.398,11905.7
575.898,11497.9
576.398,11459.2
576.898,11783.9
577.398,11586.4
577.898,11379.1
578.398,11531.0
578.897,11327.1
579.397,11475.8
579.896,11616.7
580.396,11701.0
580.895,12235.5
581.395,12346.2
581.894,18907.5
582.393,18566.3
582.892,12301.2
583.391,12120.3
583.89,11894.0
584.389,12141.7
584.888,12218.8
585.387,13180.0
585.886,18234.4
586.384,16836.6
586.883,12893.3
587.381,12587.2
587.88,12499.8
588.378,12316.2
588.876,12275.2
589.375,12320.0
589.873,12318.4
590.371,12382.8
590.869,12354.2
591.367,12484.0
591.865,12585.8
592.363,12546.2
592.86,12759.9
593.358,12714.0
593.856,12333.4
594.353,12612.2
594.851,12727.4
595.348,12603.3
595.845,13061.2
596.342,12730.8
596.84,12896.1
597.337,13013.7
597.834,13000.7
598.331,13096.8
598.828,12941.3
599.324,13307.0
599.821,13180.2
600.318,13179.2
600.814,13323.8
601.311,13353.0
601.807,13653.6
602.304,13163.3
602.8,13736.3
603.296,13739.0
603.792,13915.5
604.288,13551.3
604.784,13484.5
605.28,13810.0
605.776,13598.5
606.272,13858.6
606.767,13767.3
607.263,14165.0
607.759,14285.1
608.254,14153.2
608.749,14399.6
609.245,14411.0
609.74,14464.0
610.235,14284.9
610.73,14599.0
611.225,14991.2
611.72,14935.0
612.215,14801.6
612.71,15190.8
613.204,15217.5
613.699,15213.8
614.194,15639.1
614.688,15628.5
615.182,15398.0
615.677,15805.7
616.171,15953.5
616.665,16333.5
617.159,16221.8
617.653,16135.5
618.147,16461.1
618.641,16450.2
619.135,16525.6
619.628,16759.4
620.122,16517.9
620.615,17117.0
621.109,16988.9
621.602,17295.5
622.095,16990.8
622.589,17395.6
623.082,17767.9
623.575,17579.4
624.068,17986.4
624.561,17765.0
625.053,17928.3
625.546,18369.0
626.039,18220.3
626.531,18400.4
627.024,18071.4
627.516,18048.8
628.008,18413.1
628.501,18327.8
628.993,19110.1
629.485,19258.2
629.977,19767.2
630.469,19564.7
630.96,19174.9
631.452,19671.3
631.944,20811.6
632.435,19959.8
632.927,19969.2
633.418,20120.6
633.91,20058.3
634.401,19673.3
634.892,20362.6
635.383,20046.4
635.874,20345.1
636.365,21591.5
636.856,20899.5
637.346,20538.1
637.837,20228.8
638.327,20327.0
638.818,19791.6
639.308,19463.5
639.799,19821.0
640.289,20325.4
640.779,19637.5
641.269,20098.3
641.759,20097.2
642.249,20126.4
642.738,20202.1
643.228,20386.2
643.718,20162.1
644.207,19794.3
644.697,19734.5
645.186,20124.2
645.675,20277.7
646.164,19726.9
646.653,20115.6
647.142,20024.8
647.631,19675.3
648.12,20461.8
648.609,19545.9
649.098,19575.5
649.586,19037.1
650.075,18962.7
650.563,18982.5
651.051,19085.7
651.539,19296.3
652.027,19012.3
652.515,18780.9
653.003,18461.2
653.491,18279.0
653.979,18800.4
654.467,18004.4
654.954,18071.8
655.442,17223.9
655.929,18312.3
656.416,17950.0
656.904,17450.1
657.391,17694.6
657.878,17019.7
658.365,16973.2
658.851,16591.2
659.338,16028.7
659.825,16228.7
660.311,16530.3
660.798,16363.7
661.041,16596.4