Folder: MPX_specDB/spectra (part 108)

File: VLFR_07-PET_bio_Raman_f748df70.csv
nm,Intensity
791.377,7782.6
792.477,7387.5
793.576,7142.05
794.676,7032.95
795.775,7039.35
796.874,7003.75
797.973,6967.35
799.072,6928.9
800.171,6942.5
801.27,6897.45
802.368,6859.9
803.467,6830.5
804.565,6697.6
805.664,6691.65
806.762,6687.95
807.86,6587.3
808.958,6569.15
810.056,6545.45
811.153,6565.35
812.251,6540.45
813.349,6450.05
814.446,6504.25
815.543,6470.4
816.64,6446.5
817.737,6268.35
818.834,6315.0
819.931,6228.05
821.028,6289.45
822.125,6157.35
823.221,6185.55
824.317,6146.65
825.414,6130.8
826.51,6161.9
827.606,6014.85
828.702,6003.2
829.797,5924.65
830.893,6049.55
831.988,5885.8
833.084,5863.75
834.179,5836.15
835.274,5834.7
836.369,5738.7
837.464,5818.8
838.559,5781.95
839.654,5720.7
840.748,5796.95
841.843,5716.7
842.937,5660.8
844.031,5660.65
845.125,5589.35
846.219,5513.65
847.313,5508.05
848.407,5480.65
849.5,5497.4
850.593,5449.45
851.687,5445.35
852.78,5446.85
853.873,5417.15
854.966,5445.55
856.059,5349.0
857.151,5366.25
858.244,5353.0
859.336,5387.75
860.428,5350.85
861.52,5329.05
862.612,5239.05
863.704,5277.25
864.796,5281.35
865.888,5257.25
866.979,5214.75
868.07,5156.05
869.162,5151.95
870.253,5181.15
871.344,5243.45
872.434,5255.45
873.525,5215.75
874.615,5171.3
875.706,5118.8
876.796,5115.95
877.886,5026.5
878.976,5035.5
880.066,4998.15
881.156,5028.4
882.245,4942.2
883.335,4980.7
884.424,4946.5
885.513,4920.05
886.602,4962.95
887.691,4885.55
888.78,4834.85
889.868,4820.0
890.957,4862.75
892.045,4824.2
893.133,4783.0
894.221,4780.7
895.309,4734.6
896.397,4739.65
897.484,4801.9
898.571,4941.1
899.659,4803.4
900.746,4692.65
901.833,4629.4
902.92,4616.3
904.006,4644.85
905.093,4588.15
906.179,4593.25
907.266,4699.1
908.352,4697.0
909.438,4622.4
910.523,4502.6
911.609,4474.55
912.695,4443.3
913.78,4448.95
914.865,4428.4
915.95,4427.1
917.035,4408.45
918.12,4373.45
919.204,4353.1
920.289,4350.7
921.373,4329.55
922.457,4333.7
923.541,4307.9
924.625,4303.25
925.709,4268.05
926.792,4265.85
927.876,4254.65
928.959,4235.25
930.042,4203.45
931.125,4199.5
932.208,4194.95
933.29,4202.2
934.373,4161.25
935.455,4165.75
936.537,4142.9
937.619,4140.05
938.701,4117.2
939.782,4116.05
940.864,4112.75
941.945,4110.75
943.026,4082.9
944.107,4076.35
945.188,4070.35
946.269,4063.0
947.349,4044.7
948.43,4039.65
949.51,4041.6
950.59,4027.05
951.67,4011.8
952.75,4012.9
953.829,4005.15
954.909,3987.35
955.988,3993.15
957.067,3988.05
958.146,3975.2
959.224,3977.85
960.303,3965.5
961.381,3955.95
962.459,3962.1
963.537,3950.85
964.615,3946.55
965.693,3932.65
966.771,3933.45
967.848,3920.7
968.925,3926.7
970.002,3922.85
971.079,3905.8
972.156,3907.05
973.232,3911.7
974.309,3896.85
975.385,3900.8
976.461,3892.85
977.537,3886.3
978.612,3885.1
979.688,3882.9
980.763,3881.85
981.838,3870.15
982.913,3869.65
983.988,3867.2
985.063,3865.65
986.137,3858.05
987.211,3859.85
988.285,3857.95
989.359,3852.35
990.433,3847.8
991.506,3847.95
992.58,3844.5
993.653,3844.5
994.726,3837.85
995.799,3834.45
996.872,3837.1
997.944,3834.4
999.016,3828.6
1000.09,3829.7
1001.16,3827.75
1002.23,3827.4
1003.3,3821.2
1004.38,3821.5
1005.45,3821.5
1006.52,3818.0
1007.59,3815.75
1008.66,3815.35
1009.73,3813.8
1010.8,3809.9
1011.87,3810.5
1012.94,3807.95
1014.01,3808.2
1015.08,3805.9
1016.15,3806.6
1017.22,3802.9
1018.29,3802.95
1019.36,3800.7
1020.42,3803.25
1021.49,3803.8
1022.56,3801.4
1023.63,3800.3
1024.7,3798.05
1025.76,3797.65
1026.83,3795.9
1027.9,3795.3
1028.97,3792.95
1030.03,3789.9
1031.1,3788.8
1032.17,3791.4
1033.23,3791.6
1034.3,3792.35
1035.36,3791.45
1036.43,3791.4
1037.5,3790.55
1038.56,3786.45
1039.63,3788.5
1040.69,3786.2
1041.76,3787.6
1042.82,3787.0
1043.89,3786.85
1044.95,3785.4
1046.01,3785.9
1047.08,3785.45
1048.14,3783.55
1049.2,3784.75
1050.27,3783.3
1051.33,3782.65
1052.39,3785.45
1053.46,3782.65
1054.52,3783.05
1055.58,3783.25
1056.64,3781.4
1057.7,3782.1
1058.77,3782.3
1059.83,3780.9
1060.89,3782.95
1061.95,3781.8
1063.01,3782.2
1064.07,3782.35
1065.13,3779.45
1066.19,3781.25
1067.25,3780.45
1068.05,3780.25

File: VLFR_07-PET_bio_Raman_f2051e07.csv
nm,Intensity
791.588,9735.0
792.685,9195.5
793.781,8961.1
794.878,8896.0
795.975,8797.7
797.071,8764.0
798.168,8727.4
799.264,8741.0
800.36,8633.1
801.456,8757.3
802.552,8654.0
803.648,8528.6
804.744,8415.4
805.84,8391.6
806.936,8300.7
808.031,8190.9
809.127,8214.8
810.222,8053.7
811.317,8005.9
812.412,8083.5
813.507,7892.6
814.602,7843.4
815.697,7788.9
816.792,7745.6
817.887,7704.8
818.981,7675.1
820.076,7650.1
821.17,7496.4
822.265,7445.4
823.359,7396.6
824.453,7406.4
825.547,7387.3
826.641,7322.1
827.735,7269.3
828.828,7128.3
829.922,7138.4
831.016,7167.5
832.109,6985.5
833.202,6961.9
834.295,6926.9
835.388,6832.8
836.481,6843.3
837.574,6840.2
838.667,6805.5
839.76,6747.4
840.852,6844.2
841.945,6828.0
843.037,6636.4
844.129,6582.0
845.221,6474.5
846.314,6454.3
847.405,6386.3
848.497,6346.3
849.589,6251.9
850.68,6239.8
851.772,6249.8
852.863,6206.5
853.955,6182.6
855.046,6180.8
856.137,6105.4
857.228,6079.2
858.318,6130.4
859.409,6182.9
860.5,6144.6
861.59,6010.7
862.681,6020.8
863.771,5961.5
864.861,5981.0
865.951,5900.5
867.041,5885.6
868.131,5836.4
869.22,5885.9
870.31,5872.0
871.399,5981.0
872.488,6004.4
873.578,5947.1
874.667,5875.7
875.756,5809.9
876.845,5776.3
877.933,5665.3
879.022,5635.1
880.11,5616.4
881.199,5626.8
882.287,5623.9
883.375,5592.7
884.463,5579.9
885.551,5580.1
886.639,5550.9
887.726,5465.5
888.814,5447.0
889.901,5438.4
890.988,5405.3
892.075,5410.7
893.162,5351.2
894.249,5320.4
895.336,5259.3
896.423,5255.7
897.509,5427.6
898.595,5590.9
899.682,5344.8
900.768,5178.2
901.854,5103.7
902.94,5046.8
904.025,5064.9
905.111,5057.7
906.196,5121.5
907.282,5222.7
908.367,5183.9
909.452,5058.9
910.537,4933.9
911.622,4846.7
912.706,4831.2
913.791,4804.1
914.875,4758.3
915.959,4716.1
917.044,4712.6
918.128,4695.6
919.211,4672.2
920.295,4641.5
921.379,4632.8
922.462,4581.0
923.546,4571.7
924.629,4552.7
925.712,4524.8
926.795,4509.1
927.877,4454.7
928.96,4449.7
930.043,4425.1
931.125,4395.9
932.207,4369.7
933.289,4355.3
934.371,4336.0
935.453,4335.1
936.535,4301.5
937.616,4266.6
938.697,4282.5
939.779,4248.7
940.86,4243.7
941.941,4213.1
943.022,4205.5
944.102,4187.0
945.183,4181.6
946.263,4179.6
947.343,4156.0
948.423,4130.9
949.503,4135.0
950.583,4111.1
951.663,4096.6
952.742,4086.4
953.822,4084.4
954.901,4066.7
955.98,4061.2
957.059,4050.3
958.137,4052.4
959.216,4023.2
960.294,4026.0
961.373,4012.6
962.451,3996.2
963.529,3982.3
964.607,3992.7
965.684,3986.6
966.762,3969.9
967.839,3963.2
968.917,3955.1
969.994,3939.2
971.071,3954.4
972.147,3935.2
973.224,3928.9
974.3,3929.6
975.377,3923.9
976.453,3908.3
977.529,3907.3
978.605,3902.5
979.68,3897.0
980.756,3896.1
981.831,3889.5
982.907,3884.1
983.982,3875.1
985.057,3869.1
986.131,3866.9
987.206,3869.0
988.28,3864.1
989.355,3859.7
990.429,3854.2
991.503,3848.2
992.576,3845.3
993.65,3845.9
994.723,3836.9
995.797,3832.8
996.87,3834.1
997.943,3826.4
999.016,3824.2
1000.09,3819.9
1001.16,3816.2
1002.23,3817.4
1003.31,3810.4
1004.38,3809.4
1005.45,3808.6
1006.52,3803.9
1007.59,3801.2
1008.66,3802.6
1009.73,3795.6
1010.81,3793.1
1011.88,3790.7
1012.95,3792.9
1014.02,3790.3
1015.09,3787.9
1016.16,3785.4
1017.23,3786.0
1018.3,3780.9
1019.37,3781.9
1020.44,3783.8
1021.51,3779.9
1022.58,3782.9
1023.64,3780.0
1024.71,3779.8
1025.78,3777.2
1026.85,3772.8
1027.92,3770.8
1028.99,3770.4
1030.05,3768.1
1031.12,3765.6
1032.19,3765.6
1033.26,3767.2
1034.32,3765.9
1035.39,3765.6
1036.46,3766.2
1037.52,3762.3
1038.59,3758.3
1039.66,3759.2
1040.72,3758.3
1041.79,3755.7
1042.86,3755.2
1043.92,3757.2
1044.99,3757.2
1046.05,3754.0
1047.12,3753.4
1048.18,3753.5
1049.25,3753.3
1050.31,3753.9
1051.37,3751.6
1052.44,3753.5
1053.5,3751.7
1054.57,3750.5
1055.63,3752.6
1056.69,3752.5
1057.76,3750.8
1058.82,3750.0
1059.88,3752.6
1060.95,3752.1
1062.01,3750.0
1063.07,3749.3
1064.13,3750.0
1065.19,3750.4
1066.26,3750.1
1067.32,3746.7
1068.11,3749.9

File: VLFR_07-PET_bio_Raman_f6519f3f.csv
nm,Intensity
791.377,9380.5
792.477,9362.5
793.576,9325.75
794.676,9366.6
795.775,9431.8
796.874,9456.9
797.973,9490.75
799.072,9379.15
800.171,9348.35
801.27,9378.3
802.368,9289.4
803.467,9284.75
804.565,9200.65
805.664,9186.3
806.762,9094.8
807.86,9065.3
808.958,9074.8
810.056,8955.6
811.153,8960.1
812.251,8845.2
813.349,8846.55
814.446,8659.4
815.543,8567.9
816.64,8519.35
817.737,8496.25
818.834,8428.4
819.931,8379.8
821.028,8285.75
822.125,8304.65
823.221,8113.7
824.317,8160.45
825.414,8116.3
826.51,8072.6
827.606,7955.35
828.702,7859.5
829.797,7833.25
830.893,7823.4
831.988,7680.7
833.084,7633.55
834.179,7631.8
835.274,7500.4
836.369,7467.85
837.464,7444.55
838.559,7374.6
839.654,7287.1
840.748,7312.5
841.843,7254.05
842.937,7257.9
844.031,7092.65
845.125,7049.55
846.219,7041.25
847.313,6998.05
848.407,6936.95
849.5,6808.0
850.593,6964.25
851.687,6820.1
852.78,6746.1
853.873,6672.6
854.966,6594.6
856.059,6606.5
857.151,6548.8
858.244,6511.05
859.336,6486.05
860.428,6455.5
861.52,6375.95
862.612,6346.55
863.704,6332.9
864.796,6263.1
865.888,6205.15
866.979,6201.6
868.07,6126.4
869.162,6138.1
870.253,6083.55
871.344,6021.9
872.434,6028.4
873.525,5969.45
874.615,5904.9
875.706,5930.9
876.796,5868.25
877.886,5863.75
878.976,5800.9
880.066,5719.6
881.156,5747.9
882.245,5716.55
883.335,5658.25
884.424,5664.95
885.513,5633.05
886.602,5544.95
887.691,5540.5
888.78,5551.7
889.868,5478.1
890.957,5466.35
892.045,5412.15
893.133,5352.05
894.221,5343.25
895.309,5301.95
896.397,5256.95
897.484,5222.1
898.571,5189.4
899.659,5152.35
900.746,5137.5
901.833,5094.65
902.92,5095.2
904.006,5071.6
905.093,5068.05
906.179,4991.3
907.266,5003.15
908.352,4926.2
909.438,4927.95
910.523,4896.55
911.609,4892.6
912.695,4814.35
913.78,4837.45
914.865,4788.6
915.95,4771.65
917.035,4742.7
918.12,4736.85
919.204,4728.05
920.289,4692.45
921.373,4677.6
922.457,4663.95
923.541,4606.0
924.625,4606.5
925.709,4591.1
926.792,4553.4
927.876,4511.6
928.959,4496.65
930.042,4465.9
931.125,4412.25
932.208,4406.8
933.29,4374.7
934.373,4360.1
935.455,4337.65
936.537,4311.45
937.619,4309.95
938.701,4299.0
939.782,4288.45
940.864,4288.35
941.945,4268.45
943.026,4245.25
944.107,4219.2
945.188,4221.85
946.269,4188.7
947.349,4185.25
948.43,4187.8
949.51,4150.65
950.59,4151.05
951.67,4145.8
952.75,4124.1
953.829,4113.0
954.909,4114.35
955.988,4096.95
957.067,4089.35
958.146,4079.25
959.224,4072.3
960.303,4068.75
961.381,4047.95
962.459,4047.65
963.537,4045.55
964.615,4030.6
965.693,4023.55
966.771,4020.55
967.848,4014.85
968.925,4015.95
970.002,3997.95
971.079,3997.05
972.156,3996.35
973.232,3977.35
974.309,3971.45
975.385,3962.35
976.461,3957.05
977.537,3954.85
978.612,3944.35
979.688,3941.55
980.763,3943.2
981.838,3932.35
982.913,3929.45
983.988,3925.3
985.063,3916.45
986.137,3917.8
987.211,3915.0
988.285,3905.6
989.359,3905.35
990.433,3900.45
991.506,3890.35
992.58,3893.35
993.653,3889.25
994.726,3886.15
995.799,3877.75
996.872,3875.45
997.944,3876.7
999.016,3869.45
1000.09,3863.05
1001.16,3858.3
1002.23,3856.85
1003.3,3852.85
1004.38,3850.5
1005.45,3845.6
1006.52,3845.9
1007.59,3841.4
1008.66,3840.05
1009.73,3835.85
1010.8,3835.6
1011.87,3832.0
1012.94,3826.45
1014.01,3828.8
1015.08,3826.05
1016.15,3824.7
1017.22,3821.25
1018.29,3817.75
1019.36,3816.4
1020.42,3813.45
1021.49,3810.65
1022.56,3809.7
1023.63,3808.65
1024.7,3807.95
1025.76,3806.6
1026.83,3804.3
1027.9,3804.15
1028.97,3799.35
1030.03,3799.75
1031.1,3798.4
1032.17,3797.8
1033.23,3796.2
1034.3,3796.9
1035.36,3795.2
1036.43,3793.15
1037.5,3792.1
1038.56,3791.0
1039.63,3792.4
1040.69,3791.95
1041.76,3790.3
1042.82,3788.85
1043.89,3790.4
1044.95,3787.6
1046.01,3786.05
1047.08,3787.35
1048.14,3787.9
1049.2,3787.0
1050.27,3785.1
1051.33,3786.6
1052.39,3784.2
1053.46,3784.45
1054.52,3784.4
1055.58,3784.35
1056.64,3783.85
1057.7,3783.7
1058.77,3782.1
1059.83,3783.7
1060.89,3782.8
1061.95,3780.15
1063.01,3782.2
1064.07,3780.45
1065.13,3781.5
1066.19,3781.35
1067.25,3781.4
1068.05,3780.25

File: VLFR_07-PET_bio_Raman_f918650d.csv
nm,Intensity
791.377,16625.8
792.477,15232.1
793.576,14406.7
794.676,13894.9
795.775,13764.4
796.874,13605.7
797.973,13741.4
799.072,13731.3
800.171,13462.0
801.27,13681.7
802.368,13326.4
803.467,13051.0
804.565,12953.6
805.664,12712.1
806.762,12756.2
807.86,12581.3
808.958,12331.1
810.056,12222.4
811.153,12167.9
812.251,12122.7
813.349,12204.0
814.446,11816.7
815.543,11862.4
816.64,11686.3
817.737,11719.9
818.834,11529.8
819.931,11381.5
821.028,11339.7
822.125,11254.3
823.221,10952.6
824.317,11110.2
825.414,10980.5
826.51,10984.0
827.606,10714.3
828.702,10471.1
829.797,10386.1
830.893,10506.1
831.988,10314.4
833.084,10089.5
834.179,10010.0
835.274,9684.98
836.369,9815.08
837.464,9910.72
838.559,9871.26
839.654,9699.42
840.748,9988.94
841.843,10091.2
842.937,9639.38
844.031,9346.82
845.125,9093.14
846.219,8954.36
847.313,9120.66
848.407,8935.72
849.5,8975.04
850.593,8776.1
851.687,8864.94
852.78,8778.84
853.873,8687.36
854.966,8653.06
856.059,8510.42
857.151,8611.16
858.244,8644.32
859.336,8647.24
860.428,8750.88
861.52,8458.66
862.612,8167.52
863.704,8167.0
864.796,8303.5
865.888,8052.02
866.979,8040.88
868.07,7884.72
869.162,7962.7
870.253,8059.5
871.344,8157.08
872.434,8494.46
873.525,8413.74
874.615,8075.62
875.706,7824.74
876.796,7714.14
877.886,7663.42
878.976,7511.76
880.066,7417.7
881.156,7440.84
882.245,7334.26
883.335,7395.4
884.424,7377.4
885.513,7261.32
886.602,7139.18
887.691,7097.02
888.78,7012.98
889.868,7107.84
890.957,6857.2
892.045,6933.52
893.133,6813.04
894.221,6774.4
895.309,6695.18
896.397,6637.02
897.484,6946.62
898.571,7653.46
899.659,7082.02
900.746,6488.46
901.833,6402.82
902.92,6401.4
904.006,6275.32
905.093,6262.24
906.179,6284.34
907.266,6783.36
908.352,6902.02
909.438,6430.46
910.523,6045.92
911.609,5913.92
912.695,5860.56
913.78,5788.48
914.865,5736.94
915.95,5730.88
917.035,5713.02
918.12,5591.14
919.204,5620.74
920.289,5520.0
921.373,5510.42
922.457,5471.72
923.541,5394.62
924.625,5375.24
925.709,5340.02
926.792,5280.6
927.876,5243.96
928.959,5199.54
930.042,5149.12
931.125,5037.26
932.208,5086.38
933.29,5026.12
934.373,5002.42
935.455,4951.02
936.537,4931.04
937.619,4864.48
938.701,4871.2
939.782,4832.42
940.864,4780.08
941.945,4798.28
943.026,4731.06
944.107,4703.62
945.188,4671.62
946.269,4652.06
947.349,4624.9
948.43,4615.84
949.51,4573.2
950.59,4571.88
951.67,4529.2
952.75,4523.36
953.829,4468.48
954.909,4450.66
955.988,4459.6
957.067,4428.26
958.146,4390.62
959.224,4397.12
960.303,4358.52
961.381,4344.86
962.459,4328.74
963.537,4349.28
964.615,4292.92
965.693,4282.18
966.771,4282.08
967.848,4246.12
968.925,4233.0
970.002,4228.32
971.079,4206.34
972.156,4207.66
973.232,4177.5
974.309,4163.16
975.385,4169.36
976.461,4140.76
977.537,4130.26
978.612,4125.54
979.688,4105.42
980.763,4091.84
981.838,4090.18
982.913,4076.8
983.988,4070.66
985.063,4056.16
986.137,4057.9
987.211,4042.5
988.285,4031.76
989.359,4012.98
990.433,4022.66
991.506,4006.54
992.58,3993.42
993.653,3986.2
994.726,3979.6
995.799,3971.54
996.872,3961.94
997.944,3959.22
999.016,3956.16
1000.09,3941.58
1001.16,3934.66
1002.23,3930.06
1003.3,3926.24
1004.38,3919.06
1005.45,3913.2
1006.52,3909.82
1007.59,3903.22
1008.66,3901.84
1009.73,3888.18
1010.8,3883.9
1011.87,3887.2
1012.94,3883.48
1014.01,3876.32
1015.08,3871.92
1016.15,3870.02
1017.22,3868.16
1018.29,3862.16
1019.36,3857.68
1020.42,3857.06
1021.49,3862.56
1022.56,3866.32
1023.63,3862.92
1024.7,3852.28
1025.76,3844.74
1026.83,3842.34
1027.9,3835.06
1028.97,3832.28
1030.03,3827.96
1031.1,3820.28
1032.17,3823.3
1033.23,3823.52
1034.3,3824.88
1035.36,3827.24
1036.43,3826.2
1037.5,3819.28
1038.56,3812.42
1039.63,3808.56
1040.69,3806.92
1041.76,3805.96
1042.82,3802.64
1043.89,3802.14
1044.95,3799.04
1046.01,3798.54
1047.08,3798.34
1048.14,3797.46
1049.2,3796.52
1050.27,3795.5
1051.33,3794.86
1052.39,3795.8
1053.46,3793.16
1054.52,3792.52
1055.58,3793.02
1056.64,3791.5
1057.7,3790.58
1058.77,3791.3
1059.83,3790.96
1060.89,3789.16
1061.95,3790.88
1063.01,3790.18
1064.07,3788.66
1065.13,3789.08
1066.19,3788.06
1067.25,3787.48
1068.05,3787.08

File: VLFR_07-PET_bio_Raman_f8488413.csv
nm,Intensity
791.377,15835.9
792.477,14525.9
793.576,13346.0
794.676,12926.1
795.775,12800.7
796.874,12617.5
797.973,12541.1
799.072,12660.2
800.171,12622.6
801.27,12598.9
802.368,12627.4
803.467,12141.1
804.565,12223.0
805.664,12085.5
806.762,11836.9
807.86,11746.1
808.958,11713.0
810.056,11585.2
811.153,11323.4
812.251,11328.2
813.349,11182.0
814.446,11139.4
815.543,11107.9
816.64,10903.7
817.737,10652.7
818.834,10556.6
819.931,10401.4
821.028,10390.4
822.125,10348.9
823.221,10082.9
824.317,10113.7
825.414,10237.5
826.51,10043.5
827.606,9922.4
828.702,9642.02
829.797,9610.0
830.893,9862.5
831.988,9516.14
833.084,9323.1
834.179,9293.72
835.274,9287.12
836.369,9247.54
837.464,9202.1
838.559,9227.2
839.654,9250.22
840.748,9291.56
841.843,9417.06
842.937,9045.3
844.031,8856.6
845.125,8672.0
846.219,8438.92
847.313,8418.86
848.407,8351.34
849.5,8289.04
850.593,8313.88
851.687,8214.6
852.78,8107.88
853.873,8122.06
854.966,7995.66
856.059,7905.76
857.151,7866.92
858.244,7959.58
859.336,7953.7
860.428,8102.72
861.52,7823.7
862.612,7722.86
863.704,7576.62
864.796,7672.34
865.888,7464.32
866.979,7372.88
868.07,7438.98
869.162,7368.28
870.253,7465.32
871.344,7469.26
872.434,7851.76
873.525,7857.16
874.615,7460.0
875.706,7293.08
876.796,7112.02
877.886,7033.72
878.976,6959.58
880.066,6947.56
881.156,6935.16
882.245,6948.76
883.335,6910.58
884.424,6794.02
885.513,6821.98
886.602,6740.34
887.691,6650.52
888.78,6640.52
889.868,6601.32
890.957,6494.74
892.045,6588.5
893.133,6472.18
894.221,6402.7
895.309,6392.9
896.397,6286.78
897.484,6570.96
898.571,7334.96
899.659,6860.52
900.746,6165.78
901.833,6052.42
902.92,6005.08
904.006,5958.28
905.093,6018.08
906.179,6135.18
907.266,6633.54
908.352,6568.76
909.438,6143.1
910.523,5860.08
911.609,5679.98
912.695,5665.9
913.78,5580.22
914.865,5504.38
915.95,5499.44
917.035,5400.26
918.12,5404.86
919.204,5362.02
920.289,5275.8
921.373,5268.42
922.457,5243.96
923.541,5204.64
924.625,5164.26
925.709,5123.7
926.792,5081.52
927.876,5000.78
928.959,5024.38
930.042,4975.6
931.125,4914.18
932.208,4892.9
933.29,4866.9
934.373,4818.76
935.455,4816.08
936.537,4762.18
937.619,4716.48
938.701,4720.68
939.782,4660.78
940.864,4668.6
941.945,4633.42
943.026,4590.5
944.107,4564.1
945.188,4544.96
946.269,4527.06
947.349,4477.46
948.43,4498.24
949.51,4459.06
950.59,4420.68
951.67,4411.46
952.75,4406.72
953.829,4390.44
954.909,4341.72
955.988,4331.58
957.067,4319.78
958.146,4295.92
959.224,4297.1
960.303,4270.26
961.381,4250.76
962.459,4251.76
963.537,4206.64
964.615,4200.14
965.693,4205.16
966.771,4173.3
967.848,4166.7
968.925,4149.7
970.002,4139.28
971.079,4139.48
972.156,4119.16
973.232,4112.92
974.309,4080.4
975.385,4090.56
976.461,4092.42
977.537,4056.66
978.612,4060.08
979.688,4044.78
980.763,4042.1
981.838,4030.56
982.913,4012.28
983.988,4018.94
985.063,4002.66
986.137,4001.4
987.211,3988.9
988.285,3991.48
989.359,3973.72
990.433,3969.64
991.506,3953.08
992.58,3950.28
993.653,3946.44
994.726,3936.84
995.799,3935.84
996.872,3926.88
997.944,3918.52
999.016,3916.2
1000.09,3911.36
1001.16,3904.36
1002.23,3903.06
1003.3,3897.98
1004.38,3889.6
1005.45,3884.86
1006.52,3881.02
1007.59,3874.54
1008.66,3874.74
1009.73,3870.48
1010.8,3861.86
1011.87,3858.5
1012.94,3855.68
1014.01,3856.38
1015.08,3853.54
1016.15,3850.72
1017.22,3851.5
1018.29,3844.82
1019.36,3842.68
1020.42,3841.62
1021.49,3846.38
1022.56,3850.68
1023.63,3848.62
1024.7,3841.74
1025.76,3833.36
1026.83,3829.06
1027.9,3825.98
1028.97,3818.0
1030.03,3814.54
1031.1,3812.04
1032.17,3811.78
1033.23,3812.14
1034.3,3815.38
1035.36,3818.18
1036.43,3814.56
1037.5,3808.9
1038.56,3802.34
1039.63,3800.24
1040.69,3797.68
1041.76,3796.08
1042.82,3795.46
1043.89,3794.08
1044.95,3792.72
1046.01,3790.24
1047.08,3791.38
1048.14,3790.24
1049.2,3788.84
1050.27,3787.32
1051.33,3788.1
1052.39,3788.38
1053.46,3786.88
1054.52,3786.58
1055.58,3787.66
1056.64,3785.04
1057.7,3785.38
1058.77,3784.62
1059.83,3784.96
1060.89,3784.0
1061.95,3784.08
1063.01,3783.42
1064.07,3783.38
1065.13,3782.46
1066.19,3782.26
1067.25,3781.76
1068.05,3780.66

File: VLFR_07-PET_bio_Raman_fbd5efed.csv
nm,Intensity
791.75,5637.45
792.846,5594.45
793.942,5547.0
795.037,5532.15
796.133,5502.25
797.228,5484.1
798.324,5484.4
799.419,5458.45
800.514,5499.5
801.61,5454.25
802.705,5410.2
803.8,5379.7
804.894,5414.2
805.989,5348.45
807.084,5308.75
808.178,5320.7
809.273,5250.25
810.367,5253.05
811.461,5270.55
812.556,5187.3
813.65,5151.7
814.744,5134.25
815.837,5094.55
816.931,5066.45
818.025,5044.65
819.118,5038.2
820.212,5022.65
821.305,5003.9
822.398,4953.8
823.491,4969.4
824.585,4936.3
825.677,4934.9
826.77,4891.6
827.863,4884.15
828.956,4833.05
830.048,4837.2
831.14,4843.95
832.233,4789.1
833.325,4778.0
834.417,4788.5
835.509,4761.65
836.601,4769.3
837.692,4760.95
838.784,4737.9
839.876,4715.35
840.967,4733.3
842.058,4733.15
843.149,4682.9
844.24,4651.35
845.331,4650.85
846.422,4612.05
847.513,4594.35
848.604,4619.65
849.694,4572.8
850.784,4561.65
851.875,4581.9
852.965,4558.1
854.055,4533.5
855.145,4533.4
856.235,4515.85
857.324,4514.45
858.414,4512.7
859.503,4533.3
860.593,4525.8
861.682,4478.3
862.771,4468.25
863.86,4477.3
864.949,4461.65
866.038,4435.3
867.126,4430.1
868.215,4414.35
869.303,4435.55
870.391,4420.5
871.479,4435.65
872.567,4448.4
873.655,4437.9
874.743,4432.7
875.831,4386.15
876.918,4387.7
878.006,4372.9
879.093,4361.0
880.18,4355.95
881.267,4353.4
882.354,4360.9
883.441,4328.05
884.527,4331.4
885.614,4338.7
886.7,4300.1
887.786,4313.7
888.872,4291.5
889.958,4293.15
891.044,4272.1
892.13,4271.9
893.216,4249.0
894.301,4251.75
895.386,4229.3
896.472,4225.35
897.557,4251.25
898.642,4297.4
899.726,4234.7
900.811,4173.8
901.896,4166.65
902.98,4167.95
904.064,4162.65
905.148,4150.75
906.232,4185.0
907.316,4216.4
908.4,4198.9
909.484,4138.75
910.567,4115.35
911.65,4115.85
912.734,4082.9
913.817,4077.25
914.9,4071.65
915.982,4065.6
917.065,4049.45
918.147,4047.95
919.23,4056.85
920.312,4036.5
921.394,4030.45
922.476,4023.25
923.558,4015.8
924.639,4002.65
925.721,3990.6
926.802,3992.6
927.884,3970.3
928.965,3974.25
930.046,3954.4
931.126,3952.4
932.207,3952.0
933.288,3935.75
934.368,3936.6
935.448,3920.85
936.528,3916.6
937.608,3914.8
938.688,3910.85
939.767,3901.05
940.847,3899.15
941.926,3895.65
943.005,3889.3
944.084,3883.2
945.163,3876.6
946.242,3874.6
947.321,3871.5
948.399,3862.45
949.477,3867.3
950.556,3859.85
951.634,3853.55
952.711,3852.4
953.789,3846.15
954.867,3843.2
955.944,3843.8
957.021,3841.95
958.098,3832.55
959.175,3829.4
960.252,3828.05
961.328,3828.05
962.405,3825.35
963.481,3820.65
964.557,3822.2
965.633,3818.55
966.709,3814.5
967.785,3814.75
968.86,3813.15
969.936,3809.7
971.011,3805.6
972.086,3806.3
973.161,3802.7
974.235,3799.3
975.31,3799.6
976.384,3795.85
977.459,3796.35
978.533,3793.0
979.607,3792.75
980.68,3794.75
981.754,3791.0
982.827,3790.95
983.901,3788.6
984.974,3783.45
986.047,3784.35
987.119,3785.45
988.192,3782.6
989.264,3784.0
990.337,3778.0
991.409,3776.65
992.481,3777.25
993.553,3775.75
994.624,3774.55
995.696,3776.4
996.767,3772.9
997.838,3769.3
998.909,3772.35
999.98,3770.6
1001.05,3768.1
1002.12,3768.35
1003.19,3765.45
1004.26,3765.3
1005.33,3762.9
1006.4,3761.95
1007.47,3762.35
1008.54,3761.55
1009.61,3759.05
1010.68,3761.1
1011.75,3757.35
1012.82,3757.85
1013.88,3758.75
1014.95,3757.4
1016.02,3757.9
1017.09,3756.15
1018.16,3753.65
1019.22,3755.55
1020.29,3753.8
1021.36,3755.15
1022.43,3755.6
1023.49,3755.85
1024.56,3753.7
1025.63,3752.5
1026.69,3751.2
1027.76,3750.45
1028.83,3749.8
1029.89,3750.0
1030.96,3748.0
1032.02,3747.15
1033.09,3748.3
1034.15,3748.8
1035.22,3747.15
1036.28,3748.85
1037.35,3745.9
1038.41,3746.95
1039.48,3746.55
1040.54,3746.5
1041.6,3744.75
1042.67,3743.95
1043.73,3744.85
1044.79,3744.1
1045.86,3745.05
1046.92,3745.05
1047.98,3742.55
1049.05,3743.8
1050.11,3742.55
1051.17,3742.85
1052.23,3742.75
1053.29,3743.55
1054.36,3741.2
1055.42,3743.6
1056.48,3742.45
1057.54,3743.1
1058.6,3741.05
1059.66,3741.75
1060.72,3741.2
1061.78,3742.9
1062.84,3741.6
1063.9,3742.15
1064.96,3742.3
1066.02,3741.8
1067.08,3740.75
1067.88,3741.1