Folder: MPX_specDB/spectra (part 48)

File: VLFR_02-HDPE_bio_Raman_c3925eb5.csv
nm,Intensity
526.549,832.35
527.096,831.75
527.643,831.75
528.19,831.4
528.737,832.2
529.283,831.85
529.83,831.7
530.376,831.75
530.922,832.2
531.468,831.7
532.014,843.45
532.559,831.75
533.105,832.25
533.65,832.25
534.196,883.2
534.741,879.9
535.286,872.85
535.83,862.85
536.375,856.65
536.92,854.0
537.464,852.6
538.008,853.8
538.553,852.5
539.097,849.15
539.641,847.8
540.184,848.7
540.728,847.15
541.271,848.4
541.815,846.85
542.358,847.1
542.901,846.2
543.444,848.35
543.987,848.35
544.53,846.5
545.072,847.7
545.615,846.75
546.157,847.9
546.699,848.1
547.242,846.6
547.784,847.0
548.325,846.2
548.867,846.6
549.409,847.9
549.95,847.05
550.492,847.65
551.033,846.65
551.574,847.35
552.115,848.65
552.656,847.7
553.197,849.6
553.737,848.55
554.278,850.65
554.818,850.8
555.358,851.0
555.899,850.75
556.439,852.45
556.979,853.7
557.518,853.45
558.058,856.4
558.598,855.35
559.137,854.45
559.677,852.6
560.216,852.8
560.755,854.85
561.294,852.65
561.833,853.65
562.372,856.85
562.91,856.75
563.449,862.1
563.987,926.3
564.526,870.65
565.064,866.55
565.602,866.0
566.14,917.3
566.678,865.05
567.216,862.9
567.754,865.7
568.291,862.15
568.829,860.7
569.366,862.55
569.904,865.75
570.441,867.55
570.978,872.25
571.515,999.55
572.052,886.1
572.589,873.45
573.125,868.95
573.662,872.95
574.199,878.55
574.735,874.9
575.271,879.35
575.807,906.35
576.344,997.3
576.88,946.95
577.415,929.1
577.951,904.15
578.487,902.9
579.023,903.95
579.558,911.45
580.094,914.05
580.629,919.0
581.164,923.85
581.699,929.95
582.234,931.95
582.769,938.7
583.304,939.8
583.839,944.45
584.374,947.9
584.908,954.5
585.443,958.05
585.977,965.2
586.511,971.65
587.046,974.65
587.58,979.3
588.114,985.15
588.648,988.8
589.182,990.75
589.716,998.8
590.249,1003.3
590.783,1011.15
591.316,1012.7
591.85,1014.05
592.383,1019.5
592.917,1021.35
593.45,1027.65
593.983,1032.3
594.516,1032.0
595.049,1035.4
595.582,1040.65
596.115,1042.5
596.647,1043.1
597.18,1048.8
597.712,1050.5
598.245,1054.4
598.777,1059.9
599.31,1061.45
599.842,1062.5
600.374,1065.0
600.906,1061.5
601.438,1058.05
601.97,1054.9
602.502,1053.55
603.034,1048.05
603.565,1052.6
604.097,1042.85
604.628,1038.8
605.16,1029.85
605.691,1028.5
606.223,1015.55
606.754,1012.1
607.285,1007.9
607.816,1003.4
608.347,1000.45
608.878,996.0
609.409,990.15
609.94,987.4
610.47,985.85
611.001,980.85
611.532,977.4
612.062,972.3
612.593,973.75
613.123,973.85
613.653,969.8
614.184,967.15
614.714,965.2
615.244,963.9
615.774,960.55
616.304,957.25
616.834,960.1
617.364,959.35
617.894,958.0
618.423,956.15
618.953,959.3
619.482,958.1
620.012,953.25
620.541,955.65
621.071,958.5
621.6,967.1
622.13,994.8
622.659,986.25
623.188,960.75
623.717,950.35
624.246,951.05
624.775,948.6
625.304,949.9
625.833,961.7
626.362,988.5
626.89,1261.2
627.419,1569.15
627.948,1316.85
628.476,1604.1
629.005,1335.55
629.533,1235.9
630.061,1143.55
630.59,1115.7
631.118,1015.5
631.646,963.9
632.175,955.65
632.703,952.15
633.231,952.25
633.759,950.6
634.287,948.85
634.815,950.5
635.342,947.8
635.87,949.05
636.398,950.65
636.926,950.05
637.453,948.95
637.981,946.75
638.509,950.05
639.036,950.4
639.563,950.4
640.091,954.2
640.618,955.65
641.146,957.8
641.673,956.7
642.2,957.15
642.727,961.15
643.254,959.15
643.781,962.05
644.309,963.3
644.836,959.1
645.362,963.85
645.889,959.4
646.416,961.2
646.943,964.0
647.47,963.2
647.997,968.65
648.523,960.05
649.05,960.9
649.577,963.4
650.103,961.4
650.63,960.9
651.156,958.05
651.683,960.65
652.209,955.5
652.735,959.8
653.262,958.65
653.788,961.2
654.314,956.65
654.841,957.2
655.367,953.9
655.893,954.5
656.419,950.7
656.945,949.3
657.471,949.65
657.997,950.35
658.523,944.5
659.049,944.9
659.575,942.6
660.101,940.6
660.627,938.35
661.153,936.5
661.679,932.25
662.205,928.25
662.731,925.75
663.125,925.35

File: VLFR_02-HDPE_bio_Raman_c13566de.csv
nm,Intensity
528.635,1837.3
529.14,1838.8
529.645,1839.7
530.151,1837.8
530.656,1838.0
531.161,1839.7
531.666,1892.2
532.171,4898.3
532.676,1839.4
533.181,1839.4
533.686,1974.0
534.191,2292.1
534.696,2294.9
535.201,2242.7
535.705,2110.5
536.21,2055.1
536.715,2040.5
537.219,2027.8
537.724,2033.7
538.228,2024.6
538.733,2009.0
539.237,2004.6
539.741,1983.7
540.246,1977.6
540.75,1981.1
541.254,1975.3
541.758,1976.8
542.262,1986.2
542.766,1958.9
543.27,1980.0
543.774,1966.3
544.278,1972.5
544.781,1977.2
545.285,1971.7
545.789,1969.3
546.292,1971.9
546.796,1979.7
547.299,1978.7
547.803,1979.9
548.306,1982.3
548.809,1976.4
549.313,1980.7
549.816,1979.5
550.319,1981.6
550.822,1987.7
551.325,1994.8
551.828,1997.1
552.331,1991.6
552.834,1995.1
553.337,2016.4
553.839,2002.9
554.342,2014.8
554.845,2018.9
555.347,2018.3
555.85,2033.7
556.352,2037.9
556.854,2041.3
557.357,2078.0
557.859,2079.2
558.361,2096.9
558.863,2073.9
559.365,2067.3
559.867,2066.1
560.369,2057.9
560.871,2066.5
561.373,2070.8
561.875,2082.1
562.377,2106.2
562.878,2102.5
563.38,2139.4
563.881,2922.9
564.383,2318.4
564.884,2229.7
565.386,2198.3
565.887,2653.2
566.388,2691.6
566.889,2179.7
567.391,2280.7
567.892,2131.4
568.393,2102.4
568.893,2100.0
569.394,2106.7
569.895,2112.0
570.396,2157.2
570.897,2218.1
571.397,3393.5
571.898,2433.2
572.398,2191.4
572.899,2130.5
573.399,2126.7
573.899,2229.3
574.399,2107.0
574.9,2127.1
575.4,2815.8
575.9,2654.6
576.4,3210.8
576.899,2823.9
577.399,2480.7
577.899,2195.4
578.399,2173.4
578.898,2165.1
579.398,2140.5
579.897,2135.1
580.397,2134.4
580.896,2127.9
581.396,2123.9
581.895,2139.3
582.394,2120.3
582.893,2122.7
583.392,2122.5
583.891,2120.0
584.39,2130.8
584.889,2136.5
585.387,2136.9
585.886,2148.8
586.385,2162.3
586.883,2194.5
587.382,2196.2
587.88,2203.0
588.379,2240.0
588.877,2251.9
589.375,2262.8
589.873,2249.6
590.371,2288.8
590.869,2328.3
591.367,2315.8
591.865,2330.6
592.363,2337.7
592.86,2346.2
593.358,2359.0
593.856,2320.4
594.353,2321.7
594.851,2359.4
595.348,2322.9
595.845,2360.6
596.342,2357.7
596.84,2330.3
597.337,2355.7
597.834,2343.1
598.331,2358.8
598.827,2369.2
599.324,2387.0
599.821,2394.3
600.318,2397.0
600.814,2405.8
601.311,2426.7
601.807,2416.9
602.303,2451.8
602.8,2418.0
603.296,2432.7
603.792,2440.8
604.288,2440.8
604.784,2419.7
605.28,2428.8
605.776,2408.8
606.272,2390.0
606.767,2390.6
607.263,2361.2
607.758,2364.5
608.254,2368.9
608.749,2361.0
609.244,2372.8
609.74,2353.7
610.235,2360.6
610.73,2372.8
611.225,2377.2
611.72,2368.3
612.215,2338.4
612.709,2320.8
613.204,2341.6
613.699,2346.5
614.193,2342.5
614.688,2333.3
615.182,2333.8
615.676,2345.4
616.171,2361.3
616.665,2378.3
617.159,2399.1
617.653,2428.3
618.147,2388.5
618.641,2401.4
619.134,2397.7
619.628,2457.2
620.122,2408.9
620.615,2425.4
621.109,2466.0
621.602,2640.1
622.095,2885.7
622.588,2732.1
623.082,2482.3
623.575,2408.8
624.068,2379.5
624.56,2397.9
625.053,2402.2
625.546,2443.9
626.039,2608.2
626.531,3721.0
627.024,8902.2
627.516,7993.5
628.008,6614.2
628.501,9919.7
628.993,6075.7
629.485,5300.2
629.977,4490.2
630.469,4174.4
630.961,3190.1
631.452,2544.8
631.944,2397.1
632.436,2331.2
632.927,2302.5
633.418,2269.1
633.91,2243.1
634.401,2215.1
634.892,2207.4
635.383,2191.5
635.874,2185.1
636.365,2191.9
636.856,2139.7
637.347,2145.6
637.837,2128.9
638.328,2134.6
638.818,2119.2
639.309,2107.4
639.799,2103.0
640.289,2122.2
640.78,2110.0
641.27,2115.1
641.76,2110.0
642.249,2109.0
642.739,2109.2
643.229,2106.6
643.719,2110.7
644.208,2112.6
644.698,2103.2
645.187,2102.3
645.676,2097.2
646.165,2108.6
646.655,2093.5
647.144,2094.8
647.633,2101.6
648.121,2079.4
648.61,2079.2
649.099,2073.3
649.587,2069.1
650.076,2079.1
650.564,2080.3
651.053,2066.0
651.541,2058.0
652.029,2051.8
652.517,2072.2
653.005,2056.6
653.493,2057.5
653.981,2056.6
654.468,2056.8
654.956,2059.0
655.444,2045.5
655.931,2051.7
656.418,2049.2
656.906,2046.4
657.393,2049.1
657.88,2045.7
658.367,2029.8
658.854,2035.8
659.341,2032.9
659.827,2039.5
660.314,2022.7
660.8,2024.5
661.044,2025.6

File: VLFR_02-HDPE_bio_Raman_c79676bd.csv
nm,Intensity
526.494,834.2
527.041,834.7
527.588,834.2
528.135,833.1
528.682,834.7
529.229,834.2
529.775,835.7
530.321,835.0
530.868,833.8
531.414,834.0
531.96,850.3
532.506,836.4
533.051,834.7
533.597,834.9
534.142,854.7
534.687,857.0
535.232,854.6
535.777,853.0
536.322,849.7
536.867,850.3
537.411,849.2
537.956,850.0
538.5,850.5
539.044,852.4
539.588,851.7
540.132,849.6
540.676,849.7
541.22,848.6
541.763,849.5
542.306,850.8
542.85,849.0
543.393,848.6
543.936,851.2
544.479,851.1
545.021,854.3
545.564,853.6
546.106,851.6
546.649,852.1
547.191,850.4
547.733,851.1
548.275,851.6
548.817,852.6
549.359,849.8
549.9,853.5
550.442,853.9
550.983,856.5
551.524,852.3
552.066,851.6
552.607,850.2
553.148,850.8
553.688,851.6
554.229,849.5
554.77,853.1
555.31,851.8
555.85,851.7
556.39,851.5
556.931,851.6
557.471,853.6
558.01,852.4
558.55,852.8
559.09,852.4
559.629,853.1
560.169,851.1
560.708,854.0
561.247,853.8
561.786,854.7
562.325,857.9
562.864,876.8
563.403,878.1
563.941,859.4
564.48,855.8
565.018,856.5
565.557,854.5
566.095,864.9
566.633,858.2
567.171,854.8
567.709,858.2
568.247,858.2
568.784,856.6
569.322,853.8
569.859,856.0
570.397,857.5
570.934,857.9
571.471,863.1
572.008,855.9
572.545,856.4
573.082,857.5
573.619,855.9
574.155,858.2
574.692,856.3
575.228,858.8
575.765,862.8
576.301,865.2
576.837,863.4
577.373,863.1
577.909,860.0
578.445,857.4
578.981,859.1
579.516,859.7
580.052,859.9
580.587,859.6
581.123,862.7
581.658,860.4
582.193,860.3
582.728,860.6
583.263,860.6
583.798,863.0
584.333,862.5
584.868,863.0
585.402,863.7
585.937,862.7
586.471,862.2
587.005,866.9
587.54,864.0
588.074,868.5
588.608,865.6
589.142,864.5
589.676,865.7
590.21,866.4
590.743,867.6
591.277,865.7
591.81,869.5
592.344,868.8
592.877,868.3
593.411,869.5
593.944,869.3
594.477,869.0
595.01,869.0
595.543,870.2
596.076,872.4
596.608,870.5
597.141,872.4
597.674,870.5
598.206,873.5
598.739,874.5
599.271,874.9
599.803,872.7
600.335,875.1
600.868,874.2
601.4,873.8
601.931,877.0
602.463,877.2
602.995,875.5
603.527,875.5
604.058,874.6
604.59,874.3
605.121,872.2
605.653,872.7
606.184,873.1
606.715,871.8
607.246,872.2
607.778,868.9
608.309,870.6
608.839,875.6
609.37,869.9
609.901,872.8
610.432,868.0
610.962,872.0
611.493,872.6
612.023,869.0
612.554,870.0
613.084,871.6
613.614,870.8
614.145,871.2
614.675,871.3
615.205,873.5
615.735,872.2
616.265,872.4
616.795,867.5
617.324,871.5
617.854,870.4
618.384,871.3
618.913,870.4
619.443,870.9
619.972,870.3
620.502,867.6
621.031,870.3
621.56,868.9
622.089,870.0
622.618,872.6
623.147,871.3
623.676,871.3
624.205,871.7
624.734,869.8
625.263,871.9
625.792,868.1
626.32,870.2
626.849,891.5
627.377,922.6
627.906,899.3
628.434,916.1
628.963,898.8
629.491,894.3
630.019,888.3
630.547,884.2
631.076,875.8
631.604,870.7
632.132,868.0
632.66,870.2
633.188,869.8
633.715,866.7
634.243,865.9
634.771,866.0
635.299,864.5
635.826,868.2
636.354,868.6
636.881,867.1
637.409,868.0
637.936,865.6
638.464,870.3
638.991,867.6
639.518,868.0
640.045,866.3
640.573,869.4
641.1,868.4
641.627,869.6
642.154,868.1
642.681,868.8
643.208,871.0
643.735,869.9
644.261,872.6
644.788,871.0
645.315,868.9
645.842,868.5
646.368,870.6
646.895,871.4
647.421,870.7
647.948,871.8
648.474,870.8
649.001,873.0
649.527,871.4
650.054,874.8
650.58,870.7
651.106,873.1
651.633,871.3
652.159,870.2
652.685,873.0
653.211,872.9
653.737,871.4
654.263,868.8
654.789,868.9
655.315,868.4
655.841,868.4
656.367,865.5
656.893,867.5
657.419,866.5
657.945,866.0
658.47,865.9
658.996,867.0
659.522,864.0
660.047,864.9
660.573,863.3
661.099,862.0
661.624,864.0
662.15,862.6
662.675,861.8
663.07,860.8

File: VLFR_02-HDPE_bio_Raman_ca9d868c.csv
nm,Intensity
526.549,832.65
527.096,831.9
527.643,832.2
528.19,831.6
528.737,831.65
529.283,831.55
529.83,832.2
530.376,831.3
530.922,831.95
531.468,830.9
532.014,840.45
532.559,832.45
533.105,832.45
533.65,835.35
534.196,1200.4
534.741,1214.8
535.286,1202.1
535.83,1221.1
536.375,1234.55
536.92,1225.4
537.464,1229.65
538.008,1240.5
538.553,1250.25
539.097,1249.3
539.641,1257.95
540.184,1269.05
540.728,1276.0
541.271,1279.75
541.815,1287.9
542.358,1297.2
542.901,1307.6
543.444,1313.25
543.987,1323.15
544.53,1335.2
545.072,1337.95
545.615,1344.9
546.157,1354.4
546.699,1364.0
547.242,1367.35
547.784,1374.0
548.325,1379.15
548.867,1383.8
549.409,1399.45
549.95,1408.9
550.492,1404.0
551.033,1408.9
551.574,1425.05
552.115,1432.9
552.656,1429.85
553.197,1436.25
553.737,1446.15
554.278,1451.3
554.818,1455.5
555.358,1454.05
555.899,1458.95
556.439,1463.85
556.979,1468.45
557.518,1471.15
558.058,1470.3
558.598,1475.85
559.137,1468.6
559.677,1492.1
560.216,1500.2
560.755,1499.5
561.294,1499.9
561.833,1496.55
562.372,1503.3
562.91,1522.2
563.449,1522.85
563.987,1535.7
564.526,1539.5
565.064,1550.95
565.602,1557.35
566.14,1552.65
566.678,1549.2
567.216,1546.15
567.754,1551.4
568.291,1560.5
568.829,1579.85
569.366,1594.3
569.904,1592.2
570.441,1596.75
570.978,1591.85
571.515,1591.15
572.052,1599.25
572.589,1611.95
573.125,1633.6
573.662,1624.1
574.199,1629.05
574.735,1634.35
575.271,1637.6
575.807,1634.35
576.344,1646.65
576.88,1644.85
577.415,1654.45
577.951,1654.55
578.487,1657.7
579.023,1675.5
579.558,1664.75
580.094,1667.35
580.629,1658.95
581.164,1673.0
581.699,1690.85
582.234,1678.4
582.769,1679.85
583.304,1672.7
583.839,1675.75
584.374,1680.75
584.908,1668.0
585.443,1675.35
585.977,1683.55
586.511,1690.35
587.046,1690.65
587.58,1692.85
588.114,1690.2
588.648,1688.7
589.182,1686.4
589.716,1681.3
590.249,1677.85
590.783,1683.3
591.316,1691.0
591.85,1679.2
592.383,1683.1
592.917,1674.55
593.45,1682.8
593.983,1683.85
594.516,1683.2
595.049,1688.55
595.582,1690.2
596.115,1688.5
596.647,1684.9
597.18,1685.55
597.712,1688.75
598.245,1693.0
598.777,1695.85
599.31,1701.8
599.842,1692.35
600.374,1697.55
600.906,1683.6
601.438,1680.8
601.97,1677.35
602.502,1677.2
603.034,1680.45
603.565,1678.55
604.097,1679.7
604.628,1664.3
605.16,1662.5
605.691,1653.55
606.223,1641.85
606.754,1659.25
607.285,1653.2
607.816,1660.05
608.347,1652.75
608.878,1657.4
609.409,1656.75
609.94,1652.05
610.47,1645.9
611.001,1650.7
611.532,1648.05
612.062,1659.65
612.593,1670.6
613.123,1668.3
613.653,1678.65
614.184,1674.3
614.714,1677.05
615.244,1667.9
615.774,1669.0
616.304,1659.55
616.834,1661.8
617.364,1665.8
617.894,1662.85
618.423,1662.15
618.953,1667.4
619.482,1657.85
620.012,1654.95
620.541,1649.45
621.071,1653.1
621.6,1641.7
622.13,1644.15
622.659,1652.0
623.188,1657.85
623.717,1649.45
624.246,1654.9
624.775,1650.25
625.304,1655.05
625.833,1651.0
626.362,1656.3
626.89,1650.3
627.419,1649.95
627.948,1651.35
628.476,1649.8
629.005,1649.65
629.533,1648.65
630.061,1651.05
630.59,1650.45
631.118,1644.85
631.646,1641.6
632.175,1624.9
632.703,1632.15
633.231,1620.7
633.759,1612.6
634.287,1605.15
634.815,1603.65
635.342,1604.2
635.87,1602.6
636.398,1600.0
636.926,1601.0
637.453,1594.85
637.981,1586.8
638.509,1590.15
639.036,1584.55
639.563,1581.95
640.091,1583.75
640.618,1581.75
641.146,1574.55
641.673,1582.95
642.2,1575.3
642.727,1566.7
643.254,1560.8
643.781,1551.9
644.309,1551.8
644.836,1551.3
645.362,1549.8
645.889,1548.45
646.416,1540.3
646.943,1543.7
647.47,1536.55
647.997,1539.5
648.523,1540.0
649.05,1531.4
649.577,1519.9
650.103,1525.1
650.63,1514.95
651.156,1514.35
651.683,1512.25
652.209,1516.0
652.735,1509.75
653.262,1511.15
653.788,1509.2
654.314,1510.9
654.841,1509.4
655.367,1509.75
655.893,1508.2
656.419,1502.4
656.945,1507.7
657.471,1500.35
657.997,1494.8
658.523,1493.15
659.049,1487.0
659.575,1493.2
660.101,1494.85
660.627,1490.25
661.153,1480.3
661.679,1460.05
662.205,1468.2
662.731,1463.25
663.125,1454.5

File: VLFR_02-HDPE_bio_Raman_cacb2da0.csv
nm,Intensity
526.495,829.95
527.042,829.4
527.589,829.3
528.136,829.3
528.682,829.1
529.229,828.1
529.775,828.9
530.321,828.5
530.867,828.55
531.413,829.25
531.959,832.3
532.505,829.8
533.051,829.3
533.596,829.45
534.141,877.0
534.687,871.85
535.232,865.65
535.777,861.45
536.321,857.05
536.866,854.75
537.41,855.6
537.955,853.15
538.499,851.0
539.043,850.6
539.587,849.6
540.131,849.2
540.675,847.5
541.219,847.1
541.762,846.4
542.305,846.25
542.849,846.7
543.392,845.7
543.935,845.4
544.478,845.15
545.02,843.0
545.563,844.55
546.106,844.55
546.648,843.7
547.19,844.95
547.732,843.4
548.274,841.75
548.816,842.1
549.358,842.8
549.9,842.0
550.441,841.85
550.983,841.25
551.524,842.55
552.065,842.0
552.606,841.85
553.147,843.35
553.688,844.0
554.229,843.65
554.769,844.5
555.31,845.55
555.85,845.45
556.391,847.4
556.931,848.1
557.471,848.05
558.011,850.4
558.551,850.85
559.09,849.2
559.63,850.3
560.169,848.9
560.709,851.05
561.248,851.4
561.787,852.15
562.326,853.0
562.865,854.3
563.404,857.75
563.943,886.3
564.481,867.5
565.02,864.8
565.558,863.1
566.096,901.35
566.634,866.7
567.172,863.15
567.71,863.1
568.248,861.8
568.786,862.85
569.324,866.75
569.861,868.6
570.399,870.45
570.936,877.55
571.473,920.5
572.01,891.1
572.547,880.15
573.084,882.05
573.621,882.5
574.158,890.6
574.694,892.05
575.231,900.8
575.767,922.1
576.303,960.6
576.84,944.2
577.376,934.25
577.912,930.9
578.448,936.35
578.984,946.35
579.519,954.5
580.055,962.65
580.59,971.85
581.126,975.85
581.661,986.55
582.196,989.5
582.731,1001.95
583.267,1006.0
583.801,1015.6
584.336,1025.9
584.871,1027.6
585.406,1036.65
585.94,1048.35
586.475,1061.45
587.009,1069.7
587.543,1082.1
588.078,1088.95
588.612,1098.15
589.146,1109.45
589.68,1124.75
590.214,1137.15
590.747,1145.25
591.281,1159.05
591.815,1167.3
592.348,1173.6
592.881,1183.15
593.415,1179.75
593.948,1194.4
594.481,1198.85
595.014,1207.7
595.547,1212.05
596.08,1230.3
596.613,1239.5
597.146,1249.95
597.678,1263.55
598.211,1272.3
598.743,1284.35
599.276,1292.0
599.808,1293.05
600.34,1300.95
600.872,1295.8
601.404,1293.5
601.936,1292.45
602.468,1285.25
603.0,1265.9
603.532,1259.1
604.064,1240.35
604.595,1220.85
605.127,1205.55
605.658,1180.75
606.189,1160.5
606.721,1151.1
607.252,1138.5
607.783,1126.85
608.314,1119.05
608.845,1110.6
609.376,1098.75
609.907,1092.8
610.438,1083.95
610.968,1074.35
611.499,1072.05
612.029,1068.1
612.56,1063.7
613.09,1055.9
613.621,1052.1
614.151,1047.2
614.681,1043.3
615.211,1033.3
615.741,1027.15
616.271,1027.05
616.801,1022.2
617.331,1018.15
617.861,1016.95
618.39,1012.65
618.92,1008.2
619.45,1004.3
619.979,1004.05
620.509,1001.05
621.038,1003.45
621.567,1000.9
622.096,1009.75
622.626,1005.4
623.155,997.05
623.684,991.3
624.213,991.55
624.742,988.95
625.271,988.6
625.799,984.9
626.328,1001.35
626.857,1076.75
627.386,1250.0
627.914,1152.1
628.443,1222.1
628.971,1180.6
629.5,1141.0
630.028,1098.65
630.556,1090.45
631.084,1041.45
631.613,1011.7
632.141,998.3
632.669,994.9
633.197,990.6
633.725,992.35
634.253,993.5
634.781,991.6
635.308,995.6
635.836,993.0
636.364,992.95
636.891,997.25
637.419,999.2
637.947,997.95
638.474,1000.1
639.002,1000.1
639.529,1002.8
640.056,1005.75
640.584,1007.75
641.111,1010.15
641.638,1010.4
642.165,1013.8
642.692,1016.85
643.219,1016.2
643.746,1014.65
644.273,1013.25
644.8,1018.65
645.327,1018.75
645.854,1019.8
646.381,1019.85
646.908,1021.25
647.434,1023.6
647.961,1019.1
648.488,1019.7
649.014,1022.65
649.541,1018.65
650.067,1020.85
650.594,1021.05
651.12,1017.35
651.646,1022.55
652.173,1022.45
652.699,1023.95
653.225,1022.55
653.752,1025.45
654.278,1023.45
654.804,1019.8
655.33,1017.65
655.856,1015.55
656.382,1010.95
656.908,1010.5
657.434,1004.75
657.96,1001.95
658.486,996.25
659.012,994.9
659.538,987.35
660.064,981.15
660.589,971.6
661.115,970.85
661.641,967.0
662.166,959.7
662.692,953.25
663.086,948.75

File: VLFR_02-HDPE_bio_Raman_cb08cfa3.csv
nm,Intensity
528.626,1862.8
529.132,1863.4
529.637,1864.1
530.143,1862.0
530.648,1863.9
531.153,1865.3
531.658,1885.8
532.164,3143.4
532.669,1865.9
533.174,1864.1
533.679,1943.8
534.184,2241.8
534.689,2235.3
535.194,2256.5
535.699,2252.6
536.203,2230.8
536.708,2211.1
537.213,2215.5
537.717,2241.9
538.222,2226.7
538.726,2230.3
539.231,2224.8
539.735,2225.7
540.239,2228.6
540.744,2233.0
541.248,2247.4
541.752,2255.3
542.256,2249.5
542.76,2258.2
543.264,2240.5
543.768,2268.2
544.272,2277.5
544.776,2256.8
545.28,2281.3
545.784,2279.0
546.287,2271.5
546.791,2283.4
547.294,2281.6
547.798,2283.3
548.301,2280.0
548.805,2287.6
549.308,2303.4
549.811,2297.4
550.315,2286.5
550.818,2306.1
551.321,2306.4
551.824,2335.9
552.327,2325.8
552.83,2309.0
553.333,2329.6
553.835,2344.5
554.338,2335.2
554.841,2363.8
555.343,2347.6
555.846,2357.8
556.349,2370.8
556.851,2362.4
557.353,2376.4
557.856,2412.6
558.358,2397.9
558.86,2382.1
559.362,2417.7
559.864,2409.5
560.366,2403.0
560.868,2438.5
561.37,2437.8
561.872,2438.8
562.374,2459.2
562.876,2482.4
563.377,2487.5
563.879,2653.1
564.38,2565.2
564.882,2541.0
565.383,2533.0
565.885,2629.2
566.386,2671.0
566.887,2506.9
567.388,2534.4
567.889,2526.0
568.391,2513.0
568.892,2501.2
569.392,2536.2
569.893,2537.8
570.394,2557.2
570.895,2560.1
571.395,2883.6
571.896,2682.4
572.397,2605.7
572.897,2590.7
573.397,2611.4
573.898,2616.0
574.398,2588.2
574.898,2661.4
575.398,2740.3
575.898,2783.6
576.398,2980.2
576.898,2934.1
577.398,2819.6
577.898,2783.6
578.398,2750.1
578.897,2815.9
579.397,2859.5
579.896,2871.7
580.396,2916.2
580.895,2956.1
581.395,3001.6
581.894,3065.9
582.393,3098.2
582.892,3087.4
583.391,3113.9
583.89,3185.7
584.389,3255.7
584.888,3293.1
585.387,3323.2
585.886,3328.9
586.384,3432.1
586.883,3474.5
587.381,3487.9
587.88,3577.0
588.378,3651.1
588.876,3671.4
589.375,3673.2
589.873,3746.6
590.371,3854.7
590.869,3938.3
591.367,4001.9
591.865,4040.8
592.363,4102.5
592.86,4161.2
593.358,4169.7
593.856,4148.6
594.353,4227.3
594.851,4317.5
595.348,4355.6
595.845,4445.7
596.342,4478.3
596.84,4540.4
597.337,4563.7
597.834,4657.6
598.331,4700.0
598.828,4656.9
599.324,4749.4
599.821,4808.1
600.318,4792.8
600.814,4877.8
601.311,4847.3
601.807,4815.4
602.304,4797.6
602.8,4749.7
603.296,4779.6
603.792,4729.6
604.288,4614.3
604.784,4649.0
605.28,4606.9
605.776,4539.5
606.272,4459.7
606.767,4382.6
607.263,4317.9
607.759,4302.4
608.254,4218.8
608.749,4240.7
609.245,4139.9
609.74,4130.2
610.235,4072.4
610.73,4108.6
611.225,4026.4
611.72,3998.0
612.215,3916.1
612.71,3812.0
613.204,3825.7
613.699,3835.5
614.194,3790.9
614.688,3787.3
615.182,3748.6
615.677,3689.5
616.171,3703.7
616.665,3630.5
617.159,3598.0
617.653,3581.2
618.147,3578.3
618.641,3485.5
619.135,3438.6
619.628,3486.8
620.122,3457.1
620.615,3426.3
621.109,3442.7
621.602,3453.2
622.095,3443.3
622.589,3406.7
623.082,3301.4
623.575,3293.7
624.068,3275.9
624.561,3224.7
625.053,3269.9
625.546,3230.3
626.039,3256.0
626.531,3410.2
627.024,4423.6
627.516,4314.7
628.008,4014.5
628.501,4721.4
628.993,4000.2
629.485,3840.0
629.977,3570.6
630.469,3516.1
630.96,3282.0
631.452,3134.2
631.944,3069.7
632.435,3092.6
632.927,3064.0
633.418,3047.0
633.91,2993.9
634.401,3012.5
634.892,3031.8
635.383,3009.8
635.874,3020.7
636.365,3031.8
636.856,3009.2
637.346,3007.3
637.837,3026.5
638.327,3007.1
638.818,3005.4
639.308,3000.5
639.799,3028.9
640.289,3009.3
640.779,2982.2
641.269,3027.1
641.759,2977.7
642.249,3001.0
642.738,3017.0
643.228,2970.4
643.718,2992.4
644.207,3036.4
644.697,2954.7
645.186,3019.1
645.675,2999.3
646.164,3009.0
646.653,2984.1
647.142,2974.3
647.631,2942.3
648.12,2972.6
648.609,2951.8
649.098,2953.7
649.586,2939.9
650.075,2940.8
650.563,2945.0
651.051,2938.9
651.539,2875.2
652.027,2905.9
652.515,2899.7
653.003,2918.2
653.491,2877.2
653.979,2888.0
654.467,2829.7
654.954,2849.5
655.442,2835.0
655.929,2812.7
656.416,2773.1
656.904,2768.0
657.391,2731.8
657.878,2750.6
658.365,2717.2
658.851,2720.1
659.338,2670.4
659.825,2673.2
660.311,2684.1
660.798,2601.5
661.041,2628.8