Folder: MPX_specDB/spectra (part 84)

File: VLFR_06-PET_nobio_Raman_7f616568.csv
nm,Intensity
526.5,829.4
527.047,828.5
527.594,828.1
528.14,827.0
528.687,828.5
529.233,828.0
529.779,829.0
530.325,829.3
530.871,829.5
531.417,829.1
531.962,829.8
532.508,829.3
533.053,829.6
533.599,840.2
534.144,2400.3
534.689,1954.0
535.234,1519.0
535.778,1242.5
536.323,1086.3
536.867,1021.4
537.412,991.7
537.956,976.5
538.5,986.0
539.044,976.8
539.588,999.7
540.132,1005.8
540.675,957.5
541.219,940.2
541.762,933.7
542.305,933.1
542.848,933.0
543.391,931.7
543.934,945.7
544.477,937.9
545.02,945.1
545.562,941.4
546.105,945.7
546.647,951.2
547.189,948.2
547.731,953.2
548.273,949.0
548.815,950.6
549.356,953.6
549.898,956.8
550.439,972.6
550.981,989.0
551.522,972.6
552.063,972.6
552.604,980.0
553.145,1009.3
553.686,981.5
554.226,979.6
554.767,985.2
555.307,1002.4
555.848,1066.0
556.388,1072.0
556.928,1088.0
557.468,1257.8
558.008,1120.6
558.547,1116.7
559.087,1053.6
559.626,1018.8
560.166,1014.7
560.705,1017.8
561.244,1033.6
561.783,1035.8
562.322,1053.5
562.861,1069.7
563.4,1073.0
563.939,1060.6
564.477,1065.9
565.015,1130.0
565.554,1206.2
566.092,1218.1
566.63,1097.0
567.168,1073.1
567.706,1190.5
568.244,1090.4
568.781,1076.1
569.319,1093.5
569.857,1123.0
570.394,1183.2
570.931,1348.4
571.468,1505.9
572.005,1300.0
572.542,1162.1
573.079,1130.2
573.616,1126.1
574.153,1163.7
574.689,1139.9
575.226,1184.2
575.762,1151.4
576.298,1184.1
576.834,1202.5
577.371,1170.4
577.907,1147.5
578.442,1155.0
578.978,1148.6
579.514,1161.7
580.049,1161.9
580.585,1182.7
581.12,1200.8
581.656,1298.0
582.191,2805.8
582.726,1266.9
583.261,1209.8
583.796,1202.2
584.331,1210.2
584.865,1229.1
585.4,1360.9
585.935,2035.5
586.469,1720.0
587.004,1292.4
587.538,1237.0
588.072,1224.6
588.606,1224.2
589.14,1209.1
589.674,1209.9
590.208,1222.5
590.742,1211.6
591.275,1220.0
591.809,1221.4
592.342,1231.9
592.876,1217.3
593.409,1222.8
593.942,1224.0
594.476,1232.9
595.009,1234.8
595.542,1238.1
596.075,1240.0
596.607,1245.1
597.14,1245.8
597.673,1243.5
598.205,1260.6
598.738,1248.0
599.27,1254.4
599.803,1252.5
600.335,1258.4
600.867,1254.5
601.399,1246.1
601.931,1246.9
602.463,1253.9
602.995,1261.3
603.527,1259.6
604.058,1267.0
604.59,1260.7
605.122,1258.5
605.653,1252.9
606.184,1257.9
606.716,1256.4
607.247,1258.3
607.778,1258.8
608.309,1266.4
608.84,1266.2
609.371,1263.4
609.902,1267.7
610.433,1268.9
610.964,1268.6
611.494,1264.6
612.025,1278.0
612.556,1276.5
613.086,1291.9
613.616,1301.2
614.147,1302.1
614.677,1299.4
615.207,1291.2
615.737,1294.4
616.267,1306.1
616.797,1304.7
617.327,1316.2
617.857,1321.4
618.387,1325.0
618.917,1325.2
619.446,1307.5
619.976,1318.8
620.505,1323.2
621.035,1316.4
621.564,1313.8
622.093,1317.0
622.623,1337.1
623.152,1333.1
623.681,1338.5
624.21,1348.5
624.739,1355.2
625.268,1365.8
625.797,1353.5
626.326,1363.3
626.855,1359.3
627.383,1364.2
627.912,1374.8
628.441,1397.6
628.969,1418.9
629.498,1423.9
630.026,1425.0
630.554,1425.2
631.083,1500.0
631.611,1676.3
632.139,1666.3
632.667,1557.9
633.195,1535.1
633.724,1524.0
634.252,1484.8
634.779,1461.5
635.307,1475.5
635.835,1559.7
636.363,1709.8
636.891,1731.0
637.418,1541.2
637.946,1507.3
638.474,1489.1
639.001,1503.0
639.529,1503.8
640.056,1503.5
640.583,1494.8
641.111,1508.2
641.638,1527.2
642.165,1532.4
642.692,1544.9
643.22,1529.0
643.747,1519.1
644.274,1521.8
644.801,1528.2
645.328,1528.6
645.854,1542.9
646.381,1538.3
646.908,1550.7
647.435,1555.2
647.962,1559.4
648.488,1555.2
649.015,1551.0
649.542,1550.4
650.068,1557.3
650.595,1567.4
651.121,1564.5
651.648,1563.2
652.174,1559.8
652.7,1567.4
653.227,1562.6
653.753,1575.7
654.279,1580.5
654.805,1576.3
655.331,1573.4
655.858,1583.7
656.384,1583.0
656.91,1587.4
657.436,1581.2
657.962,1585.0
658.488,1584.6
659.013,1593.3
659.539,1593.9
660.065,1603.7
660.591,1581.3
661.117,1589.2
661.642,1577.8
662.168,1578.8
662.694,1581.2
663.088,1569.5

File: VLFR_06-PET_nobio_Raman_8e9b2948.csv
nm,Intensity
526.5,829.5
527.047,829.5
527.594,829.2
528.14,829.2
528.687,828.8
529.233,830.4
529.779,829.3
530.325,828.3
530.871,830.0
531.417,829.6
531.962,836.8
532.508,831.0
533.053,828.6
533.599,836.5
534.144,1511.1
534.689,1317.4
535.234,1139.6
535.778,1032.6
536.323,967.4
536.867,936.6
537.412,928.6
537.956,923.8
538.5,926.8
539.044,928.1
539.588,937.1
540.132,938.7
540.675,918.7
541.219,914.5
541.762,909.9
542.305,912.4
542.848,915.6
543.391,916.3
543.934,921.4
544.477,918.7
545.02,918.7
545.562,922.6
546.105,920.9
546.647,923.8
547.189,924.2
547.731,924.5
548.273,924.4
548.815,928.2
549.356,928.3
549.898,933.0
550.439,936.3
550.981,944.2
551.522,933.6
552.063,935.8
552.604,945.2
553.145,953.5
553.686,941.7
554.226,947.1
554.767,945.8
555.307,956.0
555.848,978.0
556.388,979.5
556.928,985.8
557.468,1068.5
558.008,1004.4
558.547,999.2
559.087,975.8
559.626,961.5
560.166,964.2
560.705,969.7
561.244,971.5
561.783,972.5
562.322,978.7
562.861,989.7
563.4,996.6
563.939,986.5
564.477,992.6
565.015,1018.5
565.554,1054.7
566.092,1056.7
566.63,1012.6
567.168,996.5
567.706,1037.8
568.244,1003.9
568.781,1009.1
569.319,1011.2
569.857,1024.8
570.394,1046.7
570.931,1118.2
571.468,1180.3
572.005,1088.5
572.542,1040.1
573.079,1028.1
573.616,1031.4
574.153,1049.4
574.689,1042.8
575.226,1061.2
575.762,1044.1
576.298,1064.0
576.834,1071.7
577.371,1052.2
577.907,1050.9
578.442,1053.3
578.978,1058.9
579.514,1057.2
580.049,1066.4
580.585,1070.2
581.12,1085.0
581.656,1126.4
582.191,1748.6
582.726,1110.6
583.261,1088.3
583.796,1087.1
584.331,1090.2
584.865,1097.9
585.4,1154.9
585.935,1428.4
586.469,1291.9
587.004,1126.7
587.538,1107.8
588.072,1099.2
588.606,1105.7
589.14,1100.0
589.674,1098.8
590.208,1102.1
590.742,1103.3
591.275,1107.9
591.809,1114.6
592.342,1107.1
592.876,1110.0
593.409,1116.7
593.942,1109.5
594.476,1118.4
595.009,1115.3
595.542,1125.6
596.075,1119.4
596.607,1116.8
597.14,1124.7
597.673,1128.8
598.205,1128.5
598.738,1132.5
599.27,1130.8
599.803,1134.5
600.335,1127.8
600.867,1133.8
601.399,1136.1
601.931,1134.0
602.463,1137.5
602.995,1143.6
603.527,1143.0
604.058,1137.4
604.59,1142.2
605.122,1142.4
605.653,1135.6
606.184,1134.0
606.716,1137.9
607.247,1139.6
607.778,1144.7
608.309,1144.7
608.84,1135.1
609.371,1144.2
609.902,1142.5
610.433,1135.9
610.964,1144.9
611.494,1148.6
612.025,1149.2
612.556,1151.1
613.086,1158.9
613.616,1162.1
614.147,1161.4
614.677,1159.9
615.207,1165.2
615.737,1158.8
616.267,1165.8
616.797,1163.7
617.327,1168.6
617.857,1174.6
618.387,1172.3
618.917,1177.0
619.446,1171.1
619.976,1165.7
620.505,1171.3
621.035,1170.5
621.564,1171.9
622.093,1178.9
622.623,1180.2
623.152,1183.6
623.681,1188.2
624.21,1195.5
624.739,1203.5
625.268,1194.9
625.797,1194.2
626.326,1198.0
626.855,1203.7
627.383,1207.0
627.912,1209.7
628.441,1219.6
628.969,1238.5
629.498,1232.4
630.026,1227.8
630.554,1240.6
631.083,1273.0
631.611,1330.7
632.139,1316.7
632.667,1290.1
633.195,1288.3
633.724,1276.0
634.252,1253.8
634.779,1262.2
635.307,1266.6
635.835,1294.4
636.363,1362.8
636.891,1353.1
637.418,1294.4
637.946,1279.5
638.474,1272.2
639.001,1271.0
639.529,1281.3
640.056,1289.1
640.583,1284.3
641.111,1285.5
641.638,1288.8
642.165,1299.1
642.692,1295.5
643.22,1294.5
643.747,1289.9
644.274,1291.5
644.801,1291.4
645.328,1291.2
645.854,1297.2
646.381,1293.4
646.908,1301.5
647.435,1302.3
647.962,1301.6
648.488,1305.4
649.015,1303.0
649.542,1297.5
650.068,1298.4
650.595,1300.8
651.121,1306.0
651.648,1298.4
652.174,1299.3
652.7,1310.0
653.227,1307.5
653.753,1311.5
654.279,1314.2
654.805,1302.7
655.331,1308.6
655.858,1303.2
656.384,1303.8
656.91,1310.3
657.436,1314.5
657.962,1314.4
658.488,1312.4
659.013,1305.1
659.539,1305.2
660.065,1307.1
660.591,1308.5
661.117,1307.8
661.642,1297.1
662.168,1297.3
662.694,1299.5
663.088,1302.0

File: VLFR_06-PET_nobio_Raman_8e3653e8.csv
cm-1,Intensity
-123.878,1854.0
-105.821,1852.5
-87.8007,1852.45
-69.8161,1853.1
-51.8675,1853.7
-33.9547,1855.7
-16.0776,1885.25
1.76388,3560.35
19.5698,1856.8
37.3403,1858.25
55.0755,2586.4
72.7754,4233.75
90.4402,3686.85
108.07,3234.95
125.665,2890.7
143.225,2678.45
160.75,2600.25
178.241,2589.45
195.697,2596.75
213.119,2605.8
230.506,2629.55
247.859,2650.0
265.178,2699.1
282.463,2672.9
299.713,2622.15
316.93,2622.1
334.113,2613.45
351.263,2622.85
368.379,2652.4
385.461,2650.55
402.51,2651.5
419.526,2654.15
436.508,2695.25
453.458,2693.35
470.374,2711.7
487.257,2715.9
504.107,2755.25
520.925,2749.9
537.71,2757.45
554.462,2781.75
571.182,2803.05
587.87,2775.7
604.525,2811.75
621.148,2833.0
637.739,3008.75
654.297,2825.4
670.824,2879.7
687.319,2864.15
703.782,2996.6
720.213,2869.35
736.613,2886.6
752.981,2878.05
769.317,2898.9
785.623,2986.25
801.897,3063.6
818.139,3053.1
834.351,3127.7
850.532,3435.05
866.681,3264.75
882.8,3188.5
898.888,3110.6
914.945,2994.6
930.972,2984.7
946.968,3047.65
962.934,3073.55
978.869,3081.7
994.774,3124.35
1010.65,3167.9
1026.49,3201.5
1042.31,3245.25
1058.09,3197.75
1073.85,3254.45
1089.57,3401.7
1105.27,3541.45
1120.93,3671.65
1136.57,3445.75
1152.18,3358.55
1167.75,3501.4
1183.3,3522.05
1198.82,3400.75
1214.31,3463.7
1229.77,3477.85
1245.2,3578.25
1260.6,3774.35
1275.97,4265.25
1291.32,4508.05
1306.63,4066.5
1321.92,3791.1
1337.18,3672.15
1352.41,3717.6
1367.61,3753.15
1382.78,3707.0
1397.93,3796.9
1413.05,3917.9
1428.14,3825.4
1443.2,3965.55
1458.23,3942.65
1473.23,3887.1
1488.21,3873.4
1503.16,3917.7
1518.08,3916.95
1532.97,3935.45
1547.84,3893.95
1562.68,4006.3
1577.49,4063.05
1592.27,4165.8
1607.03,5835.75
1621.76,5493.35
1636.46,4121.15
1651.14,4051.5
1665.78,4119.05
1680.41,4128.3
1695.0,4139.75
1709.57,4618.5
1724.11,6067.3
1738.62,5288.75
1753.11,4290.5
1767.57,4152.0
1782.01,4170.8
1796.41,4172.45
1810.8,4176.15
1825.15,4083.5
1839.48,4176.5
1853.79,4185.1
1868.06,4119.25
1882.31,4199.05
1896.54,4206.3
1910.74,4138.6
1924.91,4204.4
1939.06,4208.05
1953.19,4181.0
1967.28,4269.8
1981.35,4214.65
1995.4,4212.8
2009.42,4257.55
2023.42,4328.6
2037.39,4267.5
2051.33,4213.2
2065.25,4294.4
2079.15,4322.8
2093.01,4332.65
2106.86,4281.15
2120.68,4393.1
2134.47,4326.8
2148.24,4365.5
2161.99,4376.35
2175.71,4301.95
2189.41,4431.2
2203.08,4340.4
2216.73,4436.5
2230.35,4329.95
2243.95,4432.15
2257.52,4401.9
2271.07,4423.3
2284.6,4407.3
2298.1,4436.45
2311.58,4426.5
2325.03,4467.65
2338.46,4445.95
2351.87,4438.05
2365.25,4482.6
2378.61,4479.45
2391.94,4476.0
2405.26,4519.65
2418.54,4436.5
2431.81,4548.35
2445.05,4545.05
2458.27,4522.3
2471.46,4486.6
2484.63,4453.15
2497.78,4577.05
2510.9,4654.9
2524.0,4563.9
2537.08,4592.7
2550.14,4489.3
2563.17,4582.5
2576.18,4525.95
2589.17,4562.0
2602.13,4602.3
2615.07,4718.65
2627.99,4686.9
2640.89,4574.75
2653.76,4708.5
2666.61,4625.9
2679.44,4672.65
2692.25,4727.95
2705.03,4648.15
2717.79,4704.4
2730.53,4681.7
2743.25,4685.25
2755.94,4793.95
2768.61,4743.9
2781.27,4714.6
2793.89,4830.1
2806.5,4827.3
2819.09,4810.45
2831.65,4826.6
2844.19,4880.25
2856.71,4977.1
2869.21,4873.55
2881.69,4877.3
2894.14,4984.45
2906.58,5096.95
2918.99,5046.4
2931.38,5081.4
2943.75,5268.5
2956.1,5884.65
2968.42,5884.05
2980.73,5594.55
2993.01,5316.75
3005.28,5539.9
3017.52,5301.95
3029.74,5285.45
3041.94,5321.35
3054.12,5343.0
3066.28,5661.25
3078.42,6204.05
3090.54,5978.15
3102.63,5315.9
3114.71,5225.55
3126.77,5239.55
3138.8,5331.6
3150.82,5252.3
3162.81,5264.85
3174.78,5318.75
3186.74,5242.7
3198.67,5169.85
3210.58,5291.35
3222.47,5363.7
3234.35,5309.35
3246.2,5154.75
3258.03,5293.55
3269.84,5358.35
3281.64,5281.7
3293.41,5173.2
3305.16,5198.25
3316.89,5230.8
3328.61,5212.45
3340.3,5182.65
3351.97,5272.45
3363.63,5308.7
3375.26,5228.4
3386.88,5139.7
3398.47,5243.7
3410.05,5098.85
3421.6,5174.35
3433.14,5066.5
3444.66,5071.0
3456.15,5157.85
3467.63,5151.75
3479.09,4986.45
3490.53,5018.1
3501.96,5015.7
3513.36,5064.05
3524.74,5033.55
3536.11,4990.35
3547.45,4854.75
3558.78,4904.7
3570.09,4838.05
3581.37,4906.95
3592.64,4833.55
3603.9,4860.7
3615.13,4728.6
3626.34,4714.15
3637.54,4684.2
3648.72,4671.15
3659.87,4685.55
3665.45,4637.15

File: VLFR_06-PET_nobio_Raman_8f509d1b.csv
nm,Intensity
526.5,826.6
527.047,825.4
527.594,827.2
528.14,827.2
528.687,825.9
529.233,827.2
529.779,826.3
530.325,826.9
530.871,826.6
531.417,827.3
531.962,829.9
532.508,827.8
533.053,827.4
533.599,832.9
534.144,1483.0
534.689,1305.8
535.234,1125.3
535.778,1017.5
536.323,950.2
536.867,926.0
537.412,916.8
537.956,912.2
538.5,915.2
539.044,917.1
539.588,925.5
540.132,925.8
540.675,908.3
541.219,897.2
541.762,899.1
542.305,897.3
542.848,899.7
543.391,896.6
543.934,905.4
544.477,897.8
545.02,904.4
545.562,905.4
546.105,903.2
546.647,907.3
547.189,909.0
547.731,906.1
548.273,911.4
548.815,909.8
549.356,915.2
549.898,914.4
550.439,922.4
550.981,927.9
551.522,916.8
552.063,920.9
552.604,926.7
553.145,936.5
553.686,931.3
554.226,928.4
554.767,932.1
555.307,937.4
555.848,961.0
556.388,970.1
556.928,976.5
557.468,1059.1
558.008,992.4
558.547,988.7
559.087,960.8
559.626,949.2
560.166,950.6
560.705,953.7
561.244,956.2
561.783,962.7
562.322,967.0
562.861,976.9
563.4,978.4
563.939,969.4
564.477,977.6
565.015,1002.3
565.554,1045.3
566.092,1040.5
566.63,993.1
567.168,981.7
567.706,1030.2
568.244,990.8
568.781,992.5
569.319,996.5
569.857,1013.3
570.394,1036.6
570.931,1114.9
571.468,1185.7
572.005,1097.9
572.542,1030.3
573.079,1015.3
573.616,1018.8
574.153,1041.9
574.689,1025.3
575.226,1042.7
575.762,1037.0
576.298,1046.9
576.834,1056.4
577.371,1042.1
577.907,1034.0
578.442,1043.2
578.978,1037.5
579.514,1043.2
580.049,1044.0
580.585,1055.1
581.12,1062.8
581.656,1107.5
582.191,1786.5
582.726,1094.5
583.261,1072.3
583.796,1060.1
584.331,1075.9
584.865,1076.1
585.4,1140.1
585.935,1446.5
586.469,1304.1
587.004,1113.9
587.538,1086.9
588.072,1084.6
588.606,1084.1
589.14,1082.7
589.674,1087.6
590.208,1086.8
590.742,1087.8
591.275,1091.4
591.809,1087.4
592.342,1093.2
592.876,1090.8
593.409,1091.5
593.942,1094.5
594.476,1097.1
595.009,1101.1
595.542,1099.5
596.075,1098.5
596.607,1100.7
597.14,1106.2
597.673,1103.6
598.205,1109.1
598.738,1110.1
599.27,1111.7
599.803,1112.0
600.335,1105.4
600.867,1109.2
601.399,1112.2
601.931,1108.8
602.463,1113.3
602.995,1111.5
603.527,1116.4
604.058,1118.2
604.59,1116.2
605.122,1114.8
605.653,1111.4
606.184,1108.8
606.716,1114.3
607.247,1111.5
607.778,1114.7
608.309,1119.0
608.84,1112.4
609.371,1116.9
609.902,1117.1
610.433,1124.3
610.964,1111.6
611.494,1121.6
612.025,1129.8
612.556,1126.3
613.086,1135.3
613.616,1140.7
614.147,1136.1
614.677,1142.6
615.207,1136.3
615.737,1139.9
616.267,1144.0
616.797,1144.2
617.327,1148.1
617.857,1152.0
618.387,1161.3
618.917,1157.7
619.446,1160.0
619.976,1151.6
620.505,1158.2
621.035,1147.2
621.564,1155.9
622.093,1153.3
622.623,1164.1
623.152,1167.6
623.681,1167.4
624.21,1173.7
624.739,1177.2
625.268,1185.6
625.797,1180.9
626.326,1188.1
626.855,1192.6
627.383,1184.8
627.912,1192.0
628.441,1209.7
628.969,1221.1
629.498,1222.9
630.026,1224.0
630.554,1224.2
631.083,1259.7
631.611,1347.9
632.139,1324.0
632.667,1287.0
633.195,1278.5
633.724,1271.0
634.252,1251.3
634.779,1245.6
635.307,1263.8
635.835,1290.9
636.363,1373.8
636.891,1373.2
637.418,1286.3
637.946,1276.2
638.474,1274.6
639.001,1273.4
639.529,1278.6
640.056,1280.3
640.583,1282.0
641.111,1281.1
641.638,1292.9
642.165,1295.0
642.692,1288.6
643.22,1292.3
643.747,1284.6
644.274,1292.8
644.801,1287.2
645.328,1289.4
645.854,1301.8
646.381,1287.6
646.908,1288.8
647.435,1299.4
647.962,1314.8
648.488,1300.7
649.015,1303.1
649.542,1305.5
650.068,1304.4
650.595,1302.9
651.121,1300.9
651.648,1305.6
652.174,1310.5
652.7,1316.9
653.227,1313.0
653.753,1311.9
654.279,1310.3
654.805,1313.0
655.331,1313.2
655.858,1313.4
656.384,1312.1
656.91,1311.0
657.436,1314.9
657.962,1305.5
658.488,1318.5
659.013,1311.9
659.539,1310.6
660.065,1308.1
660.591,1302.7
661.117,1297.5
661.642,1304.7
662.168,1304.9
662.694,1297.7
663.088,1292.3

File: VLFR_06-PET_nobio_Raman_8f812500.csv
nm,Intensity
526.508,829.6
527.055,830.3
527.602,830.5
528.149,830.2
528.695,831.6
529.241,828.7
529.787,830.1
530.334,830.2
530.879,830.3
531.425,830.0
531.971,834.0
532.516,831.4
533.062,830.4
533.607,840.5
534.152,2215.1
534.697,1829.7
535.242,1450.2
535.786,1214.8
536.331,1072.5
536.876,1023.9
537.42,991.7
537.964,987.5
538.508,995.6
539.052,994.1
539.596,1006.5
540.14,1010.1
540.683,969.3
541.227,950.9
541.77,956.1
542.313,948.9
542.856,951.1
543.399,950.8
543.942,966.5
544.485,957.1
545.027,961.0
545.57,961.3
546.112,968.2
546.654,964.6
547.196,971.1
547.738,970.8
548.28,973.2
548.822,979.2
549.363,977.8
549.905,977.2
550.446,1000.7
550.988,1013.1
551.529,991.5
552.07,1001.5
552.611,1003.0
553.152,1024.4
553.692,1006.4
554.233,1002.8
554.773,1014.0
555.314,1023.3
555.854,1080.4
556.394,1089.0
556.934,1100.5
557.474,1256.7
558.014,1124.2
558.553,1128.2
559.093,1071.9
559.632,1039.5
560.172,1044.6
560.711,1045.5
561.25,1053.0
561.789,1060.6
562.328,1076.0
562.867,1093.3
563.406,1094.3
563.944,1085.9
564.483,1092.1
565.021,1150.1
565.559,1226.7
566.098,1222.6
566.636,1120.0
567.174,1097.5
567.711,1194.9
568.249,1118.4
568.787,1118.9
569.324,1124.0
569.862,1151.0
570.399,1206.6
570.936,1350.8
571.474,1479.6
572.011,1300.0
572.548,1190.9
573.084,1150.9
573.621,1158.8
574.158,1195.7
574.694,1164.7
575.231,1211.8
575.767,1176.3
576.303,1216.2
576.84,1226.5
577.376,1195.6
577.912,1180.2
578.447,1188.0
578.983,1189.4
579.519,1195.9
580.054,1200.3
580.59,1210.6
581.125,1234.6
581.661,1323.4
582.196,2646.1
582.731,1295.8
583.266,1237.4
583.801,1233.7
584.336,1247.8
584.87,1262.7
585.405,1381.0
585.94,1981.4
586.474,1695.5
587.008,1318.7
587.543,1277.6
588.077,1262.0
588.611,1262.5
589.145,1261.5
589.679,1250.1
590.213,1255.5
590.747,1262.8
591.28,1271.8
591.814,1265.1
592.347,1272.6
592.881,1263.4
593.414,1275.4
593.947,1273.0
594.48,1281.7
595.014,1278.2
595.547,1284.0
596.079,1288.2
596.612,1290.3
597.145,1295.6
597.678,1293.2
598.21,1300.8
598.743,1302.5
599.275,1299.8
599.807,1310.9
600.34,1307.4
600.872,1297.9
601.404,1300.8
601.936,1301.2
602.468,1302.1
603.0,1305.6
603.532,1309.6
604.063,1320.4
604.595,1308.3
605.126,1308.9
605.658,1311.2
606.189,1303.7
606.721,1308.7
607.252,1308.2
607.783,1305.2
608.314,1308.4
608.845,1318.4
609.376,1315.7
609.907,1319.1
610.438,1312.4
610.968,1319.6
611.499,1323.1
612.03,1326.0
612.56,1325.5
613.091,1337.3
613.621,1341.3
614.151,1347.0
614.681,1341.5
615.212,1354.0
615.742,1343.7
616.272,1337.4
616.802,1352.3
617.332,1362.9
617.861,1368.6
618.391,1391.6
618.921,1378.3
619.45,1370.5
619.98,1364.8
620.509,1374.1
621.039,1371.8
621.568,1374.3
622.097,1377.8
622.627,1388.9
623.156,1400.5
623.685,1399.1
624.214,1405.6
624.743,1407.6
625.272,1420.0
625.801,1421.5
626.33,1422.6
626.858,1422.4
627.387,1433.3
627.916,1432.6
628.444,1465.2
628.973,1492.5
629.501,1489.7
630.029,1495.1
630.558,1502.0
631.086,1569.0
631.614,1724.3
632.142,1704.6
632.67,1632.0
633.198,1605.1
633.726,1578.0
634.254,1548.9
634.782,1552.6
635.31,1555.5
635.838,1637.6
636.365,1763.3
636.893,1779.6
637.421,1618.0
637.948,1592.4
638.476,1572.6
639.003,1575.7
639.531,1588.0
640.058,1589.1
640.585,1593.5
641.113,1601.6
641.64,1620.0
642.167,1641.9
642.694,1635.6
643.221,1617.6
643.748,1621.5
644.275,1610.8
644.802,1621.5
645.329,1630.3
645.856,1626.0
646.382,1626.0
646.909,1631.0
647.436,1657.7
647.962,1651.8
648.489,1657.0
649.016,1649.2
649.542,1661.2
650.069,1667.8
650.595,1653.9
651.121,1667.7
651.648,1676.8
652.174,1672.9
652.7,1675.1
653.227,1677.3
653.753,1689.5
654.279,1683.2
654.805,1665.0
655.331,1685.7
655.857,1679.8
656.383,1680.1
656.909,1690.2
657.435,1696.3
657.961,1690.7
658.487,1710.3
659.013,1685.3
659.538,1705.6
660.064,1702.6
660.59,1702.4
661.116,1700.4
661.641,1687.4
662.167,1672.9
662.692,1689.0
663.087,1684.0

File: VLFR_06-PET_nobio_Raman_9a38f7cd.csv
nm,Intensity
526.547,832.8
527.094,831.7
527.641,831.9
528.188,832.6
528.734,832.1
529.281,833.2
529.827,833.7
530.373,831.3
530.92,832.5
531.466,833.9
532.011,838.8
532.557,832.7
533.103,832.1
533.648,852.2
534.193,2139.3
534.738,1754.5
535.283,1403.5
535.828,1214.9
536.373,1095.6
536.917,1043.0
537.462,1024.9
538.006,1016.5
538.55,1027.2
539.094,1028.3
539.638,1045.7
540.182,1054.0
540.726,1007.5
541.269,1000.2
541.812,1002.1
542.356,1001.3
542.899,995.9
543.442,1000.5
543.985,1018.8
544.527,1015.0
545.07,1014.0
545.612,1014.6
546.155,1027.2
546.697,1021.5
547.239,1029.7
547.781,1036.5
548.323,1035.5
548.865,1038.6
549.406,1044.2
549.948,1041.5
550.489,1072.1
551.03,1063.9
551.572,1059.9
552.113,1066.9
552.654,1079.3
553.194,1084.3
553.735,1074.0
554.276,1084.8
554.816,1089.9
555.356,1104.1
555.896,1155.1
556.437,1155.6
556.977,1183.9
557.516,1347.0
558.056,1199.8
558.596,1200.9
559.135,1150.0
559.675,1133.7
560.214,1136.3
560.753,1142.9
561.292,1145.7
561.831,1147.8
562.37,1168.5
562.909,1194.1
563.448,1199.7
563.986,1190.2
564.525,1211.4
565.063,1257.1
565.601,1336.8
566.139,1321.5
566.677,1226.2
567.215,1218.0
567.753,1313.8
568.291,1228.2
568.828,1233.5
569.366,1255.5
569.903,1282.5
570.441,1333.9
570.978,1477.3
571.515,1576.4
572.052,1426.7
572.589,1318.1
573.126,1296.3
573.662,1304.7
574.199,1338.9
574.735,1333.3
575.272,1359.3
575.808,1344.4
576.344,1372.3
576.88,1388.8
577.416,1353.3
577.952,1354.6
578.488,1363.3
579.024,1377.0
579.559,1372.8
580.095,1386.2
580.63,1394.6
581.166,1412.2
581.701,1528.0
582.236,2751.1
582.771,1463.2
583.306,1438.1
583.841,1434.3
584.376,1439.6
584.911,1468.6
585.445,1603.3
585.98,2144.0
586.514,1819.1
587.048,1514.7
587.583,1486.7
588.117,1473.5
588.651,1474.6
589.185,1482.5
589.719,1478.1
590.253,1483.4
590.786,1478.3
591.32,1483.3
591.853,1499.0
592.387,1495.5
592.92,1495.3
593.454,1499.0
593.987,1509.5
594.52,1504.2
595.053,1528.2
595.586,1521.1
596.119,1525.0
596.651,1531.3
597.184,1540.7
597.717,1534.6
598.249,1559.1
598.782,1564.0
599.314,1560.7
599.846,1558.9
600.379,1552.3
600.911,1569.0
601.443,1563.0
601.975,1556.4
602.507,1568.7
603.038,1575.8
603.57,1581.0
604.102,1582.3
604.633,1576.0
605.165,1576.3
605.696,1559.4
606.228,1571.0
606.759,1569.9
607.29,1569.0
607.821,1580.9
608.352,1593.0
608.883,1593.4
609.414,1591.0
609.945,1595.5
610.476,1601.8
611.006,1597.1
611.537,1589.9
612.067,1597.0
612.598,1615.6
613.128,1637.0
613.659,1648.5
614.189,1645.0
614.719,1644.2
615.249,1638.1
615.779,1640.4
616.309,1636.3
616.839,1656.8
617.369,1656.0
617.899,1677.9
618.428,1673.8
618.958,1681.7
619.487,1673.5
620.017,1688.3
620.546,1676.4
621.076,1679.8
621.605,1687.6
622.134,1699.5
622.663,1698.1
623.193,1730.5
623.722,1729.0
624.251,1735.4
624.78,1757.1
625.308,1746.7
625.837,1763.8
626.366,1767.3
626.895,1761.9
627.423,1770.4
627.952,1780.4
628.48,1805.2
629.009,1837.9
629.537,1845.0
630.065,1839.0
630.594,1843.0
631.122,1929.3
631.65,2068.2
632.178,2049.6
632.706,1973.7
633.234,1964.5
633.762,1938.8
634.29,1904.9
634.818,1913.9
635.346,1925.1
635.873,2001.8
636.401,2150.7
636.929,2121.6
637.456,2005.2
637.984,1985.6
638.511,1977.1
639.039,1977.7
639.566,1992.9
640.093,1985.4
640.62,2004.5
641.148,2023.6
641.675,2016.1
642.202,2026.9
642.729,2034.6
643.256,2017.5
643.783,2017.2
644.31,2025.3
644.837,2032.6
645.364,2034.3
645.891,2046.7
646.417,2047.2
646.944,2067.3
647.471,2075.9
647.997,2059.1
648.524,2060.2
649.051,2056.5
649.577,2064.5
650.104,2068.7
650.63,2058.6
651.157,2068.0
651.683,2081.6
652.209,2091.4
652.736,2093.0
653.262,2095.3
653.788,2099.5
654.314,2087.1
654.84,2096.6
655.366,2104.6
655.893,2098.2
656.419,2089.1
656.945,2102.1
657.471,2099.4
657.997,2092.6
658.522,2104.2
659.048,2094.5
659.574,2112.0
660.1,2104.8
660.626,2103.2
661.152,2084.8
661.677,2078.0
662.203,2069.1
662.729,2078.9
663.123,2066.2