Folder: MPX_specDB/spectra (part 119)

File: VLFR_07-PET_nobio_Raman_629813d9.csv
nm,Intensity
791.75,15803.0
792.846,14809.7
793.942,14322.7
795.037,14106.8
796.133,13787.4
797.228,13779.0
798.324,13683.4
799.419,13777.4
800.514,13594.1
801.61,13482.0
802.705,13234.9
803.8,13010.3
804.894,12790.2
805.989,12725.8
807.084,12654.4
808.178,12553.8
809.273,12319.0
810.367,12221.7
811.461,12134.0
812.556,12047.9
813.65,12107.6
814.744,11666.4
815.837,11848.5
816.931,11597.6
818.025,11552.3
819.118,11432.5
820.212,11463.7
821.305,11265.9
822.398,11106.3
823.491,11026.7
824.585,10883.7
825.677,11165.3
826.77,10641.8
827.863,10370.2
828.956,10649.7
830.048,10363.8
831.14,10336.3
832.233,10156.2
833.325,10064.7
834.417,9753.3
835.509,9727.45
836.601,9862.05
837.692,9812.5
838.784,9658.35
839.876,9606.1
840.967,10049.8
842.058,9775.35
843.149,9393.25
844.24,9176.7
845.331,9028.3
846.422,9009.9
847.513,8854.5
848.604,8745.05
849.694,8739.2
850.784,8651.0
851.875,8747.6
852.965,8667.9
854.055,8641.8
855.145,8442.45
856.235,8361.25
857.324,8423.4
858.414,8478.5
859.503,8690.0
860.593,8366.0
861.682,8222.1
862.771,8144.2
863.86,8174.9
864.949,8151.35
866.038,7908.0
867.126,7889.95
868.215,7927.35
869.303,7802.6
870.391,8025.75
871.479,8171.3
872.567,8338.2
873.655,8058.45
874.743,7790.1
875.831,7727.8
876.918,7565.95
878.006,7512.1
879.093,7448.0
880.18,7331.4
881.267,7332.0
882.354,7297.15
883.441,7295.45
884.527,7255.8
885.614,7203.55
886.7,7058.0
887.786,6982.6
888.872,6803.7
889.958,6836.2
891.044,6882.15
892.13,6811.1
893.216,6692.2
894.301,6649.3
895.386,6448.25
896.472,6646.6
897.557,7208.15
898.642,7335.6
899.726,6527.6
900.811,6251.05
901.896,6231.9
902.98,6128.05
904.064,6133.0
905.148,6135.6
906.232,6468.95
907.316,6805.7
908.4,6407.45
909.484,6034.95
910.567,5840.25
911.65,5732.65
912.734,5733.9
913.817,5669.4
914.9,5585.8
915.982,5550.1
917.065,5509.75
918.147,5461.5
919.23,5405.7
920.312,5407.05
921.394,5310.1
922.476,5256.9
923.558,5224.1
924.639,5180.8
925.721,5169.35
926.802,5125.9
927.884,5023.5
928.965,5066.15
930.046,4964.5
931.126,4975.8
932.207,4924.5
933.288,4889.4
934.368,4831.95
935.448,4791.35
936.528,4796.45
937.608,4746.35
938.688,4690.15
939.767,4668.8
940.847,4668.8
941.926,4646.95
943.005,4605.45
944.084,4538.0
945.163,4540.3
946.242,4532.4
947.321,4491.55
948.399,4484.15
949.477,4455.6
950.556,4416.55
951.634,4396.35
952.711,4379.0
953.789,4338.8
954.867,4336.8
955.944,4306.9
957.021,4324.5
958.098,4291.05
959.175,4271.85
960.252,4254.6
961.328,4230.2
962.405,4214.0
963.481,4194.25
964.557,4184.4
965.633,4176.3
966.709,4157.6
967.785,4143.7
968.86,4134.95
969.936,4101.15
971.011,4097.8
972.086,4084.15
973.161,4075.8
974.235,4056.6
975.31,4051.95
976.384,4040.4
977.459,4026.15
978.533,4016.6
979.607,4009.0
980.68,3993.15
981.754,3982.65
982.827,3974.15
983.901,3972.0
984.974,3963.05
986.047,3955.1
987.119,3938.4
988.192,3928.8
989.264,3918.85
990.337,3915.6
991.409,3911.15
992.481,3901.0
993.553,3890.6
994.624,3879.75
995.696,3876.85
996.767,3874.05
997.838,3865.55
998.909,3857.25
999.98,3854.0
1001.05,3849.75
1002.12,3835.9
1003.19,3840.15
1004.26,3827.15
1005.33,3826.9
1006.4,3820.55
1007.47,3818.45
1008.54,3808.35
1009.61,3806.6
1010.68,3799.95
1011.75,3797.85
1012.82,3798.35
1013.88,3791.45
1014.95,3790.35
1016.02,3790.35
1017.09,3783.3
1018.16,3777.75
1019.22,3775.95
1020.29,3779.55
1021.36,3783.45
1022.43,3786.4
1023.49,3776.75
1024.56,3772.25
1025.63,3766.8
1026.69,3756.5
1027.76,3754.7
1028.83,3749.65
1029.89,3744.7
1030.96,3748.2
1032.02,3744.85
1033.09,3745.8
1034.15,3751.45
1035.22,3748.75
1036.28,3742.4
1037.35,3737.3
1038.41,3733.5
1039.48,3729.1
1040.54,3729.75
1041.6,3727.95
1042.67,3728.35
1043.73,3722.75
1044.79,3722.4
1045.86,3721.85
1046.92,3722.05
1047.98,3719.65
1049.05,3719.75
1050.11,3720.5
1051.17,3718.5
1052.23,3720.4
1053.29,3718.25
1054.36,3717.4
1055.42,3719.5
1056.48,3717.65
1057.54,3715.05
1058.6,3715.35
1059.66,3715.75
1060.72,3715.65
1061.78,3716.6
1062.84,3715.35
1063.9,3715.9
1064.96,3713.9
1066.02,3714.2
1067.08,3712.7
1067.88,3712.25

File: VLFR_07-PET_nobio_Raman_01264874.csv
nm,Intensity
791.377,11331.1
792.477,10214.1
793.576,9758.28
794.676,9293.2
795.775,9298.26
796.874,9254.86
797.973,9136.78
799.072,9133.02
800.171,9056.54
801.27,8976.24
802.368,9033.3
803.467,8868.5
804.565,8726.84
805.664,8599.7
806.762,8555.54
807.86,8430.98
808.958,8497.88
810.056,8284.32
811.153,8298.28
812.251,8252.36
813.349,8106.26
814.446,8067.24
815.543,8038.86
816.64,7923.12
817.737,7815.98
818.834,7787.34
819.931,7786.64
821.028,7742.52
822.125,7655.72
823.221,7546.52
824.317,7535.12
825.414,7651.72
826.51,7562.26
827.606,7365.9
828.702,7322.96
829.797,7233.22
830.893,7375.42
831.988,7132.46
833.084,7098.62
834.179,7086.88
835.274,6985.7
836.369,7040.12
837.464,7057.42
838.559,7099.24
839.654,6992.34
840.748,7153.5
841.843,7126.68
842.937,6955.48
844.031,6787.7
845.125,6696.56
846.219,6575.8
847.313,6562.02
848.407,6450.2
849.5,6432.38
850.593,6436.68
851.687,6392.32
852.78,6433.38
853.873,6341.58
854.966,6283.78
856.059,6214.68
857.151,6190.42
858.244,6293.34
859.336,6359.1
860.428,6396.44
861.52,6129.1
862.612,6152.08
863.704,6052.26
864.796,6079.36
865.888,5951.56
866.979,5946.64
868.07,5874.3
869.162,5887.04
870.253,5901.8
871.344,6074.98
872.434,6195.22
873.525,6171.98
874.615,5972.16
875.706,5800.32
876.796,5750.52
877.886,5700.42
878.976,5660.0
880.066,5638.62
881.156,5637.64
882.245,5571.18
883.335,5540.98
884.424,5554.62
885.513,5543.48
886.602,5535.52
887.691,5445.98
888.78,5366.22
889.868,5369.38
890.957,5336.42
892.045,5335.7
893.133,5312.84
894.221,5242.8
895.309,5209.58
896.397,5202.84
897.484,5414.56
898.571,5857.16
899.659,5515.02
900.746,5114.94
901.833,5018.22
902.92,4986.6
904.006,5012.8
905.093,4963.88
906.179,5123.32
907.266,5387.46
908.352,5373.78
909.438,5121.3
910.523,4917.52
911.609,4816.34
912.695,4769.78
913.78,4749.68
914.865,4709.74
915.95,4704.14
917.035,4663.14
918.12,4662.1
919.204,4638.42
920.289,4576.9
921.373,4616.14
922.457,4541.92
923.541,4538.16
924.625,4515.52
925.709,4512.64
926.792,4477.96
927.876,4444.64
928.959,4413.1
930.042,4394.66
931.125,4363.66
932.208,4350.12
933.29,4335.46
934.373,4319.86
935.455,4292.88
936.537,4283.86
937.619,4262.88
938.701,4239.76
939.782,4231.28
940.864,4222.66
941.945,4203.28
943.026,4179.6
944.107,4174.74
945.188,4165.98
946.269,4153.38
947.349,4141.14
948.43,4119.8
949.51,4112.6
950.59,4102.02
951.67,4085.48
952.75,4082.18
953.829,4068.46
954.909,4055.3
955.988,4035.98
957.067,4042.22
958.146,4030.76
959.224,4020.2
960.303,4007.42
961.381,3994.06
962.459,3996.4
963.537,3981.92
964.615,3968.34
965.693,3966.6
966.771,3965.4
967.848,3947.88
968.925,3947.04
970.002,3938.76
971.079,3928.34
972.156,3927.82
973.232,3920.52
974.309,3912.14
975.385,3899.64
976.461,3904.24
977.537,3893.72
978.612,3887.64
979.688,3882.86
980.763,3879.66
981.838,3877.76
982.913,3869.5
983.988,3865.06
985.063,3865.16
986.137,3856.94
987.211,3852.4
988.285,3848.6
989.359,3848.74
990.433,3842.64
991.506,3838.14
992.58,3835.4
993.653,3829.0
994.726,3821.3
995.799,3821.84
996.872,3815.94
997.944,3816.38
999.016,3812.06
1000.09,3810.26
1001.16,3805.04
1002.23,3800.48
1003.3,3799.52
1004.38,3797.64
1005.45,3792.54
1006.52,3790.52
1007.59,3787.34
1008.66,3785.14
1009.73,3783.58
1010.8,3780.58
1011.87,3779.02
1012.94,3775.44
1014.01,3777.1
1015.08,3775.34
1016.15,3775.14
1017.22,3772.38
1018.29,3770.7
1019.36,3770.1
1020.42,3768.4
1021.49,3773.62
1022.56,3777.22
1023.63,3775.96
1024.7,3769.74
1025.76,3764.34
1026.83,3761.14
1027.9,3757.64
1028.97,3755.08
1030.03,3752.64
1031.1,3749.54
1032.17,3750.18
1033.23,3752.12
1034.3,3755.98
1035.36,3756.12
1036.43,3754.68
1037.5,3751.6
1038.56,3745.74
1039.63,3744.28
1040.69,3742.7
1041.76,3741.46
1042.82,3741.54
1043.89,3740.54
1044.95,3738.98
1046.01,3737.94
1047.08,3738.82
1048.14,3738.82
1049.2,3736.72
1050.27,3736.52
1051.33,3738.02
1052.39,3737.0
1053.46,3737.28
1054.52,3736.42
1055.58,3735.94
1056.64,3735.66
1057.7,3734.8
1058.77,3735.28
1059.83,3735.54
1060.89,3734.34
1061.95,3735.2
1063.01,3734.78
1064.07,3735.04
1065.13,3734.02
1066.19,3733.8
1067.25,3733.3
1068.05,3733.14

File: VLFR_07-PET_nobio_Raman_04147625.csv
nm,Intensity
791.75,4921.2
792.846,4835.95
793.942,4835.9
795.037,4820.35
796.133,4809.95
797.228,4819.4
798.324,4804.4
799.419,4773.6
800.514,4800.7
801.61,4751.05
802.705,4762.55
803.8,4721.65
804.894,4720.6
805.989,4715.05
807.084,4675.7
808.178,4681.95
809.273,4671.65
810.367,4640.65
811.461,4645.8
812.556,4613.4
813.65,4621.45
814.744,4600.85
815.837,4566.15
816.931,4543.1
818.025,4564.95
819.118,4540.9
820.212,4517.45
821.305,4517.9
822.398,4496.0
823.491,4457.55
824.585,4451.15
825.677,4468.9
826.77,4435.45
827.863,4420.8
828.956,4404.85
830.048,4399.5
831.14,4377.85
832.233,4349.55
833.325,4362.9
834.417,4349.75
835.509,4326.0
836.601,4326.7
837.692,4320.6
838.784,4313.95
839.876,4300.45
840.967,4305.3
842.058,4294.1
843.149,4271.75
844.24,4267.45
845.331,4243.55
846.422,4238.4
847.513,4221.5
848.604,4227.2
849.694,4229.8
850.784,4216.1
851.875,4222.75
852.965,4203.2
854.055,4195.25
855.145,4198.1
856.235,4174.85
857.324,4188.5
858.414,4182.3
859.503,4176.75
860.593,4187.55
861.682,4148.4
862.771,4152.0
863.86,4156.2
864.949,4156.25
866.038,4131.45
867.126,4131.7
868.215,4121.35
869.303,4133.05
870.391,4128.45
871.479,4120.1
872.567,4158.0
873.655,4127.6
874.743,4105.85
875.831,4098.3
876.918,4092.5
878.006,4082.55
879.093,4074.5
880.18,4083.55
881.267,4078.35
882.354,4061.75
883.441,4061.75
884.527,4053.45
885.614,4050.3
886.7,4040.85
887.786,4046.5
888.872,4028.95
889.958,4026.25
891.044,4024.95
892.13,4001.55
893.216,4018.05
894.301,3997.1
895.386,3993.25
896.472,3989.4
897.557,4035.95
898.642,4026.0
899.726,3977.4
900.811,3968.1
901.896,3957.5
902.98,3966.5
904.064,3953.15
905.148,3948.75
906.232,3958.8
907.316,3984.25
908.4,3955.0
909.484,3930.4
910.567,3919.9
911.65,3909.0
912.734,3899.9
913.817,3900.25
914.9,3888.2
915.982,3893.65
917.065,3881.95
918.147,3879.7
919.23,3884.6
920.312,3873.75
921.394,3867.7
922.476,3864.25
923.558,3860.2
924.639,3853.95
925.721,3852.25
926.802,3840.5
927.884,3844.45
928.965,3832.95
930.046,3834.15
931.126,3819.15
932.207,3827.15
933.288,3813.9
934.368,3812.6
935.448,3810.85
936.528,3801.15
937.608,3803.2
938.688,3798.85
939.767,3797.65
940.847,3792.65
941.926,3791.7
943.005,3788.6
944.084,3787.05
945.163,3781.8
946.242,3776.2
947.321,3777.65
948.399,3775.65
949.477,3770.1
950.556,3766.35
951.634,3767.85
952.711,3764.85
953.789,3760.15
954.867,3757.45
955.944,3760.35
957.021,3757.0
958.098,3752.5
959.175,3757.0
960.252,3750.75
961.328,3748.2
962.405,3746.2
963.481,3745.3
964.557,3744.9
965.633,3742.45
966.709,3740.3
967.785,3743.7
968.86,3737.85
969.936,3736.4
971.011,3735.25
972.086,3735.6
973.161,3731.5
974.235,3730.25
975.31,3728.5
976.384,3729.05
977.459,3726.15
978.533,3728.1
979.607,3724.3
980.68,3724.95
981.754,3722.75
982.827,3722.3
983.901,3722.25
984.974,3719.25
986.047,3720.05
987.119,3719.3
988.192,3719.0
989.264,3717.3
990.337,3714.35
991.409,3715.9
992.481,3714.65
993.553,3713.85
994.624,3710.8
995.696,3712.6
996.767,3711.9
997.838,3712.25
998.909,3711.05
999.98,3710.1
1001.05,3709.0
1002.12,3709.7
1003.19,3709.8
1004.26,3708.45
1005.33,3708.15
1006.4,3706.15
1007.47,3706.6
1008.54,3705.5
1009.61,3705.1
1010.68,3707.15
1011.75,3705.4
1012.82,3703.1
1013.88,3703.75
1014.95,3703.75
1016.02,3704.95
1017.09,3703.6
1018.16,3703.0
1019.22,3701.15
1020.29,3704.6
1021.36,3703.45
1022.43,3701.0
1023.49,3701.05
1024.56,3701.0
1025.63,3702.1
1026.69,3700.85
1027.76,3699.9
1028.83,3700.85
1029.89,3700.05
1030.96,3699.35
1032.02,3699.3
1033.09,3701.4
1034.15,3701.35
1035.22,3699.35
1036.28,3700.5
1037.35,3697.6
1038.41,3697.7
1039.48,3698.4
1040.54,3698.9
1041.6,3698.15
1042.67,3697.3
1043.73,3697.5
1044.79,3696.6
1045.86,3695.4
1046.92,3697.7
1047.98,3696.4
1049.05,3697.5
1050.11,3697.0
1051.17,3696.95
1052.23,3695.75
1053.29,3695.8
1054.36,3696.5
1055.42,3697.4
1056.48,3695.85
1057.54,3696.55
1058.6,3696.2
1059.66,3696.2
1060.72,3696.8
1061.78,3695.75
1062.84,3695.35
1063.9,3696.9
1064.96,3696.4
1066.02,3696.6
1067.08,3695.6
1067.88,3694.45

File: VLFR_07-PET_nobio_Raman_93514403.csv
nm,Intensity
791.377,11867.9
792.477,10682.9
793.576,10181.4
794.676,9862.6
795.775,9663.5
796.874,9615.98
797.973,9646.18
799.072,9587.88
800.171,9515.5
801.27,9424.8
802.368,9626.66
803.467,9325.96
804.565,9260.86
805.664,9200.14
806.762,9141.84
807.86,9021.4
808.958,9005.24
810.056,8942.56
811.153,8745.02
812.251,8740.44
813.349,8754.86
814.446,8526.66
815.543,8455.78
816.64,8348.5
817.737,8444.56
818.834,8224.22
819.931,8194.5
821.028,8139.58
822.125,8032.26
823.221,7896.64
824.317,7967.56
825.414,7994.38
826.51,8030.24
827.606,7748.26
828.702,7702.3
829.797,7730.1
830.893,7807.62
831.988,7622.24
833.084,7573.94
834.179,7410.94
835.274,7462.92
836.369,7423.54
837.464,7558.76
838.559,7446.36
839.654,7511.78
840.748,7414.08
841.843,7664.8
842.937,7395.26
844.031,7214.88
845.125,7077.52
846.219,6955.78
847.313,6898.3
848.407,6928.96
849.5,6782.54
850.593,6795.46
851.687,6749.14
852.78,6794.28
853.873,6719.84
854.966,6660.48
856.059,6569.54
857.151,6579.3
858.244,6637.76
859.336,6647.46
860.428,6736.1
861.52,6495.62
862.612,6434.62
863.704,6326.96
864.796,6414.2
865.888,6328.22
866.979,6189.86
868.07,6254.92
869.162,6152.16
870.253,6237.14
871.344,6294.86
872.434,6500.98
873.525,6457.36
874.615,6349.88
875.706,6232.2
876.796,6039.62
877.886,6033.82
878.976,6014.16
880.066,5925.38
881.156,5943.26
882.245,5880.24
883.335,5923.7
884.424,5884.98
885.513,5872.4
886.602,5802.46
887.691,5730.1
888.78,5653.1
889.868,5667.2
890.957,5701.04
892.045,5631.82
893.133,5553.92
894.221,5554.06
895.309,5504.52
896.397,5459.04
897.484,5604.14
898.571,6180.52
899.659,5865.94
900.746,5414.02
901.833,5292.22
902.92,5258.72
904.006,5244.04
905.093,5263.36
906.179,5338.54
907.266,5545.4
908.352,5717.18
909.438,5435.14
910.523,5174.8
911.609,5052.16
912.695,4999.98
913.78,4927.2
914.865,4932.88
915.95,4875.0
917.035,4883.82
918.12,4838.5
919.204,4839.36
920.289,4770.2
921.373,4767.92
922.457,4715.66
923.541,4704.58
924.625,4654.38
925.709,4643.1
926.792,4611.96
927.876,4589.86
928.959,4553.2
930.042,4503.34
931.125,4507.84
932.208,4462.1
933.29,4451.74
934.373,4415.54
935.455,4395.98
936.537,4364.36
937.619,4344.94
938.701,4346.18
939.782,4326.34
940.864,4312.42
941.945,4282.84
943.026,4265.38
944.107,4247.84
945.188,4236.36
946.269,4220.44
947.349,4201.4
948.43,4187.32
949.51,4181.04
950.59,4150.08
951.67,4149.18
952.75,4126.78
953.829,4122.44
954.909,4104.36
955.988,4099.66
957.067,4087.02
958.146,4076.02
959.224,4060.88
960.303,4046.28
961.381,4036.44
962.459,4026.62
963.537,4018.38
964.615,4009.72
965.693,3996.16
966.771,3989.98
967.848,3994.9
968.925,3984.6
970.002,3971.76
971.079,3964.88
972.156,3957.06
973.232,3944.96
974.309,3940.22
975.385,3927.12
976.461,3929.6
977.537,3919.3
978.612,3907.18
979.688,3904.4
980.763,3893.04
981.838,3893.7
982.913,3887.26
983.988,3885.34
985.063,3875.68
986.137,3876.68
987.211,3868.12
988.285,3863.18
989.359,3859.94
990.433,3852.44
991.506,3844.78
992.58,3841.6
993.653,3838.22
994.726,3834.58
995.799,3828.56
996.872,3825.52
997.944,3821.28
999.016,3818.3
1000.09,3815.08
1001.16,3810.26
1002.23,3804.06
1003.3,3807.28
1004.38,3799.24
1005.45,3793.82
1006.52,3796.48
1007.59,3789.32
1008.66,3785.2
1009.73,3780.98
1010.8,3781.68
1011.87,3780.82
1012.94,3775.44
1014.01,3772.32
1015.08,3774.36
1016.15,3770.7
1017.22,3768.7
1018.29,3766.22
1019.36,3762.84
1020.42,3762.36
1021.49,3767.72
1022.56,3770.86
1023.63,3769.18
1024.7,3765.22
1025.76,3759.72
1026.83,3753.94
1027.9,3751.34
1028.97,3747.3
1030.03,3744.46
1031.1,3742.66
1032.17,3741.28
1033.23,3743.02
1034.3,3744.9
1035.36,3746.98
1036.43,3744.12
1037.5,3740.24
1038.56,3735.74
1039.63,3732.88
1040.69,3732.8
1041.76,3730.74
1042.82,3730.16
1043.89,3729.42
1044.95,3728.52
1046.01,3726.94
1047.08,3726.04
1048.14,3726.5
1049.2,3726.02
1050.27,3725.94
1051.33,3723.18
1052.39,3724.1
1053.46,3723.42
1054.52,3723.42
1055.58,3724.18
1056.64,3723.24
1057.7,3722.54
1058.77,3722.2
1059.83,3723.04
1060.89,3722.64
1061.95,3721.88
1063.01,3720.78
1064.07,3720.64
1065.13,3719.8
1066.19,3720.52
1067.25,3720.56
1068.05,3719.66

File: VLFR_07-PET_nobio_Raman_a13b8df5.csv
cm-1,Intensity
109.24,9225.85
126.699,8758.95
144.108,8382.05
161.468,8264.35
178.779,8146.4
196.04,8064.85
213.253,8082.9
230.417,8087.0
247.532,8015.55
264.599,8047.5
281.618,7954.0
298.59,7878.75
315.513,7805.55
332.389,7797.0
349.218,7754.55
365.999,7554.75
382.734,7565.45
399.422,7501.75
416.064,7454.3
432.659,7380.9
449.208,7265.05
465.711,7247.5
482.168,7202.0
498.579,7173.45
514.946,7051.55
531.267,6957.2
547.542,6938.85
563.773,6980.4
579.96,6811.85
596.102,6861.55
612.199,6773.3
628.252,6871.35
644.261,6732.7
660.227,6609.85
676.149,6625.25
692.027,6574.25
707.862,6475.55
723.654,6489.8
739.403,6408.8
755.109,6330.8
770.773,6342.75
786.394,6355.75
801.973,6383.25
817.509,6311.2
833.004,6319.9
848.457,6455.2
863.868,6359.4
879.238,6267.05
894.567,6168.05
909.854,6006.85
925.1,5983.05
940.306,6007.85
955.471,5912.65
970.595,5876.75
985.679,5852.6
1000.72,5852.75
1015.73,5832.95
1030.69,5775.55
1045.61,5740.9
1060.5,5676.35
1075.34,5689.55
1090.15,5752.7
1104.92,5740.5
1119.64,5733.3
1134.33,5647.4
1148.98,5595.5
1163.6,5547.55
1178.17,5538.85
1192.7,5460.25
1207.2,5443.95
1221.66,5437.8
1236.08,5444.25
1250.46,5434.1
1264.81,5542.5
1279.12,5627.5
1293.39,5519.9
1307.62,5366.85
1321.82,5325.45
1335.98,5299.15
1350.11,5248.6
1364.19,5227.1
1378.24,5184.5
1392.26,5236.25
1406.24,5178.65
1420.18,5152.05
1434.08,5122.0
1447.96,5132.45
1461.79,5075.55
1475.59,5034.3
1489.35,5019.65
1503.08,5011.65
1516.78,4989.45
1530.44,4990.45
1544.06,4931.25
1557.65,4892.05
1571.2,4861.35
1584.72,4885.55
1598.21,5096.25
1611.66,5234.3
1625.08,4906.5
1638.46,4772.0
1651.81,4748.4
1665.13,4740.0
1678.41,4719.0
1691.66,4702.95
1704.88,4812.65
1718.06,4949.7
1731.21,4915.0
1744.32,4716.3
1757.41,4620.15
1770.46,4564.7
1783.48,4530.3
1796.46,4508.15
1809.42,4486.7
1822.34,4478.2
1835.23,4460.65
1848.08,4433.65
1860.91,4450.15
1873.7,4420.2
1886.46,4389.55
1899.19,4377.55
1911.89,4352.35
1924.56,4329.35
1937.19,4321.6
1949.8,4290.1
1962.37,4272.0
1974.91,4253.35
1987.42,4227.45
1999.9,4209.0
2012.36,4181.45
2024.78,4196.4
2037.16,4155.45
2049.52,4165.2
2061.85,4119.05
2074.15,4116.75
2086.42,4104.55
2098.66,4103.75
2110.87,4087.9
2123.05,4073.6
2135.2,4076.8
2147.32,4040.0
2159.41,4048.8
2171.47,4038.75
2183.51,4015.6
2195.51,4015.85
2207.49,4003.9
2219.43,3994.65
2231.35,3985.6
2243.24,3974.85
2255.1,3968.55
2266.93,3958.9
2278.73,3961.1
2290.51,3941.7
2302.26,3945.3
2313.97,3933.0
2325.67,3931.35
2337.33,3919.25
2348.96,3920.75
2360.57,3907.9
2372.15,3908.55
2383.7,3906.9
2395.23,3899.3
2406.73,3893.45
2418.2,3887.5
2429.64,3886.25
2441.06,3879.05
2452.45,3873.55
2463.81,3872.25
2475.15,3865.35
2486.46,3857.05
2497.74,3851.7
2509.0,3853.95
2520.23,3849.6
2531.43,3842.9
2542.61,3836.0
2553.76,3835.8
2564.88,3837.0
2575.98,3832.75
2587.06,3831.6
2598.1,3825.6
2609.13,3826.25
2620.12,3819.55
2631.09,3821.35
2642.04,3813.05
2652.96,3811.75
2663.85,3810.65
2674.72,3803.1
2685.57,3803.5
2696.39,3802.3
2707.18,3801.3
2717.95,3799.25
2728.69,3794.1
2739.41,3787.0
2750.11,3789.4
2760.78,3786.35
2771.43,3787.15
2782.05,3783.4
2792.65,3779.5
2803.22,3780.5
2813.77,3774.35
2824.3,3775.05
2834.8,3773.3
2845.27,3771.35
2855.73,3770.8
2866.16,3767.15
2876.56,3768.55
2886.95,3767.7
2897.3,3768.4
2907.64,3764.25
2917.95,3763.4
2928.24,3761.3
2938.51,3762.85
2948.75,3768.15
2958.97,3768.0
2969.17,3762.6
2979.34,3762.25
2989.49,3759.6
2999.62,3755.55
3009.72,3755.15
3019.81,3751.65
3029.87,3750.1
3039.9,3750.85
3049.92,3749.95
3059.91,3751.5
3069.88,3750.5
3079.83,3751.5
3089.76,3750.1
3099.66,3746.6
3109.54,3745.2
3119.4,3743.75
3129.24,3744.55
3139.06,3742.55
3148.85,3742.9
3158.62,3742.65
3168.38,3740.2
3178.11,3740.6
3187.81,3741.55
3197.5,3739.15
3207.17,3738.3
3216.81,3739.2
3226.44,3738.9
3236.04,3739.4
3245.62,3738.6
3255.18,3739.0
3264.72,3738.75
3274.24,3738.25
3283.73,3739.35
3293.21,3738.85
3302.67,3738.2
3312.1,3737.7
3321.52,3737.25
3330.91,3736.4
3340.29,3736.7
3349.64,3736.6
3358.97,3735.1
3368.29,3736.15
3375.26,3735.6

File: VLFR_07-PET_nobio_Raman_a067cac7.csv
nm,Intensity
791.588,10886.8
792.685,10425.9
793.781,10156.8
794.878,9981.9
795.975,9910.5
797.071,9906.0
798.168,9857.1
799.264,9929.9
800.36,9824.7
801.456,9869.7
802.552,9822.5
803.648,9759.0
804.744,9587.0
805.84,9601.2
806.936,9538.2
808.031,9334.1
809.127,9313.4
810.222,9232.6
811.317,9150.5
812.412,9109.6
813.507,8978.8
814.602,8980.0
815.697,8841.1
816.792,8718.4
817.887,8785.9
818.981,8656.2
820.076,8638.5
821.17,8681.7
822.265,8560.0
823.359,8379.7
824.453,8400.7
825.547,8507.4
826.641,8301.0
827.735,8274.5
828.828,8186.2
829.922,8158.3
831.016,8221.0
832.109,8038.8
833.202,7919.1
834.295,7864.9
835.388,7808.4
836.481,7876.4
837.574,7838.4
838.667,7830.7
839.76,7717.6
840.852,7868.1
841.945,7847.3
843.037,7690.1
844.129,7511.5
845.221,7386.6
846.314,7327.7
847.405,7313.9
848.497,7228.3
849.589,7185.7
850.681,7187.2
851.772,7127.7
852.863,7151.2
853.955,7039.3
855.046,6994.8
856.137,6970.4
857.228,6915.7
858.318,7019.6
859.409,7053.8
860.5,6896.7
861.59,6853.2
862.681,6815.1
863.771,6767.3
864.861,6816.4
865.951,6746.5
867.041,6703.0
868.131,6586.8
869.22,6689.6
870.31,6676.5
871.399,6793.0
872.488,6821.3
873.578,6923.4
874.667,6658.3
875.756,6457.5
876.845,6515.2
877.933,6410.2
879.022,6438.3
880.11,6376.5
881.199,6338.6
882.287,6272.8
883.375,6311.4
884.463,6325.8
885.551,6313.1
886.639,6184.8
887.726,6149.5
888.814,6120.2
889.901,6091.3
890.988,6078.3
892.075,5988.3
893.162,5941.6
894.249,5929.7
895.336,5874.3
896.423,5898.5
897.509,6040.0
898.595,6349.9
899.682,6076.1
900.768,5688.4
901.854,5661.6
902.94,5612.0
904.025,5624.1
905.111,5532.0
906.196,5692.7
907.282,5924.6
908.367,5801.3
909.452,5626.3
910.537,5432.4
911.622,5322.4
912.706,5273.4
913.791,5275.6
914.875,5172.0
915.959,5153.6
917.044,5120.2
918.128,5076.4
919.211,5074.6
920.295,5046.6
921.379,4987.2
922.462,4950.6
923.546,4937.7
924.629,4899.3
925.712,4867.9
926.795,4838.4
927.877,4771.0
928.96,4768.5
930.043,4696.0
931.125,4695.9
932.207,4656.2
933.289,4639.7
934.371,4637.7
935.453,4591.8
936.535,4560.9
937.616,4554.9
938.697,4513.5
939.779,4493.2
940.86,4476.6
941.941,4458.1
943.022,4423.8
944.102,4406.5
945.183,4409.8
946.263,4359.6
947.343,4358.2
948.423,4321.5
949.503,4336.0
950.583,4303.9
951.663,4282.4
952.742,4260.9
953.822,4254.3
954.901,4236.2
955.98,4218.2
957.059,4209.9
958.137,4193.9
959.216,4193.5
960.294,4171.9
961.373,4147.1
962.451,4133.0
963.529,4142.2
964.607,4114.9
965.684,4102.8
966.762,4091.4
967.839,4093.8
968.917,4072.5
969.994,4069.3
971.071,4057.4
972.147,4060.8
973.224,4034.8
974.3,4027.4
975.377,4017.6
976.453,4013.6
977.529,4009.3
978.605,4000.9
979.68,3986.4
980.756,3970.2
981.831,3977.3
982.907,3969.4
983.982,3959.0
985.057,3957.3
986.131,3946.1
987.206,3932.8
988.28,3937.3
989.355,3936.5
990.429,3931.8
991.503,3916.0
992.576,3913.0
993.65,3904.1
994.723,3901.2
995.797,3894.6
996.87,3893.1
997.943,3888.7
999.016,3879.3
1000.09,3872.7
1001.16,3872.8
1002.23,3866.6
1003.31,3857.9
1004.38,3856.9
1005.45,3856.5
1006.52,3847.7
1007.59,3843.6
1008.66,3843.0
1009.73,3840.1
1010.81,3830.4
1011.88,3833.0
1012.95,3827.6
1014.02,3825.8
1015.09,3825.2
1016.16,3820.6
1017.23,3821.0
1018.3,3819.0
1019.37,3814.0
1020.44,3813.3
1021.51,3815.4
1022.58,3818.8
1023.64,3818.0
1024.71,3814.1
1025.78,3806.5
1026.85,3801.5
1027.92,3796.5
1028.99,3794.9
1030.05,3791.0
1031.12,3787.9
1032.19,3790.0
1033.26,3789.3
1034.32,3789.7
1035.39,3791.4
1036.46,3787.6
1037.52,3785.8
1038.59,3782.4
1039.66,3779.1
1040.72,3778.1
1041.79,3774.5
1042.86,3774.9
1043.92,3772.8
1044.99,3775.3
1046.05,3771.7
1047.12,3769.8
1048.18,3768.6
1049.25,3768.5
1050.31,3768.6
1051.37,3767.0
1052.44,3768.1
1053.5,3766.3
1054.57,3765.7
1055.63,3767.7
1056.69,3766.8
1057.76,3765.7
1058.82,3766.8
1059.88,3766.1
1060.95,3764.9
1062.01,3764.5
1063.07,3763.1
1064.13,3762.4
1065.19,3764.0
1066.26,3763.2
1067.32,3761.5
1068.11,3762.9