Folder: MPX_specDB/spectra (part 72)

File: VLFR_06-PET_bio_Raman_53f61a3b.csv
nm,Intensity
526.508,828.6
527.055,830.8
527.602,829.4
528.149,829.9
528.695,829.7
529.241,829.6
529.787,828.9
530.334,831.8
530.879,828.6
531.425,830.4
531.971,832.7
532.516,830.2
533.062,831.4
533.607,833.4
534.152,1275.1
534.697,1174.4
535.242,1075.2
535.786,1021.3
536.331,985.7
536.876,971.0
537.42,972.6
537.964,962.7
538.508,969.7
539.052,966.7
539.596,973.0
540.14,973.5
540.683,964.9
541.227,960.7
541.77,964.4
542.313,963.1
542.856,971.3
543.399,966.6
543.942,973.9
544.485,975.6
545.027,979.5
545.57,987.1
546.112,985.3
546.654,988.9
547.196,986.4
547.738,989.3
548.28,990.5
548.822,994.6
549.363,1002.1
549.905,1003.8
550.446,1007.7
550.988,1014.9
551.529,1008.1
552.07,1015.9
552.611,1019.4
553.152,1024.3
553.692,1025.3
554.233,1022.3
554.773,1026.4
555.314,1027.8
555.854,1049.2
556.394,1047.2
556.934,1055.3
557.474,1092.4
558.014,1065.6
558.553,1065.7
559.093,1054.6
559.632,1050.2
560.172,1054.8
560.711,1061.9
561.25,1068.5
561.789,1078.8
562.328,1072.1
562.867,1083.2
563.406,1082.6
563.944,1084.5
564.483,1093.4
565.021,1105.4
565.559,1126.1
566.098,1127.9
566.636,1102.2
567.174,1101.9
567.711,1122.2
568.249,1110.1
568.787,1112.1
569.324,1117.9
569.862,1130.7
570.399,1144.3
570.936,1178.7
571.474,1207.9
572.011,1182.0
572.548,1150.1
573.084,1157.5
573.621,1149.8
574.158,1163.5
574.694,1168.8
575.231,1169.5
575.767,1160.2
576.303,1177.8
576.84,1185.8
577.376,1176.3
577.912,1171.0
578.447,1179.3
578.983,1173.7
579.519,1186.0
580.054,1193.5
580.59,1197.2
581.125,1203.7
581.661,1219.8
582.196,1521.0
582.731,1219.3
583.266,1214.9
583.801,1210.3
584.336,1212.8
584.87,1217.8
585.405,1256.3
585.94,1384.6
586.474,1330.0
587.008,1237.8
587.543,1228.8
588.077,1230.4
588.611,1231.1
589.145,1233.2
589.679,1233.5
590.213,1229.5
590.747,1226.7
591.28,1236.5
591.814,1238.2
592.347,1232.7
592.881,1232.1
593.414,1238.8
593.947,1238.9
594.48,1240.9
595.014,1248.7
595.547,1243.5
596.079,1245.0
596.612,1246.2
597.145,1244.2
597.678,1253.3
598.21,1249.0
598.743,1256.1
599.275,1252.3
599.807,1260.2
600.34,1255.6
600.872,1252.0
601.404,1249.8
601.936,1247.4
602.468,1253.7
603.0,1247.8
603.532,1252.5
604.063,1251.6
604.595,1249.8
605.126,1244.7
605.658,1237.0
606.189,1238.6
606.721,1236.9
607.252,1236.8
607.783,1245.5
608.314,1244.6
608.845,1244.4
609.376,1250.1
609.907,1241.5
610.438,1242.9
610.968,1239.3
611.499,1240.1
612.03,1242.5
612.56,1247.1
613.091,1255.4
613.621,1260.7
614.151,1257.0
614.681,1256.0
615.212,1249.1
615.742,1251.4
616.272,1250.3
616.802,1252.3
617.332,1264.4
617.861,1253.6
618.391,1260.6
618.921,1252.3
619.45,1260.7
619.98,1256.8
620.509,1247.3
621.039,1259.0
621.568,1262.4
622.097,1264.4
622.627,1262.0
623.156,1270.9
623.685,1267.4
624.214,1275.2
624.743,1273.5
625.272,1274.7
625.801,1274.0
626.33,1274.4
626.858,1271.0
627.387,1272.2
627.916,1280.7
628.444,1277.8
628.973,1290.6
629.501,1295.1
630.029,1287.5
630.558,1296.0
631.086,1307.4
631.614,1335.4
632.142,1337.7
632.67,1324.4
633.198,1317.2
633.726,1302.9
634.254,1306.4
634.782,1307.7
635.31,1314.8
635.838,1327.1
636.365,1356.7
636.893,1353.9
637.421,1331.6
637.948,1324.6
638.476,1316.8
639.003,1327.8
639.531,1318.8
640.058,1324.2
640.585,1338.6
641.113,1334.7
641.64,1328.5
642.167,1340.9
642.694,1335.1
643.221,1341.5
643.748,1331.5
644.275,1343.3
644.802,1333.6
645.329,1329.6
645.856,1333.7
646.382,1335.9
646.909,1340.1
647.436,1343.8
647.962,1343.8
648.489,1334.3
649.016,1347.1
649.542,1342.1
650.069,1334.6
650.595,1333.9
651.121,1333.6
651.648,1336.4
652.174,1336.8
652.7,1334.7
653.227,1327.9
653.753,1333.3
654.279,1329.3
654.805,1324.3
655.331,1326.5
655.857,1322.1
656.383,1316.6
656.909,1319.7
657.435,1316.4
657.961,1314.3
658.487,1322.8
659.013,1310.5
659.538,1315.7
660.064,1309.7
660.59,1303.6
661.116,1295.3
661.641,1296.6
662.167,1282.6
662.692,1300.6
663.087,1278.2

File: VLFR_06-PET_bio_Raman_55c0449b.csv
nm,Intensity
528.635,1840.0
529.14,1840.9
529.645,1841.8
530.151,1843.2
530.656,1844.2
531.161,1846.6
531.666,1893.6
532.171,4046.6
532.676,1851.9
533.181,1864.1
533.686,4715.7
534.191,10998.2
534.696,8840.6
535.201,6424.8
535.705,4738.3
536.21,3617.2
536.715,3169.7
537.219,2997.8
537.724,2910.6
538.228,2938.1
538.733,2922.3
539.237,2966.9
539.741,3195.5
540.246,2960.5
540.75,2679.7
541.254,2555.2
541.758,2563.8
542.262,2557.3
542.766,2578.0
543.27,2564.1
543.774,2641.4
544.278,2572.6
544.781,2569.9
545.285,2585.7
545.789,2607.6
546.292,2630.9
546.796,2611.5
547.299,2636.4
547.803,2660.0
548.306,2671.8
548.809,2687.7
549.313,2673.7
549.816,2677.5
550.319,2956.4
550.822,3535.3
551.325,2779.2
551.828,2774.5
552.331,2773.6
552.834,3432.5
553.337,2838.9
553.839,2846.6
554.342,2862.4
554.845,2896.4
555.347,3256.7
555.85,3574.7
556.352,3709.0
556.854,3801.5
557.357,5199.2
557.859,4474.0
558.361,4044.5
558.863,3597.6
559.365,3246.6
559.867,3145.4
560.369,3088.6
560.871,3187.9
561.373,3257.6
561.875,3325.3
562.377,3457.3
562.878,3591.0
563.38,3547.6
563.881,3378.4
564.383,3464.5
564.884,4013.3
565.386,4686.7
565.887,5045.9
566.388,3967.4
566.889,3534.7
567.391,3876.5
567.892,4118.9
568.393,3585.7
568.893,3559.7
569.394,3619.7
569.895,3935.9
570.396,4589.2
570.897,6068.3
571.397,7229.2
571.898,5420.8
572.398,4281.7
572.899,3893.3
573.399,3832.5
573.899,4067.7
574.399,3992.1
574.9,3996.2
575.4,4444.0
575.9,4002.0
576.4,4415.5
576.899,4362.4
577.399,3989.1
577.899,3895.7
578.399,3945.9
578.898,3876.4
579.398,3999.9
579.897,3977.5
580.397,4114.1
580.896,4391.6
581.396,4730.7
581.895,10809.5
582.394,9523.2
582.893,4450.3
583.392,4237.1
583.891,4293.4
584.39,4365.4
584.889,4533.1
585.387,6238.7
585.886,11233.7
586.385,8594.5
586.883,4959.6
587.382,4572.9
587.88,4384.2
588.379,4337.9
588.877,4368.2
589.375,4296.2
589.873,4338.2
590.371,4274.8
590.869,4326.5
591.367,4274.5
591.865,4329.0
592.363,4301.7
592.86,4351.4
593.358,4374.2
593.856,4349.7
594.353,4404.3
594.851,4344.9
595.348,4432.0
595.845,4444.1
596.342,4468.5
596.84,4506.4
597.337,4488.1
597.834,4401.3
598.331,4477.5
598.827,4456.8
599.324,4436.2
599.821,4474.6
600.318,4464.5
600.814,4485.7
601.311,4481.8
601.807,4513.6
602.303,4535.8
602.8,4517.1
603.296,4518.9
603.792,4506.7
604.288,4526.0
604.784,4575.7
605.28,4488.0
605.776,4471.0
606.272,4547.5
606.767,4601.6
607.263,4585.9
607.758,4559.4
608.254,4567.2
608.749,4564.6
609.244,4551.0
609.74,4542.4
610.235,4654.1
610.73,4580.5
611.225,4521.6
611.72,4638.1
612.215,4638.3
612.709,4579.8
613.204,4638.7
613.699,4639.3
614.193,4630.3
614.688,4664.2
615.182,4654.9
615.676,4657.2
616.171,4671.5
616.665,4695.0
617.159,4731.5
617.653,4818.0
618.147,4825.4
618.641,4794.4
619.134,4833.3
619.628,4729.5
620.122,4771.2
620.615,4763.4
621.109,4810.0
621.602,4879.1
622.095,4777.8
622.588,4928.8
623.082,4864.7
623.575,4835.4
624.068,4920.7
624.56,4963.1
625.053,4974.1
625.546,4993.4
626.039,4960.4
626.531,4958.0
627.024,4999.3
627.516,5032.8
628.008,5122.7
628.501,5232.4
628.993,5504.9
629.485,5436.4
629.977,5402.9
630.469,5465.2
630.961,6025.3
631.452,7150.9
631.944,7398.0
632.436,6643.1
632.927,6264.6
633.418,6145.6
633.91,5873.9
634.401,5799.4
634.892,5621.5
635.383,5788.2
635.874,6442.3
636.365,7768.8
636.856,7146.4
637.347,6029.3
637.837,5782.7
638.328,5783.6
638.818,5602.5
639.309,5601.9
639.799,5648.4
640.289,5577.2
640.78,5544.5
641.27,5627.7
641.76,5624.5
642.249,5686.7
642.739,5654.9
643.229,5583.3
643.719,5661.4
644.208,5724.6
644.698,5579.3
645.187,5600.8
645.676,5669.3
646.165,5750.8
646.655,5647.5
647.144,5659.7
647.633,5695.0
648.121,5772.9
648.61,5577.1
649.099,5779.0
649.587,5546.0
650.076,5559.0
650.564,5736.7
651.053,5591.9
651.541,5398.9
652.029,5457.7
652.517,5469.6
653.005,5447.2
653.493,5278.6
653.981,5303.7
654.468,5464.8
654.956,5518.2
655.444,5236.2
655.931,5316.1
656.418,5194.2
656.906,5218.6
657.393,5195.7
657.88,5124.5
658.367,5084.3
658.854,5159.0
659.341,4985.7
659.827,4922.0
660.314,4980.8
660.8,4923.7
661.044,4860.1

File: VLFR_06-PET_bio_Raman_67d1c0ba.csv
nm,Intensity
528.626,1868.3
529.132,1868.4
529.637,1871.3
530.143,1870.5
530.648,1871.5
531.153,1872.4
531.658,1899.0
532.164,4326.1
532.669,1874.1
533.174,1889.0
533.679,3787.0
534.184,9876.5
534.689,7454.3
535.194,5562.5
535.699,4140.9
536.203,3374.8
536.708,3013.9
537.213,2888.8
537.717,2789.6
538.222,2827.2
538.726,2846.3
539.231,2858.9
539.735,3044.9
540.239,2891.8
540.744,2681.6
541.248,2549.2
541.752,2547.5
542.256,2554.1
542.76,2583.6
543.264,2564.0
543.768,2588.0
544.272,2574.6
544.776,2581.9
545.28,2583.5
545.784,2584.8
546.287,2603.9
546.791,2634.5
547.294,2654.6
547.798,2667.6
548.301,2666.3
548.805,2709.1
549.308,2702.5
549.811,2687.9
550.315,2861.5
550.818,3538.9
551.321,2819.0
551.824,2816.7
552.327,2829.8
552.83,3358.8
553.333,2904.2
553.835,2934.4
554.338,2914.3
554.841,2947.6
555.343,3199.6
555.846,3513.8
556.349,3583.3
556.851,3682.7
557.353,4621.3
557.856,4299.4
558.358,3874.2
558.86,3612.7
559.362,3248.0
559.864,3205.5
560.366,3218.6
560.868,3248.3
561.37,3276.9
561.872,3398.6
562.374,3451.9
562.876,3611.5
563.377,3544.5
563.879,3409.7
564.38,3500.1
564.882,3869.2
565.383,4415.2
565.885,4810.2
566.386,4005.3
566.887,3612.0
567.388,3896.9
567.889,4189.3
568.391,3616.0
568.892,3654.7
569.392,3719.0
569.893,3998.8
570.394,4561.2
570.895,5723.4
571.395,6766.3
571.896,5362.3
572.397,4404.5
572.897,4006.8
573.397,3954.7
573.898,4182.8
574.398,4097.2
574.898,4127.2
575.398,4493.6
575.898,4169.8
576.398,4442.4
576.898,4407.5
577.398,4212.8
577.898,4081.6
578.398,4159.3
578.897,4117.2
579.397,4109.4
579.896,4214.1
580.396,4305.2
580.895,4407.4
581.395,4717.3
581.894,9289.0
582.393,9710.7
582.892,4568.1
583.391,4464.3
583.89,4500.7
584.389,4562.9
584.888,4583.7
585.387,5763.0
585.886,10029.5
586.384,8057.1
586.883,5099.1
587.381,4645.0
587.88,4498.3
588.378,4497.2
588.876,4531.8
589.375,4416.7
589.873,4463.5
590.371,4479.2
590.869,4440.8
591.367,4500.8
591.865,4589.1
592.363,4540.4
592.86,4460.9
593.358,4474.6
593.856,4559.5
594.353,4577.0
594.851,4522.8
595.348,4595.7
595.845,4623.8
596.342,4577.7
596.84,4638.8
597.337,4631.6
597.834,4598.0
598.331,4623.7
598.828,4583.9
599.324,4601.3
599.821,4651.5
600.318,4662.2
600.814,4646.9
601.311,4705.7
601.807,4645.7
602.304,4621.9
602.8,4658.6
603.296,4754.7
603.792,4802.2
604.288,4753.9
604.784,4726.6
605.28,4718.5
605.776,4783.1
606.272,4750.5
606.767,4769.3
607.263,4761.7
607.759,4734.6
608.254,4724.0
608.749,4737.4
609.245,4813.0
609.74,4797.0
610.235,4860.2
610.73,4722.2
611.225,4798.7
611.72,4786.0
612.215,4872.3
612.71,4799.4
613.204,4839.2
613.699,4888.8
614.194,4923.4
614.688,4882.8
615.182,4914.4
615.677,4943.9
616.171,4820.8
616.665,5006.6
617.159,4991.6
617.653,5132.9
618.147,5046.6
618.641,5070.3
619.135,5000.5
619.628,5121.8
620.122,4954.6
620.615,5014.6
621.109,5056.3
621.602,5066.0
622.095,5000.5
622.589,5047.6
623.082,5163.1
623.575,5057.0
624.068,5158.0
624.561,5287.0
625.053,5175.6
625.546,5234.7
626.039,5217.9
626.531,5168.6
627.024,5158.5
627.516,5316.2
628.008,5328.5
628.501,5584.6
628.993,5637.9
629.485,5668.5
629.977,5591.7
630.469,5608.4
630.96,6017.5
631.452,7158.1
631.944,7158.3
632.435,6653.5
632.927,6397.3
633.418,6259.6
633.91,6133.4
634.401,5865.5
634.892,5872.5
635.383,5955.7
635.874,6589.3
636.365,7509.9
636.856,7060.7
637.346,6374.9
637.837,5913.6
638.327,5884.3
638.818,5791.8
639.308,5856.5
639.799,5823.9
640.289,5903.0
640.779,5738.6
641.269,5764.8
641.759,5840.7
642.249,5912.3
642.738,6001.0
643.228,5842.0
643.718,5847.2
644.207,5881.1
644.697,5811.2
645.186,5820.5
645.675,5839.1
646.164,5932.9
646.653,5887.2
647.142,5831.4
647.631,5960.9
648.12,5856.4
648.609,5801.8
649.098,5934.9
649.586,5868.9
650.075,5800.2
650.563,5819.9
651.051,5691.8
651.539,5764.9
652.027,5746.6
652.515,5624.1
653.003,5660.5
653.491,5571.2
653.979,5533.3
654.467,5497.2
654.954,5501.7
655.442,5550.0
655.929,5451.8
656.416,5508.2
656.904,5350.7
657.391,5253.0
657.878,5241.8
658.365,5236.3
658.851,5183.9
659.338,5167.3
659.825,5091.3
660.311,5010.2
660.798,5065.8
661.041,5068.7

File: VLFR_06-PET_bio_Raman_76a80d0b.csv
nm,Intensity
526.493,828.8
527.039,829.65
527.586,829.25
528.133,829.5
528.679,828.95
529.225,828.5
529.771,829.65
530.317,828.95
530.863,828.95
531.409,828.4
531.955,829.7
532.5,829.2
533.046,829.2
533.591,840.3
534.136,2319.45
534.681,1913.3
535.226,1505.55
535.771,1262.45
536.315,1105.25
536.86,1043.05
537.404,1016.35
537.948,1008.75
538.493,1022.3
539.037,1010.55
539.58,1027.65
540.124,1043.15
540.668,991.65
541.211,975.5
541.755,970.3
542.298,974.8
542.841,970.2
543.384,973.8
543.927,985.0
544.47,981.9
545.013,986.4
545.555,985.7
546.098,985.85
546.64,992.6
547.182,994.7
547.724,999.85
548.266,999.35
548.808,1003.8
549.35,1001.6
549.892,1009.75
550.433,1028.7
550.974,1044.0
551.516,1021.9
552.057,1025.2
552.598,1035.85
553.139,1059.05
553.68,1039.95
554.22,1041.25
554.761,1047.1
555.301,1059.55
555.842,1123.95
556.382,1132.95
556.922,1143.85
557.462,1310.15
558.002,1178.65
558.542,1170.85
559.082,1115.95
559.621,1088.4
560.161,1085.05
560.7,1088.95
561.239,1098.45
561.778,1101.5
562.317,1122.2
562.856,1140.6
563.395,1146.05
563.934,1131.2
564.472,1152.2
565.011,1206.8
565.549,1284.75
566.088,1288.8
566.626,1175.7
567.164,1156.6
567.702,1255.7
568.24,1174.5
568.777,1170.15
569.315,1179.0
569.853,1213.1
570.39,1269.75
570.927,1422.9
571.465,1566.55
572.002,1385.4
572.539,1255.85
573.076,1226.65
573.612,1229.5
574.149,1264.0
574.686,1242.05
575.222,1277.05
575.759,1254.6
576.295,1281.75
576.831,1310.85
577.367,1268.15
577.903,1257.55
578.439,1262.05
578.975,1266.75
579.511,1270.35
580.046,1278.65
580.582,1289.85
581.117,1316.1
581.653,1413.6
582.188,2837.7
582.723,1383.4
583.258,1326.1
583.793,1321.85
584.328,1332.1
584.863,1351.35
585.398,1472.7
585.932,2128.15
586.467,1836.35
587.001,1418.55
587.535,1365.65
588.07,1358.05
588.604,1352.9
589.138,1357.2
589.672,1352.2
590.206,1355.9
590.739,1361.95
591.273,1361.75
591.807,1370.5
592.34,1364.5
592.873,1368.9
593.407,1368.0
593.94,1371.05
594.473,1376.2
595.006,1377.7
595.539,1392.85
596.072,1390.4
596.605,1390.55
597.138,1399.95
597.67,1400.25
598.203,1408.25
598.735,1411.6
599.268,1412.3
599.8,1415.55
600.332,1418.15
600.865,1411.25
601.397,1413.15
601.929,1417.45
602.46,1417.35
602.992,1425.45
603.524,1425.3
604.056,1428.8
604.587,1425.15
605.119,1416.6
605.65,1415.4
606.182,1416.65
606.713,1408.4
607.244,1423.6
607.775,1423.95
608.306,1433.35
608.837,1436.65
609.368,1433.25
609.899,1432.55
610.43,1439.5
610.961,1434.95
611.491,1450.85
612.022,1434.15
612.552,1451.7
613.083,1468.8
613.613,1467.35
614.143,1473.6
614.673,1477.1
615.203,1472.95
615.734,1479.65
616.263,1487.95
616.793,1488.2
617.323,1502.15
617.853,1510.0
618.383,1518.65
618.912,1510.8
619.442,1499.6
619.971,1500.75
620.501,1507.9
621.03,1506.0
621.56,1503.1
622.089,1511.8
622.618,1529.25
623.147,1531.4
623.676,1541.15
624.205,1557.0
624.734,1565.7
625.263,1565.55
625.792,1567.55
626.321,1568.65
626.849,1570.95
627.378,1582.8
627.906,1587.75
628.435,1616.8
628.963,1653.2
629.492,1658.9
630.02,1646.6
630.548,1657.7
631.077,1738.7
631.605,1906.7
632.133,1895.95
632.661,1801.85
633.189,1776.1
633.717,1760.5
634.245,1729.8
634.773,1716.5
635.3,1735.85
635.828,1815.5
636.356,1976.2
636.883,1993.9
637.411,1816.85
637.938,1776.1
638.466,1766.35
638.993,1774.75
639.521,1787.05
640.048,1783.2
640.575,1792.2
641.103,1801.8
641.63,1814.3
642.157,1824.8
642.684,1831.25
643.211,1815.1
643.738,1826.4
644.265,1821.6
644.792,1829.85
645.319,1825.05
645.845,1837.95
646.372,1846.25
646.899,1855.05
647.425,1865.95
647.952,1875.45
648.479,1870.35
649.005,1862.0
649.532,1867.4
650.058,1872.75
650.585,1870.85
651.111,1879.5
651.637,1877.35
652.164,1889.9
652.69,1888.3
653.216,1898.65
653.742,1908.2
654.268,1901.6
654.794,1909.25
655.32,1903.25
655.846,1910.85
656.372,1914.45
656.898,1911.3
657.424,1915.15
657.95,1911.95
658.476,1923.35
659.002,1913.6
659.528,1916.05
660.053,1922.95
660.579,1911.9
661.105,1908.7
661.63,1905.55
662.156,1898.15
662.681,1910.7
663.076,1899.65

File: VLFR_06-PET_bio_Raman_87abc64c.csv
nm,Intensity
526.547,831.5
527.095,831.55
527.642,831.75
528.189,831.55
528.736,832.1
529.283,832.6
529.829,832.85
530.376,832.65
530.922,831.95
531.468,833.55
532.014,837.8
532.56,833.45
533.106,833.0
533.651,843.0
534.196,1553.6
534.742,1349.3
535.287,1164.65
535.832,1056.3
536.376,989.05
536.921,966.7
537.465,953.55
538.01,951.6
538.554,953.95
539.098,953.55
539.642,961.6
540.186,970.55
540.729,948.25
541.273,944.0
541.816,943.4
542.36,941.85
542.903,945.0
543.446,950.75
543.988,953.75
544.531,953.75
545.074,956.35
545.616,958.3
546.158,960.2
546.701,962.65
547.243,961.0
547.785,967.7
548.326,968.7
548.868,972.25
549.41,975.35
549.951,978.0
550.492,995.85
551.034,988.1
551.575,989.65
552.116,992.3
552.656,998.95
553.197,1001.5
553.738,1001.0
554.278,1000.8
554.819,1008.35
555.359,1016.15
555.899,1042.4
556.439,1052.7
556.979,1056.55
557.519,1149.0
558.058,1074.6
558.598,1075.1
559.137,1047.45
559.677,1038.95
560.216,1039.85
560.755,1041.6
561.294,1051.8
561.833,1051.6
562.371,1066.05
562.91,1079.8
563.449,1079.6
563.987,1080.2
564.525,1083.55
565.064,1112.8
565.602,1158.05
566.14,1149.45
566.678,1100.35
567.216,1093.7
567.753,1145.4
568.291,1109.2
568.828,1105.85
569.366,1114.7
569.903,1135.7
570.44,1168.05
570.977,1240.95
571.514,1294.45
572.051,1213.25
572.588,1155.45
573.125,1144.5
573.661,1150.1
574.198,1169.85
574.734,1164.8
575.271,1186.35
575.807,1173.05
576.343,1190.7
576.879,1203.0
577.415,1184.25
577.951,1184.3
578.486,1188.2
579.022,1190.6
579.557,1193.55
580.093,1197.05
580.628,1205.65
581.164,1218.25
581.699,1272.65
582.234,1975.7
582.769,1249.05
583.304,1218.7
583.838,1225.4
584.373,1236.0
584.908,1246.45
585.442,1324.05
585.977,1629.2
586.511,1449.2
587.045,1280.4
587.58,1259.6
588.114,1260.55
588.648,1257.55
589.182,1259.4
589.715,1252.2
590.249,1261.85
590.783,1259.6
591.316,1263.8
591.85,1267.55
592.383,1263.0
592.917,1267.55
593.45,1267.5
593.983,1261.65
594.516,1274.45
595.049,1274.45
595.582,1277.2
596.115,1284.7
596.648,1281.7
597.18,1283.0
597.713,1293.15
598.245,1293.95
598.778,1296.0
599.31,1293.65
599.842,1302.45
600.375,1293.15
600.907,1298.8
601.439,1298.65
601.971,1297.5
602.503,1299.8
603.034,1299.9
603.566,1309.0
604.098,1303.95
604.629,1301.4
605.161,1305.85
605.692,1285.75
606.224,1288.85
606.755,1290.25
607.286,1301.15
607.817,1301.35
608.348,1298.75
608.879,1308.5
609.41,1298.3
609.941,1308.5
610.472,1306.55
611.002,1304.55
611.533,1304.8
612.063,1309.0
612.594,1315.1
613.124,1323.85
613.655,1331.2
614.185,1333.8
614.715,1330.0
615.245,1333.6
615.775,1338.4
616.305,1332.55
616.835,1338.4
617.365,1339.3
617.895,1350.9
618.425,1354.5
618.954,1351.2
619.484,1343.5
620.013,1347.3
620.543,1347.15
621.072,1355.15
621.602,1355.5
622.131,1359.75
622.66,1365.9
623.189,1370.45
623.718,1369.35
624.247,1375.2
624.776,1379.6
625.305,1385.45
625.834,1394.55
626.363,1388.45
626.891,1398.1
627.42,1394.85
627.949,1401.3
628.477,1418.4
629.006,1444.6
629.534,1440.2
630.062,1439.75
630.591,1447.05
631.119,1498.9
631.647,1581.85
632.175,1569.5
632.703,1518.65
633.231,1511.25
633.759,1497.9
634.287,1482.3
634.815,1473.9
635.343,1484.15
635.871,1539.85
636.398,1631.2
636.926,1613.2
637.454,1525.95
637.981,1514.25
638.509,1511.9
639.036,1506.95
639.564,1522.3
640.091,1523.3
640.618,1518.85
641.146,1524.95
641.673,1533.7
642.2,1546.05
642.727,1541.5
643.254,1525.35
643.781,1528.95
644.308,1526.95
644.835,1535.0
645.362,1539.75
645.889,1541.95
646.416,1543.75
646.942,1559.65
647.469,1552.75
647.996,1555.1
648.522,1554.25
649.049,1557.05
649.576,1561.85
650.102,1554.15
650.629,1554.25
651.155,1558.35
651.682,1563.55
652.208,1552.1
652.734,1565.05
653.261,1570.1
653.787,1573.5
654.313,1566.35
654.839,1573.55
655.365,1569.9
655.892,1574.1
656.418,1563.25
656.944,1572.75
657.47,1573.25
657.996,1577.3
658.522,1576.75
659.048,1584.0
659.574,1580.1
660.099,1577.1
660.625,1575.65
661.151,1570.15
661.677,1556.25
662.203,1555.85
662.728,1553.0
663.123,1553.05

File: VLFR_06-PET_bio_Raman_91f10249.csv
nm,Intensity
526.508,831.1
527.055,829.9
527.602,832.1
528.149,831.3
528.695,829.4
529.241,830.5
529.787,830.2
530.334,831.0
530.879,831.4
531.425,830.5
531.971,835.7
532.516,830.8
533.062,829.6
533.607,837.8
534.152,1638.9
534.697,1413.7
535.242,1195.3
535.786,1059.4
536.331,986.7
536.876,951.8
537.42,941.7
537.964,926.1
538.508,936.5
539.052,931.5
539.596,944.9
540.14,948.4
540.683,925.4
541.227,915.9
541.77,917.7
542.313,916.8
542.856,915.9
543.399,917.0
543.942,926.5
544.485,914.4
545.027,923.8
545.57,927.6
546.112,926.4
546.654,927.3
547.196,929.2
547.738,928.4
548.28,932.7
548.822,933.1
549.363,934.4
549.905,938.2
550.446,954.3
550.988,953.7
551.529,943.9
552.07,953.4
552.611,956.5
553.152,963.7
553.692,957.1
554.233,954.4
554.773,956.7
555.314,969.3
555.854,1004.3
556.394,1005.9
556.934,1009.8
557.474,1105.0
558.014,1032.3
558.553,1029.2
559.093,998.5
559.632,989.8
560.172,986.0
560.711,987.7
561.25,989.4
561.789,993.2
562.328,1005.6
562.867,1019.4
563.406,1019.0
563.944,1012.5
564.483,1016.6
565.021,1050.5
565.559,1093.0
566.098,1088.2
566.636,1034.5
567.174,1032.3
567.711,1085.4
568.249,1039.6
568.787,1040.0
569.324,1041.2
569.862,1063.6
570.399,1090.3
570.936,1177.6
571.474,1245.6
572.011,1144.3
572.548,1089.1
573.084,1070.7
573.621,1076.0
574.158,1092.6
574.694,1086.6
575.231,1104.4
575.767,1092.3
576.303,1105.8
576.84,1121.4
577.376,1102.1
577.912,1093.6
578.447,1106.2
578.983,1105.5
579.519,1100.3
580.054,1108.8
580.59,1118.7
581.125,1124.3
581.661,1176.7
582.196,1909.2
582.731,1157.5
583.266,1144.7
583.801,1133.2
584.336,1137.1
584.87,1144.6
585.405,1219.6
585.94,1550.1
586.474,1373.6
587.008,1183.3
587.543,1154.0
588.077,1152.0
588.611,1154.6
589.145,1157.5
589.679,1155.1
590.213,1153.6
590.747,1160.7
591.28,1164.3
591.814,1155.5
592.347,1172.5
592.881,1162.9
593.414,1167.9
593.947,1160.9
594.48,1168.4
595.014,1174.3
595.547,1175.3
596.079,1178.6
596.612,1187.3
597.145,1187.4
597.678,1186.0
598.21,1186.4
598.743,1190.1
599.275,1189.9
599.807,1190.0
600.34,1198.6
600.872,1185.2
601.404,1197.6
601.936,1189.3
602.468,1195.6
603.0,1191.4
603.532,1197.6
604.063,1198.4
604.595,1197.1
605.126,1199.3
605.658,1188.3
606.189,1195.4
606.721,1192.5
607.252,1191.4
607.783,1195.8
608.314,1201.4
608.845,1191.4
609.376,1204.4
609.907,1200.3
610.438,1204.1
610.968,1195.7
611.499,1201.8
612.03,1206.4
612.56,1215.2
613.091,1224.1
613.621,1216.5
614.151,1221.7
614.681,1222.4
615.212,1220.9
615.742,1222.6
616.272,1230.7
616.802,1227.2
617.332,1237.3
617.861,1233.7
618.391,1250.6
618.921,1240.8
619.45,1238.5
619.98,1233.4
620.509,1240.3
621.039,1240.2
621.568,1245.8
622.097,1247.4
622.627,1258.5
623.156,1263.4
623.685,1261.1
624.214,1261.0
624.743,1279.1
625.272,1271.3
625.801,1271.7
626.33,1272.0
626.858,1276.4
627.387,1281.9
627.916,1293.0
628.444,1292.9
628.973,1326.1
629.501,1313.9
630.029,1322.3
630.558,1327.4
631.086,1354.1
631.614,1437.5
632.142,1422.8
632.67,1396.3
633.198,1371.1
633.726,1370.0
634.254,1358.0
634.782,1348.9
635.31,1367.4
635.838,1406.7
636.365,1472.1
636.893,1466.1
637.421,1394.3
637.948,1391.3
638.476,1381.5
639.003,1380.7
639.531,1379.4
640.058,1401.0
640.585,1395.0
641.113,1409.6
641.64,1407.4
642.167,1420.4
642.694,1422.0
643.221,1406.8
643.748,1408.6
644.275,1405.1
644.802,1408.6
645.329,1411.8
645.856,1417.4
646.382,1423.2
646.909,1441.8
647.436,1431.7
647.962,1430.9
648.489,1431.1
649.016,1439.3
649.542,1427.1
650.069,1435.3
650.595,1431.1
651.121,1430.1
651.648,1437.4
652.174,1445.7
652.7,1439.4
653.227,1448.3
653.753,1442.9
654.279,1449.3
654.805,1439.8
655.331,1446.5
655.857,1440.6
656.383,1436.5
656.909,1448.8
657.435,1454.0
657.961,1448.6
658.487,1450.3
659.013,1447.6
659.538,1449.4
660.064,1449.6
660.59,1440.8
661.116,1435.6
661.641,1428.1
662.167,1438.5
662.692,1437.4
663.087,1430.1