Folder: MPX_specDB/spectra (part 73)

File: VLFR_06-PET_bio_Raman_93c6b4bd.csv
nm,Intensity
526.508,830.0
527.055,829.6
527.602,830.7
528.149,829.1
528.695,828.4
529.241,828.4
529.787,829.0
530.334,829.2
530.879,829.9
531.425,830.0
531.971,830.2
532.516,830.6
533.062,829.1
533.607,832.5
534.152,1412.6
534.697,1255.3
535.242,1101.4
535.786,1009.2
536.331,954.6
536.876,932.0
537.42,926.6
537.964,921.5
538.508,927.6
539.052,923.0
539.596,933.0
540.14,936.9
540.683,919.9
541.227,916.8
541.77,912.5
542.313,913.3
542.856,918.1
543.399,915.8
543.942,923.3
544.485,920.7
545.027,926.5
545.57,924.0
546.112,926.1
546.654,927.1
547.196,929.5
547.738,928.8
548.28,937.0
548.822,934.1
549.363,936.1
549.905,937.9
550.446,944.7
550.988,952.6
551.529,942.5
552.07,950.6
552.611,951.0
553.152,957.7
553.692,952.5
554.233,953.7
554.773,960.3
555.314,963.5
555.854,985.1
556.394,980.1
556.934,996.0
557.474,1063.6
558.014,1016.6
558.553,1010.2
559.093,986.5
559.632,973.3
560.172,980.5
560.711,981.3
561.25,990.3
561.789,985.5
562.328,1001.7
562.867,1005.0
563.406,1012.8
563.944,1009.1
564.483,1014.8
565.021,1035.5
565.559,1062.6
566.098,1073.7
566.636,1028.0
567.174,1021.7
567.711,1057.0
568.249,1030.0
568.787,1030.3
569.324,1033.0
569.862,1052.9
570.399,1067.1
570.936,1130.4
571.474,1187.1
572.011,1113.6
572.548,1067.3
573.084,1058.3
573.621,1064.9
574.158,1077.8
574.694,1073.0
575.231,1089.7
575.767,1068.6
576.303,1089.6
576.84,1108.9
577.376,1083.7
577.912,1083.9
578.447,1091.3
578.983,1093.3
579.519,1089.3
580.054,1096.6
580.59,1098.8
581.125,1109.5
581.661,1148.8
582.196,1700.2
582.731,1140.2
583.266,1123.9
583.801,1114.2
584.336,1126.2
584.87,1138.4
585.405,1187.6
585.94,1436.4
586.474,1312.5
587.008,1157.7
587.543,1149.0
588.077,1143.5
588.611,1137.6
589.145,1142.9
589.679,1146.2
590.213,1147.1
590.747,1148.8
591.28,1150.3
591.814,1155.2
592.347,1152.0
592.881,1145.9
593.414,1158.7
593.947,1154.3
594.48,1152.8
595.014,1158.4
595.547,1161.2
596.079,1160.2
596.612,1166.6
597.145,1167.0
597.678,1171.4
598.21,1169.3
598.743,1174.4
599.275,1177.6
599.807,1174.0
600.34,1170.3
600.872,1174.6
601.404,1173.3
601.936,1178.0
602.468,1179.9
603.0,1181.5
603.532,1183.3
604.063,1182.6
604.595,1176.6
605.126,1178.4
605.658,1175.7
606.189,1167.0
606.721,1175.5
607.252,1174.8
607.783,1171.6
608.314,1185.0
608.845,1186.0
609.376,1182.6
609.907,1179.9
610.438,1180.8
610.968,1186.4
611.499,1182.9
612.03,1188.4
612.56,1188.3
613.091,1197.9
613.621,1197.5
614.151,1196.6
614.681,1207.7
615.212,1199.8
615.742,1201.7
616.272,1206.1
616.802,1200.7
617.332,1208.3
617.861,1217.8
618.391,1217.6
618.921,1220.1
619.45,1210.7
619.98,1217.2
620.509,1216.1
621.039,1221.7
621.568,1224.3
622.097,1225.2
622.627,1221.1
623.156,1225.3
623.685,1228.4
624.214,1238.0
624.743,1245.0
625.272,1244.4
625.801,1251.9
626.33,1251.1
626.858,1252.0
627.387,1249.7
627.916,1266.3
628.444,1270.3
628.973,1288.9
629.501,1292.3
630.029,1293.3
630.558,1299.0
631.086,1326.5
631.614,1400.9
632.142,1404.0
632.67,1346.5
633.198,1354.4
633.726,1346.7
634.254,1321.3
634.782,1319.6
635.31,1327.2
635.838,1367.5
636.365,1435.2
636.893,1438.6
637.421,1368.9
637.948,1356.9
638.476,1356.5
639.003,1352.1
639.531,1357.4
640.058,1361.3
640.585,1368.3
641.113,1369.1
641.64,1366.6
642.167,1383.9
642.694,1381.1
643.221,1379.2
643.748,1381.0
644.275,1382.5
644.802,1379.1
645.329,1379.0
645.856,1383.7
646.382,1380.1
646.909,1393.6
647.436,1403.0
647.962,1403.8
648.489,1395.6
649.016,1395.6
649.542,1394.4
650.069,1395.4
650.595,1404.3
651.121,1410.4
651.648,1404.8
652.174,1406.9
652.7,1397.7
653.227,1411.0
653.753,1411.2
654.279,1405.9
654.805,1417.1
655.331,1409.4
655.857,1422.9
656.383,1426.7
656.909,1420.6
657.435,1418.5
657.961,1415.0
658.487,1418.1
659.013,1417.1
659.538,1421.3
660.064,1426.9
660.59,1417.5
661.116,1410.0
661.641,1405.6
662.167,1405.2
662.692,1397.0
663.087,1397.8

File: VLFR_06-PET_bio_Raman_95da8dbb.csv
nm,Intensity
528.637,1840.3
529.143,1839.0
529.648,1837.8
530.153,1839.8
530.659,1838.4
531.164,1844.7
531.669,1903.0
532.174,3937.7
532.679,1844.1
533.184,1849.9
533.689,3263.7
534.194,5954.4
534.699,4994.5
535.203,3973.4
535.708,3256.3
536.213,2772.6
536.717,2634.8
537.222,2558.6
537.726,2498.4
538.231,2525.2
538.735,2518.1
539.24,2581.0
539.744,2653.9
540.248,2612.2
540.752,2477.6
541.256,2437.6
541.761,2441.8
542.265,2451.9
542.769,2469.5
543.272,2450.0
543.776,2496.2
544.28,2502.9
544.784,2487.5
545.288,2512.1
545.791,2528.7
546.295,2547.0
546.798,2576.7
547.302,2581.4
547.805,2587.3
548.308,2617.1
548.812,2618.0
549.315,2601.9
549.818,2620.7
550.321,2734.5
550.824,3003.9
551.327,2715.7
551.83,2724.6
552.333,2780.3
552.836,3038.1
553.339,2771.2
553.842,2824.1
554.344,2826.7
554.847,2852.7
555.349,3050.5
555.852,3184.5
556.354,3219.2
556.857,3304.9
557.359,3905.7
557.861,3542.6
558.363,3387.8
558.866,3265.0
559.368,3090.3
559.87,3056.2
560.372,3063.4
560.873,3120.8
561.375,3185.2
561.877,3217.5
562.379,3272.7
562.88,3393.7
563.382,3322.0
563.883,3280.2
564.385,3378.0
564.886,3620.2
565.388,3857.3
565.889,4071.5
566.39,3593.0
566.891,3467.3
567.392,3634.1
567.893,3700.8
568.394,3501.7
568.895,3511.2
569.396,3566.7
569.897,3727.3
570.398,4072.0
570.898,4685.3
571.399,5069.6
571.899,4401.3
572.4,3953.4
572.9,3755.6
573.4,3739.3
573.901,3857.3
574.401,3800.7
574.901,3827.0
575.401,3992.6
575.901,3951.1
576.401,4126.0
576.901,4104.1
577.401,3943.0
577.9,3856.7
578.4,3921.3
578.9,3884.2
579.399,3940.6
579.899,4020.3
580.398,4002.7
580.897,4137.3
581.397,4287.8
581.896,7187.0
582.395,6227.7
582.894,4192.1
583.393,4074.4
583.892,4159.1
584.391,4250.7
584.889,4320.1
585.388,5049.0
585.887,7317.8
586.385,6130.7
586.884,4536.5
587.382,4332.2
587.881,4320.0
588.379,4327.8
588.877,4285.5
589.375,4224.5
589.874,4246.7
590.372,4213.4
590.87,4173.1
591.367,4277.4
591.865,4323.8
592.363,4289.7
592.861,4307.3
593.358,4309.5
593.856,4329.2
594.353,4339.3
594.851,4290.6
595.348,4363.7
595.845,4333.9
596.342,4387.5
596.84,4442.5
597.337,4416.8
597.833,4387.8
598.33,4445.8
598.827,4387.1
599.324,4426.1
599.821,4416.4
600.317,4503.1
600.814,4502.0
601.31,4434.6
601.807,4482.3
602.303,4430.5
602.799,4502.2
603.295,4478.0
603.791,4525.1
604.287,4436.0
604.783,4437.2
605.279,4443.8
605.775,4492.1
606.271,4439.1
606.766,4559.4
607.262,4498.1
607.757,4564.0
608.253,4502.9
608.748,4511.5
609.243,4593.5
609.738,4516.7
610.233,4574.3
610.729,4542.8
611.223,4523.7
611.718,4489.7
612.213,4533.4
612.708,4514.7
613.202,4521.6
613.697,4539.4
614.192,4575.4
614.686,4606.2
615.18,4566.7
615.675,4651.9
616.169,4538.5
616.663,4603.0
617.157,4643.9
617.651,4676.7
618.145,4661.7
618.638,4637.5
619.132,4720.6
619.626,4715.6
620.119,4614.2
620.613,4691.0
621.106,4700.9
621.599,4636.1
622.093,4747.0
622.586,4688.1
623.079,4662.5
623.572,4707.3
624.065,4826.5
624.558,4774.4
625.05,4908.1
625.543,4735.5
626.036,4810.8
626.528,4787.7
627.02,4749.0
627.513,4925.9
628.005,4882.3
628.497,5078.1
628.989,5063.8
629.481,5083.4
629.973,5072.7
630.465,5060.9
630.957,5269.9
631.449,5848.1
631.94,5901.7
632.432,5559.8
632.923,5399.0
633.414,5439.2
633.906,5432.2
634.397,5233.7
634.888,5256.7
635.379,5252.0
635.87,5586.4
636.361,6185.2
636.852,5813.1
637.342,5405.1
637.833,5385.9
638.323,5304.9
638.814,5297.9
639.304,5290.6
639.794,5273.0
640.285,5241.8
640.775,5302.3
641.265,5215.1
641.755,5365.2
642.244,5296.6
642.734,5191.4
643.224,5229.3
643.713,5298.0
644.203,5273.5
644.692,5219.2
645.181,5183.4
645.671,5269.7
646.16,5286.1
646.649,5166.5
647.138,5252.6
647.627,5278.6
648.115,5228.0
648.604,5129.9
649.093,5170.5
649.581,5114.0
650.07,5048.3
650.558,5037.8
651.046,5195.6
651.534,5062.5
652.023,5067.2
652.511,5004.5
652.998,4845.3
653.486,4935.6
653.974,4941.3
654.462,4816.0
654.949,4874.9
655.437,4890.9
655.924,4745.6
656.411,4724.4
656.898,4761.6
657.385,4814.5
657.872,4621.7
658.359,4694.2
658.846,4597.9
659.333,4535.7
659.82,4440.1
660.306,4481.7
660.793,4511.2
661.036,4440.6

File: VLFR_06-PET_bio_Raman_121a4420.csv
nm,Intensity
526.549,831.95
527.096,832.2
527.643,831.6
528.19,831.85
528.737,831.35
529.283,831.35
529.83,830.65
530.376,832.55
530.922,830.95
531.468,832.05
532.014,843.45
532.559,832.85
533.105,832.0
533.65,833.85
534.196,917.2
534.741,907.7
535.286,892.65
535.83,884.4
536.375,883.0
536.92,883.65
537.464,884.85
538.008,885.8
538.553,887.5
539.097,887.4
539.641,890.35
540.184,890.2
540.728,889.8
541.271,889.1
541.815,889.0
542.358,892.2
542.901,893.4
543.444,895.7
543.987,897.2
544.53,895.65
545.072,894.85
545.615,897.15
546.157,896.25
546.699,898.7
547.242,899.0
547.784,900.5
548.325,898.35
548.867,901.15
549.409,901.0
549.95,901.95
550.492,904.25
551.033,903.65
551.574,902.75
552.115,902.65
552.656,906.25
553.197,905.6
553.737,906.2
554.278,909.35
554.818,908.15
555.358,910.0
555.899,913.45
556.439,910.2
556.979,912.95
557.518,921.05
558.058,913.1
558.598,912.55
559.137,916.95
559.677,915.15
560.216,918.75
560.755,919.7
561.294,918.6
561.833,918.35
562.372,920.5
562.91,922.3
563.449,925.9
563.987,924.75
564.526,927.85
565.064,929.55
565.602,936.9
566.14,932.75
566.678,935.75
567.216,931.95
567.754,939.2
568.291,937.15
568.829,941.05
569.366,939.45
569.904,938.7
570.441,945.55
570.978,951.1
571.515,952.8
572.052,949.65
572.589,945.7
573.125,950.85
573.662,954.15
574.199,954.25
574.735,955.0
575.271,957.0
575.807,956.55
576.344,959.5
576.88,963.45
577.415,961.8
577.951,964.4
578.487,962.15
579.023,970.15
579.558,968.35
580.094,970.15
580.629,971.3
581.164,971.0
581.699,975.9
582.234,1022.5
582.769,977.65
583.304,976.2
583.839,979.65
584.374,982.4
584.908,980.4
585.443,984.3
585.977,1012.85
586.511,997.65
587.046,992.0
587.58,987.2
588.114,981.05
588.648,985.95
589.182,985.95
589.716,988.25
590.249,986.95
590.783,990.25
591.316,990.45
591.85,987.3
592.383,989.0
592.917,992.3
593.45,987.25
593.983,986.65
594.516,987.8
595.049,991.7
595.582,993.0
596.115,995.0
596.647,993.15
597.18,993.1
597.712,995.15
598.245,998.05
598.777,995.25
599.31,999.0
599.842,996.95
600.374,996.65
600.906,993.9
601.438,996.85
601.97,993.65
602.502,995.8
603.034,995.1
603.565,995.55
604.097,996.5
604.628,992.7
605.16,996.3
605.691,989.75
606.223,992.1
606.754,992.25
607.285,991.4
607.816,991.8
608.347,994.95
608.878,993.7
609.409,996.75
609.94,995.95
610.47,997.3
611.001,996.6
611.532,999.45
612.062,998.25
612.593,998.8
613.123,1003.95
613.653,1005.25
614.184,1006.1
614.714,1007.05
615.244,1008.05
615.774,1005.8
616.304,1001.85
616.834,1002.85
617.364,1007.25
617.894,1006.7
618.423,1007.0
618.953,1007.8
619.482,1009.6
620.012,1007.55
620.541,1007.8
621.071,1006.65
621.6,1008.0
622.13,1010.85
622.659,1012.55
623.188,1014.85
623.717,1013.55
624.246,1016.9
624.775,1017.8
625.304,1021.15
625.833,1015.1
626.362,1016.9
626.89,1020.4
627.419,1018.65
627.948,1021.2
628.476,1022.3
629.005,1023.55
629.533,1024.15
630.061,1023.3
630.59,1027.8
631.118,1032.25
631.646,1035.4
632.175,1036.55
632.703,1033.35
633.231,1031.1
633.759,1030.4
634.287,1032.0
634.815,1028.9
635.342,1032.7
635.87,1034.85
636.398,1045.75
636.926,1043.9
637.453,1036.6
637.981,1031.6
638.509,1032.4
639.036,1034.95
639.563,1033.65
640.091,1041.2
640.618,1037.2
641.146,1038.5
641.673,1041.45
642.2,1037.15
642.727,1037.45
643.254,1031.15
643.781,1034.9
644.309,1031.05
644.836,1036.15
645.362,1035.3
645.889,1034.8
646.416,1035.65
646.943,1030.1
647.47,1037.9
647.997,1038.2
648.523,1036.85
649.05,1038.25
649.577,1033.6
650.103,1030.1
650.63,1029.85
651.156,1029.65
651.683,1030.9
652.209,1034.15
652.735,1033.0
653.262,1030.85
653.788,1029.3
654.314,1029.25
654.841,1029.9
655.367,1029.75
655.893,1029.35
656.419,1025.95
656.945,1028.2
657.471,1027.55
657.997,1027.85
658.523,1028.45
659.049,1027.25
659.575,1028.85
660.101,1027.55
660.627,1025.9
661.153,1024.5
661.679,1019.25
662.205,1017.05
662.731,1017.45
663.125,1017.1

File: VLFR_06-PET_bio_Raman_362aa3ba.csv
nm,Intensity
526.508,829.5
527.055,829.7
527.602,830.3
528.149,830.8
528.695,830.5
529.241,832.6
529.787,831.2
530.334,830.5
530.879,830.4
531.425,830.9
531.971,836.1
532.516,832.2
533.062,830.2
533.607,832.9
534.152,984.1
534.697,950.8
535.242,923.0
535.786,899.8
536.331,890.6
536.876,882.0
537.42,878.9
537.964,881.8
538.508,880.8
539.052,881.9
539.596,882.1
540.14,883.9
540.683,878.5
541.227,879.0
541.77,881.2
542.313,879.0
542.856,880.1
543.399,883.2
543.942,883.3
544.485,886.6
545.027,886.2
545.57,883.2
546.112,886.9
546.654,888.7
547.196,886.4
547.738,887.3
548.28,888.4
548.822,888.7
549.363,894.0
549.905,888.6
550.446,895.1
550.988,894.3
551.529,891.8
552.07,896.4
552.611,901.7
553.152,896.1
553.692,894.9
554.233,899.3
554.773,898.8
555.314,900.3
555.854,906.6
556.394,904.4
556.934,909.2
557.474,927.1
558.014,917.7
558.553,914.0
559.093,909.5
559.632,907.4
560.172,908.6
560.711,912.1
561.25,910.4
561.789,912.5
562.328,917.3
562.867,914.1
563.406,919.4
563.944,920.7
564.483,924.1
565.021,931.2
565.559,936.9
566.098,934.2
566.636,928.8
567.174,924.3
567.711,931.5
568.249,931.5
568.787,927.3
569.324,935.3
569.862,935.0
570.399,934.0
570.936,958.2
571.474,969.0
572.011,951.0
572.548,943.4
573.084,943.2
573.621,949.1
574.158,949.2
574.694,943.2
575.231,951.2
575.767,948.5
576.303,946.7
576.84,957.5
577.376,951.3
577.912,952.2
578.447,955.0
578.983,959.9
579.519,959.1
580.054,956.7
580.59,960.1
581.125,963.8
581.661,969.7
582.196,1099.8
582.731,973.2
583.266,966.3
583.801,965.6
584.336,969.3
584.87,976.2
585.405,983.1
585.94,1042.2
586.474,1014.4
587.008,982.6
587.543,975.8
588.077,974.3
588.611,978.8
589.145,973.3
589.679,970.6
590.213,975.1
590.747,977.6
591.28,979.6
591.814,980.2
592.347,980.2
592.881,977.6
593.414,980.9
593.947,978.0
594.48,981.6
595.014,987.6
595.547,986.1
596.079,988.6
596.612,988.0
597.145,990.0
597.678,985.3
598.21,992.6
598.743,986.4
599.275,989.7
599.807,993.3
600.34,989.2
600.872,986.6
601.404,987.1
601.936,993.3
602.468,990.2
603.0,994.5
603.532,997.4
604.063,991.8
604.595,989.7
605.126,990.0
605.658,988.7
606.189,992.5
606.721,985.3
607.252,991.2
607.783,990.4
608.314,998.7
608.845,996.5
609.376,994.9
609.907,992.6
610.438,991.9
610.968,992.2
611.499,992.7
612.03,995.0
612.56,998.8
613.091,998.6
613.621,999.6
614.151,1006.5
614.681,1000.8
615.212,999.9
615.742,1006.9
616.272,999.2
616.802,1000.7
617.332,1010.1
617.861,1008.9
618.391,1006.4
618.921,1015.1
619.45,1009.3
619.98,1005.0
620.509,1003.6
621.039,1008.5
621.568,1006.7
622.097,1007.4
622.627,1009.7
623.156,1010.9
623.685,1015.0
624.214,1013.7
624.743,1018.2
625.272,1013.2
625.801,1015.9
626.33,1021.6
626.858,1023.1
627.387,1018.5
627.916,1021.5
628.444,1020.3
628.973,1020.6
629.501,1033.7
630.029,1026.3
630.558,1033.8
631.086,1037.8
631.614,1055.0
632.142,1054.6
632.67,1040.1
633.198,1041.9
633.726,1038.9
634.254,1032.1
634.782,1041.0
635.31,1043.6
635.838,1043.9
636.365,1061.7
636.893,1062.1
637.421,1046.6
637.948,1045.4
638.476,1048.3
639.003,1050.3
639.531,1048.2
640.058,1047.7
640.585,1055.7
641.113,1051.3
641.64,1054.3
642.167,1060.9
642.694,1059.1
643.221,1058.4
643.748,1051.9
644.275,1054.7
644.802,1047.0
645.329,1056.4
645.856,1053.1
646.382,1056.0
646.909,1062.4
647.436,1063.4
647.962,1062.7
648.489,1062.3
649.016,1058.1
649.542,1063.7
650.069,1059.8
650.595,1059.1
651.121,1059.1
651.648,1057.2
652.174,1058.8
652.7,1058.9
653.227,1058.7
653.753,1062.0
654.279,1055.0
654.805,1054.4
655.331,1055.3
655.857,1059.9
656.383,1056.6
656.909,1052.2
657.435,1053.9
657.961,1047.1
658.487,1053.0
659.013,1050.6
659.538,1049.0
660.064,1052.1
660.59,1048.0
661.116,1045.5
661.641,1044.8
662.167,1044.5
662.692,1044.2
663.087,1040.0

File: VLFR_06-PET_bio_Raman_397dbc13.csv
nm,Intensity
526.547,832.3
527.095,832.6
527.642,832.45
528.189,832.1
528.736,831.45
529.283,831.9
529.829,832.65
530.376,833.1
530.922,831.9
531.468,832.5
532.014,839.8
532.56,833.55
533.106,834.0
533.651,851.5
534.196,2003.6
534.742,1643.45
535.287,1334.85
535.832,1147.75
536.376,1040.35
536.921,996.55
537.465,981.25
538.01,974.75
538.554,976.9
539.098,974.05
539.642,989.05
540.186,994.8
540.729,957.35
541.273,946.35
541.816,942.2
542.36,945.8
542.903,944.45
543.446,946.85
543.988,956.8
544.531,950.25
545.074,954.5
545.616,954.65
546.158,952.45
546.701,959.05
547.243,963.55
547.785,963.2
548.326,966.95
548.868,970.9
549.41,971.95
549.951,974.35
550.492,1001.75
551.034,991.95
551.575,985.8
552.116,989.05
552.656,1000.0
553.197,1010.4
553.738,998.8
554.278,1000.35
554.819,1003.7
555.359,1017.1
555.899,1060.55
556.439,1072.8
556.979,1087.25
557.519,1233.35
558.058,1099.9
558.598,1105.75
559.137,1054.8
559.677,1037.35
560.216,1038.9
560.755,1042.55
561.294,1046.05
561.833,1056.45
562.371,1065.8
562.91,1084.8
563.449,1088.65
563.987,1077.25
564.525,1087.05
565.064,1138.2
565.602,1200.05
566.14,1193.25
566.678,1104.55
567.216,1095.8
567.753,1175.6
568.291,1109.2
568.828,1108.45
569.366,1109.2
569.903,1140.1
570.44,1196.2
570.977,1318.1
571.514,1409.5
572.051,1270.85
572.588,1167.8
573.125,1145.55
573.661,1153.55
574.198,1178.85
574.734,1161.95
575.271,1199.55
575.807,1171.8
576.343,1205.4
576.879,1215.25
577.415,1180.85
577.951,1171.75
578.486,1181.7
579.022,1182.95
579.557,1183.25
580.093,1192.2
580.628,1202.7
581.164,1215.05
581.699,1319.45
582.234,2463.1
582.769,1262.5
583.304,1230.55
583.838,1219.7
584.373,1233.55
584.908,1252.1
585.442,1382.85
585.977,1872.8
586.511,1565.3
587.045,1292.25
587.58,1258.4
588.114,1247.05
588.648,1248.35
589.182,1246.05
589.715,1247.7
590.249,1254.35
590.783,1255.1
591.316,1259.55
591.85,1255.2
592.383,1260.0
592.917,1254.2
593.45,1259.85
593.983,1263.15
594.516,1261.95
595.049,1268.0
595.582,1265.45
596.115,1272.05
596.648,1278.45
597.18,1273.45
597.713,1282.0
598.245,1285.05
598.778,1291.75
599.31,1293.95
599.842,1287.05
600.375,1288.15
600.907,1290.3
601.439,1292.35
601.971,1288.7
602.503,1290.2
603.034,1295.35
603.566,1296.55
604.098,1292.7
604.629,1294.85
605.161,1295.1
605.692,1286.55
606.224,1279.55
606.755,1287.35
607.286,1288.3
607.817,1290.45
608.348,1301.55
608.879,1298.15
609.41,1302.4
609.941,1299.7
610.472,1303.25
611.002,1300.95
611.533,1301.15
612.063,1307.75
612.594,1313.8
613.124,1321.6
613.655,1328.2
614.185,1328.3
614.715,1330.4
615.245,1330.65
615.775,1332.3
616.305,1335.3
616.835,1337.0
617.365,1340.5
617.895,1353.85
618.425,1355.4
618.954,1347.55
619.484,1348.7
620.013,1350.5
620.543,1344.75
621.072,1350.7
621.602,1345.6
622.131,1360.15
622.66,1373.1
623.189,1373.05
623.718,1380.15
624.247,1386.4
624.776,1391.0
625.305,1396.75
625.834,1401.05
626.363,1396.85
626.891,1397.2
627.42,1407.0
627.949,1413.35
628.477,1435.4
629.006,1465.5
629.534,1464.65
630.062,1461.8
630.591,1469.4
631.119,1540.15
631.647,1683.55
632.175,1648.75
632.703,1569.85
633.231,1559.85
633.759,1537.2
634.287,1511.25
634.815,1504.0
635.343,1519.0
635.871,1597.75
636.398,1722.5
636.926,1698.15
637.454,1563.65
637.981,1543.15
638.509,1537.35
639.036,1544.35
639.564,1546.85
640.091,1541.6
640.618,1546.6
641.146,1553.3
641.673,1557.3
642.2,1564.1
642.727,1575.25
643.254,1576.65
643.781,1564.8
644.308,1566.15
644.835,1562.45
645.362,1562.95
645.889,1573.55
646.416,1577.3
646.942,1584.85
647.469,1581.7
647.996,1593.6
648.522,1584.9
649.049,1591.5
649.576,1595.65
650.102,1590.7
650.629,1593.5
651.155,1591.5
651.682,1599.45
652.208,1604.7
652.734,1605.05
653.261,1614.7
653.787,1612.15
654.313,1612.3
654.839,1609.6
655.365,1612.85
655.892,1612.65
656.418,1614.9
656.944,1615.55
657.47,1619.15
657.996,1620.55
658.522,1624.45
659.048,1622.15
659.574,1623.3
660.099,1626.65
660.625,1614.1
661.151,1613.65
661.677,1603.5
662.203,1602.6
662.728,1607.35
663.123,1603.2

File: VLFR_06-PET_bio_Raman_0457d4d7.csv
nm,Intensity
528.635,1841.2
529.14,1841.3
529.645,1843.1
530.151,1843.4
530.656,1842.7
531.161,1848.1
531.666,1887.7
532.171,4280.4
532.676,1850.0
533.181,1866.2
533.686,4503.5
534.191,10430.8
534.696,8231.5
535.201,6081.9
535.705,4632.1
536.21,3650.3
536.715,3342.2
537.219,3130.3
537.724,3051.0
538.228,3080.6
538.733,3114.7
539.237,3149.8
539.741,3351.2
540.246,3125.7
540.75,2898.5
541.254,2819.2
541.758,2809.0
542.262,2835.0
542.766,2838.4
543.27,2807.5
543.774,2913.7
544.278,2869.3
544.781,2843.4
545.285,2881.9
545.789,2889.7
546.292,2938.8
546.796,2923.5
547.299,2949.4
547.803,2961.4
548.306,3019.9
548.809,2993.4
549.313,2972.1
549.816,2996.7
550.319,3229.3
550.822,3828.5
551.325,3148.0
551.828,3097.9
552.331,3183.6
552.834,3735.1
553.337,3158.8
553.839,3221.2
554.342,3247.3
554.845,3288.0
555.347,3569.2
555.85,3921.9
556.352,4011.4
556.854,4131.9
557.357,5382.3
557.859,4653.3
558.361,4410.6
558.863,4055.7
559.365,3611.1
559.867,3584.6
560.369,3563.7
560.871,3593.4
561.373,3720.2
561.875,3757.0
562.377,3899.9
562.878,4049.4
563.38,3994.1
563.881,3884.4
564.383,4000.5
564.884,4413.3
565.386,5115.1
565.887,5349.0
566.388,4486.1
566.889,4038.5
567.391,4403.2
567.892,4682.1
568.393,4151.9
568.893,4141.1
569.394,4259.9
569.895,4510.9
570.396,5222.4
570.897,6518.4
571.397,7509.6
571.898,5910.7
572.398,4904.9
572.899,4528.4
573.399,4442.6
573.899,4792.3
574.399,4658.8
574.9,4712.8
575.4,5148.6
575.9,4761.4
576.4,5097.4
576.899,5119.3
577.399,4749.2
577.899,4703.8
578.399,4778.7
578.898,4729.9
579.398,4830.2
579.897,4921.2
580.397,4921.2
580.896,5250.5
581.396,5536.5
581.895,11207.7
582.394,10028.9
582.893,5305.6
583.392,5115.6
583.891,5185.1
584.39,5254.7
584.889,5492.2
585.387,7070.8
585.886,11728.2
586.385,9303.0
586.883,5832.2
587.382,5504.6
587.88,5326.5
588.379,5336.2
588.877,5342.3
589.375,5399.4
589.873,5367.7
590.371,5240.3
590.869,5329.7
591.367,5289.0
591.865,5365.2
592.363,5321.0
592.86,5358.5
593.358,5435.3
593.856,5384.9
594.353,5387.6
594.851,5435.2
595.348,5543.6
595.845,5505.0
596.342,5480.2
596.84,5530.6
597.337,5493.0
597.834,5488.4
598.331,5533.0
598.827,5449.2
599.324,5654.3
599.821,5528.6
600.318,5586.8
600.814,5609.0
601.311,5617.9
601.807,5543.0
602.303,5659.5
602.8,5541.3
603.296,5695.5
603.792,5548.3
604.288,5562.0
604.784,5632.6
605.28,5613.4
605.776,5673.5
606.272,5725.4
606.767,5783.6
607.263,5784.3
607.758,5740.0
608.254,5748.3
608.749,5720.6
609.244,5750.2
609.74,5759.0
610.235,5730.9
610.73,5727.5
611.225,5766.5
611.72,5736.8
612.215,5800.6
612.709,5769.3
613.204,5838.0
613.699,5865.2
614.193,5952.7
614.688,5825.1
615.182,5856.5
615.676,5880.2
616.171,5964.7
616.665,5935.5
617.159,5935.4
617.653,6000.7
618.147,6152.2
618.641,6088.0
619.134,6094.4
619.628,6028.2
620.122,6032.1
620.615,6085.5
621.109,6065.1
621.602,6228.1
622.095,6061.4
622.588,6328.3
623.082,6162.1
623.575,6293.2
624.068,6306.7
624.56,6346.6
625.053,6376.5
625.546,6320.2
626.039,6296.8
626.531,6313.6
627.024,6446.0
627.516,6558.8
628.008,6476.3
628.501,6779.9
628.993,6926.9
629.485,6989.4
629.977,6869.3
630.469,6888.5
630.961,7571.2
631.452,8621.4
631.944,8680.5
632.436,8130.5
632.927,7740.5
633.418,7685.3
633.91,7499.6
634.401,7320.8
634.892,7226.1
635.383,7530.3
635.874,8202.8
636.365,9119.2
636.856,8885.6
637.347,7732.9
637.837,7376.7
638.328,7406.9
638.818,7450.6
639.309,7304.7
639.799,7318.3
640.289,7292.9
640.78,7274.2
641.27,7558.2
641.76,7398.2
642.249,7583.6
642.739,7429.2
643.229,7260.1
643.719,7229.5
644.208,7573.9
644.698,7205.2
645.187,7448.2
645.676,7462.7
646.165,7366.4
646.655,7546.9
647.144,7457.2
647.633,7372.2
648.121,7406.5
648.61,7308.6
649.099,7503.0
649.587,7219.1
650.076,7074.1
650.564,7254.6
651.053,7102.7
651.541,7275.5
652.029,7285.5
652.517,7135.0
653.005,7109.0
653.493,6984.7
653.981,7018.7
654.468,6919.6
654.956,6887.1
655.444,6886.3
655.931,6925.8
656.418,6881.3
656.906,6677.6
657.393,6689.6
657.88,6570.9
658.367,6605.8
658.854,6524.4
659.341,6429.6
659.827,6333.3
660.314,6259.6
660.8,6357.9
661.044,6237.8