Folder: MPX_specDB/spectra (part 90)

File: VLFR_06-PET_nobio_Raman_dc9246af.csv
nm,Intensity
526.5,830.0
527.047,828.4
527.594,828.9
528.14,828.8
528.687,829.2
529.233,828.8
529.779,830.3
530.325,828.0
530.871,828.1
531.417,828.3
531.962,836.1
532.508,831.1
533.053,828.8
533.599,830.0
534.144,946.8
534.689,925.7
535.234,906.4
535.778,896.2
536.323,886.1
536.867,883.5
537.412,881.6
537.956,882.6
538.5,883.1
539.044,883.2
539.588,882.9
540.132,885.3
540.675,882.7
541.219,881.9
541.762,882.2
542.305,886.7
542.848,887.7
543.391,886.4
543.934,885.1
544.477,888.0
545.02,892.9
545.562,893.0
546.105,889.2
546.647,891.8
547.189,894.0
547.731,895.4
548.273,895.2
548.815,901.0
549.356,899.0
549.898,896.5
550.439,897.8
550.981,901.1
551.522,902.6
552.063,903.6
552.604,903.7
553.145,903.6
553.686,908.0
554.226,906.3
554.767,907.5
555.307,907.3
555.848,913.0
556.388,912.3
556.928,912.9
557.468,924.0
558.008,915.9
558.547,918.5
559.087,915.5
559.626,914.3
560.166,915.0
560.705,918.4
561.244,918.4
561.783,915.8
562.322,922.8
562.861,924.1
563.4,920.5
563.939,927.2
564.477,927.3
565.015,926.9
565.554,934.0
566.092,933.3
566.63,930.4
567.168,932.5
567.706,932.0
568.244,933.5
568.781,932.1
569.319,934.9
569.857,937.8
570.394,941.4
570.931,947.7
571.468,954.1
572.005,947.5
572.542,945.7
573.079,942.8
573.616,942.0
574.153,946.8
574.689,943.4
575.226,952.4
575.762,944.1
576.298,948.8
576.834,950.6
577.371,948.1
577.907,947.2
578.442,952.6
578.978,951.0
579.514,951.9
580.049,950.0
580.585,955.1
581.12,957.4
581.656,960.6
582.191,1026.2
582.726,964.8
583.261,960.6
583.796,958.8
584.331,962.8
584.865,962.8
585.4,971.3
585.935,995.2
586.469,982.0
587.004,969.7
587.538,967.8
588.072,960.6
588.606,961.9
589.14,966.7
589.674,968.8
590.208,966.9
590.742,967.0
591.275,973.0
591.809,971.8
592.342,973.2
592.876,972.7
593.409,979.6
593.942,976.0
594.476,975.4
595.009,973.0
595.542,982.5
596.075,983.2
596.607,978.4
597.14,988.1
597.673,983.9
598.205,988.6
598.738,991.2
599.27,992.1
599.803,992.9
600.335,989.2
600.867,997.2
601.399,994.4
601.931,995.4
602.463,1000.2
602.995,1002.9
603.527,1007.1
604.058,1005.9
604.59,1000.9
605.122,1004.8
605.653,1001.9
606.184,1005.5
606.716,1008.7
607.247,1010.2
607.778,1014.0
608.309,1016.7
608.84,1013.1
609.371,1021.3
609.902,1016.0
610.433,1011.7
610.964,1015.3
611.494,1020.0
612.025,1020.7
612.556,1024.4
613.086,1029.7
613.616,1025.3
614.147,1025.0
614.677,1027.1
615.207,1022.5
615.737,1023.4
616.267,1021.0
616.797,1026.6
617.327,1028.3
617.857,1023.9
618.387,1023.9
618.917,1025.6
619.446,1021.4
619.976,1021.1
620.505,1020.8
621.035,1023.1
621.564,1021.2
622.093,1021.5
622.623,1018.2
623.152,1022.6
623.681,1020.9
624.21,1019.2
624.739,1021.7
625.268,1020.1
625.797,1016.1
626.326,1014.7
626.855,1020.6
627.383,1016.0
627.912,1018.2
628.441,1023.4
628.969,1026.8
629.498,1025.4
630.026,1029.1
630.554,1026.4
631.083,1030.4
631.611,1030.8
632.139,1023.6
632.667,1025.0
633.195,1024.0
633.724,1020.0
634.252,1022.8
634.779,1019.1
635.307,1022.8
635.835,1024.8
636.363,1029.8
636.891,1026.0
637.418,1022.5
637.946,1026.3
638.474,1023.1
639.001,1021.1
639.529,1020.7
640.056,1018.6
640.583,1022.4
641.111,1023.1
641.638,1021.5
642.165,1022.5
642.692,1026.3
643.22,1023.4
643.747,1016.5
644.274,1020.6
644.801,1016.8
645.328,1022.3
645.854,1017.2
646.381,1016.4
646.908,1021.5
647.435,1018.7
647.962,1017.8
648.488,1020.9
649.015,1022.5
649.542,1016.5
650.068,1017.1
650.595,1018.7
651.121,1016.5
651.648,1019.9
652.174,1014.8
652.7,1020.7
653.227,1017.1
653.753,1017.0
654.279,1022.5
654.805,1017.9
655.331,1015.7
655.858,1017.2
656.384,1017.4
656.91,1016.7
657.436,1020.3
657.962,1016.2
658.488,1019.7
659.013,1022.5
659.539,1022.5
660.065,1025.1
660.591,1014.8
661.117,1014.0
661.642,1019.6
662.168,1013.0
662.694,1010.7
663.088,1019.8

File: VLFR_06-PET_nobio_Raman_dd99378b.csv
nm,Intensity
526.508,831.7
527.055,829.8
527.602,832.1
528.149,829.4
528.695,830.3
529.241,830.2
529.787,829.8
530.334,828.9
530.879,830.4
531.425,829.3
531.971,833.8
532.516,831.1
533.062,829.3
533.607,838.9
534.152,2214.3
534.697,1816.7
535.242,1451.3
535.786,1217.2
536.331,1065.7
536.876,1014.5
537.42,991.7
537.964,981.7
538.508,991.1
539.052,983.7
539.596,1003.5
540.14,1012.4
540.683,964.5
541.227,947.3
541.77,945.9
542.313,945.5
542.856,951.1
543.399,949.4
543.942,959.3
544.485,954.2
545.027,954.2
545.57,959.1
546.112,964.9
546.654,963.6
547.196,961.4
547.738,970.5
548.28,969.0
548.822,973.3
549.363,977.5
549.905,974.5
550.446,996.6
550.988,1005.7
551.529,991.2
552.07,993.2
552.611,1000.2
553.152,1022.7
553.692,1002.3
554.233,1004.4
554.773,1005.7
555.314,1025.6
555.854,1079.7
556.394,1092.3
556.934,1099.9
557.474,1257.5
558.014,1132.7
558.553,1122.3
559.093,1077.3
559.632,1047.3
560.172,1045.4
560.711,1051.6
561.25,1057.4
561.789,1066.3
562.328,1084.7
562.867,1094.8
563.406,1102.8
563.944,1094.6
564.483,1100.5
565.021,1157.0
565.559,1227.1
566.098,1230.2
566.636,1126.9
567.174,1111.4
567.711,1204.2
568.249,1126.9
568.787,1125.0
569.324,1128.9
569.862,1157.4
570.399,1215.7
570.936,1370.5
571.474,1506.6
572.011,1314.1
572.548,1198.7
573.084,1167.7
573.621,1171.8
574.158,1206.8
574.694,1184.2
575.231,1222.0
575.767,1203.7
576.303,1234.1
576.84,1251.9
577.376,1209.5
577.912,1199.5
578.447,1205.2
578.983,1199.9
579.519,1213.5
580.054,1220.5
580.59,1226.8
581.125,1256.5
581.661,1349.5
582.196,2704.6
582.731,1317.9
583.266,1256.4
583.801,1255.4
584.336,1269.9
584.87,1290.2
585.405,1392.8
585.94,2012.0
586.474,1726.2
587.008,1347.5
587.543,1299.8
588.077,1284.1
588.611,1294.9
589.145,1282.7
589.679,1288.3
590.213,1286.9
590.747,1296.1
591.28,1293.1
591.814,1297.7
592.347,1298.9
592.881,1304.3
593.414,1304.1
593.947,1297.8
594.48,1312.6
595.014,1310.6
595.547,1319.0
596.079,1319.6
596.612,1322.6
597.145,1320.1
597.678,1334.4
598.21,1330.7
598.743,1339.0
599.275,1338.8
599.807,1338.8
600.34,1334.6
600.872,1335.0
601.404,1336.0
601.936,1338.9
602.468,1338.4
603.0,1342.6
603.532,1349.2
604.063,1343.6
604.595,1346.1
605.126,1347.1
605.658,1333.3
606.189,1336.2
606.721,1342.5
607.252,1343.3
607.783,1343.0
608.314,1351.9
608.845,1357.3
609.376,1359.6
609.907,1347.7
610.438,1356.5
610.968,1354.7
611.499,1364.5
612.03,1368.8
612.56,1367.2
613.091,1377.8
613.621,1384.6
614.151,1389.5
614.681,1388.4
615.212,1387.7
615.742,1390.2
616.272,1399.7
616.802,1401.3
617.332,1406.7
617.861,1410.4
618.391,1423.3
618.921,1420.8
619.45,1421.3
619.98,1411.4
620.509,1414.1
621.039,1417.2
621.568,1420.9
622.097,1425.1
622.627,1437.6
623.156,1437.9
623.685,1442.4
624.214,1462.3
624.743,1462.9
625.272,1464.4
625.801,1461.5
626.33,1466.7
626.858,1477.5
627.387,1483.5
627.916,1492.0
628.444,1514.1
628.973,1540.4
629.501,1545.0
630.029,1544.6
630.558,1559.7
631.086,1623.8
631.614,1789.2
632.142,1773.0
632.67,1680.7
633.198,1657.0
633.726,1639.6
634.254,1631.8
634.782,1584.7
635.31,1614.0
635.838,1684.0
636.365,1840.4
636.893,1842.5
637.421,1684.8
637.948,1655.9
638.476,1645.7
639.003,1652.7
639.531,1650.9
640.058,1660.3
640.585,1660.8
641.113,1672.6
641.64,1674.4
642.167,1692.6
642.694,1695.0
643.221,1693.3
643.748,1684.3
644.275,1684.7
644.802,1693.6
645.329,1698.1
645.856,1704.4
646.382,1705.1
646.909,1722.2
647.436,1727.4
647.962,1722.2
648.489,1731.2
649.016,1719.6
649.542,1722.9
650.069,1725.3
650.595,1725.3
651.121,1727.1
651.648,1740.3
652.174,1746.2
652.7,1750.4
653.227,1755.0
653.753,1757.4
654.279,1762.0
654.805,1754.7
655.331,1766.5
655.857,1761.7
656.383,1765.1
656.909,1761.4
657.435,1771.0
657.961,1762.2
658.487,1790.1
659.013,1772.3
659.538,1770.8
660.064,1788.5
660.59,1768.0
661.116,1767.3
661.641,1759.9
662.167,1749.4
662.692,1750.9
663.087,1754.5

File: VLFR_06-PET_nobio_Raman_df57789a.csv
nm,Intensity
526.486,828.1
527.033,829.4
527.579,828.1
528.126,826.0
528.672,828.1
529.219,829.0
529.765,827.8
530.311,827.5
530.857,829.1
531.403,829.0
531.948,833.5
532.494,830.8
533.039,828.0
533.585,836.0
534.13,2213.2
534.675,1852.1
535.22,1459.4
535.764,1230.8
536.309,1087.5
536.854,1023.7
537.398,1003.4
537.942,994.4
538.486,1000.1
539.03,995.2
539.574,1011.7
540.118,1024.2
540.662,978.0
541.205,959.9
541.749,958.8
542.292,958.2
542.835,959.5
543.378,957.7
543.921,967.5
544.464,955.2
545.006,967.3
545.549,962.1
546.091,964.9
546.634,963.4
547.176,971.4
547.718,971.5
548.26,972.1
548.802,970.3
549.343,973.5
549.885,976.0
550.426,986.3
550.968,1010.0
551.509,985.0
552.05,985.0
552.591,991.3
553.132,1010.2
553.673,989.0
554.214,993.4
554.754,998.5
555.295,999.9
555.835,1065.3
556.375,1071.9
556.915,1083.2
557.455,1222.5
557.995,1115.0
558.535,1104.0
559.075,1051.1
559.614,1016.1
560.154,1018.9
560.693,1024.7
561.232,1030.6
561.772,1034.4
562.311,1055.5
562.85,1065.8
563.388,1066.3
563.927,1049.6
564.466,1062.3
565.004,1112.2
565.543,1186.7
566.081,1194.3
566.619,1090.5
567.157,1068.7
567.695,1159.7
568.233,1090.6
568.771,1078.4
569.309,1089.3
569.846,1109.1
570.384,1161.6
570.921,1303.2
571.458,1439.7
571.995,1270.0
572.532,1151.5
573.069,1118.3
573.606,1117.0
574.143,1148.3
574.68,1126.6
575.216,1161.9
575.753,1142.6
576.289,1169.6
576.825,1188.8
577.361,1149.3
577.897,1137.4
578.433,1143.0
578.969,1149.1
579.505,1151.5
580.041,1153.8
580.576,1159.2
581.112,1187.8
581.647,1270.7
582.183,2576.9
582.718,1254.4
583.253,1180.8
583.788,1185.4
584.323,1201.8
584.858,1215.5
585.392,1312.8
585.927,1913.2
586.462,1649.8
586.996,1269.1
587.53,1225.2
588.065,1210.8
588.599,1202.7
589.133,1209.0
589.667,1207.7
590.201,1202.8
590.735,1210.4
591.268,1213.4
591.802,1217.7
592.335,1211.4
592.869,1208.7
593.402,1207.1
593.936,1210.5
594.469,1218.3
595.002,1217.2
595.535,1225.9
596.068,1226.6
596.601,1227.8
597.133,1229.6
597.666,1224.0
598.199,1235.9
598.731,1234.3
599.264,1239.0
599.796,1237.6
600.328,1240.0
600.86,1231.7
601.393,1234.5
601.925,1234.9
602.457,1238.4
602.988,1236.5
603.52,1250.5
604.052,1235.2
604.583,1235.3
605.115,1235.6
605.646,1228.5
606.178,1235.5
606.709,1229.3
607.24,1235.3
607.771,1230.1
608.302,1243.3
608.833,1252.0
609.364,1241.0
609.895,1244.3
610.426,1238.6
610.957,1242.6
611.487,1240.3
612.018,1252.9
612.548,1252.4
613.078,1269.3
613.609,1261.3
614.139,1258.6
614.669,1275.1
615.199,1267.1
615.729,1270.3
616.259,1269.8
616.789,1271.5
617.319,1281.1
617.849,1282.7
618.378,1290.4
618.908,1301.3
619.437,1292.1
619.967,1278.8
620.496,1277.9
621.025,1287.2
621.555,1283.0
622.084,1290.0
622.613,1300.1
623.142,1319.5
623.671,1317.6
624.2,1314.1
624.729,1333.6
625.258,1328.1
625.786,1327.0
626.315,1326.6
626.844,1328.1
627.372,1333.5
627.901,1337.7
628.429,1358.5
628.957,1393.1
629.486,1400.7
630.014,1382.8
630.542,1384.7
631.07,1453.8
631.598,1616.9
632.126,1581.1
632.654,1509.3
633.182,1481.1
633.71,1478.9
634.237,1434.2
634.765,1426.3
635.293,1440.7
635.82,1492.6
636.348,1637.8
636.875,1650.2
637.403,1495.9
637.93,1472.9
638.458,1460.4
638.985,1461.7
639.512,1458.8
640.039,1456.9
640.566,1452.0
641.093,1473.1
641.62,1470.4
642.147,1481.2
642.674,1494.9
643.201,1485.2
643.728,1484.4
644.255,1480.5
644.781,1471.3
645.308,1489.8
645.835,1488.3
646.361,1499.5
646.888,1504.6
647.414,1500.8
647.941,1518.3
648.467,1512.9
648.993,1501.7
649.52,1502.0
650.046,1511.1
650.572,1513.5
651.098,1504.5
651.625,1517.4
652.151,1526.1
652.677,1519.5
653.203,1527.1
653.729,1523.3
654.255,1531.0
654.78,1530.4
655.306,1515.8
655.832,1532.6
656.358,1525.6
656.884,1543.9
657.409,1529.5
657.935,1529.0
658.461,1533.6
658.986,1536.5
659.512,1534.3
660.037,1536.4
660.563,1540.7
661.088,1532.1
661.614,1525.4
662.139,1529.1
662.664,1532.1
663.058,1522.6

File: VLFR_06-PET_nobio_Raman_dfe79c16.csv
nm,Intensity
526.508,828.6
527.055,831.9
527.602,829.0
528.149,829.8
528.695,828.8
529.241,830.4
529.787,829.7
530.334,829.9
530.879,829.0
531.425,830.2
531.971,834.5
532.516,830.9
533.062,829.5
533.607,839.5
534.152,2450.0
534.697,2012.2
535.242,1551.0
535.786,1270.1
536.331,1097.0
536.876,1030.9
537.42,1003.4
537.964,986.3
538.508,997.0
539.052,993.4
539.596,1012.1
540.14,1022.8
540.683,969.4
541.227,951.1
541.77,941.4
542.313,945.1
542.856,946.3
543.399,940.6
543.942,959.5
544.485,948.7
545.027,948.8
545.57,953.2
546.112,953.1
546.654,953.5
547.196,962.2
547.738,963.6
548.28,965.7
548.822,960.3
549.363,963.3
549.905,960.6
550.446,995.4
550.988,999.8
551.529,976.6
552.07,979.9
552.611,993.2
553.152,1014.7
553.692,997.6
554.233,990.8
554.773,997.6
555.314,1024.5
555.854,1081.4
556.394,1088.7
556.934,1103.7
557.474,1289.5
558.014,1143.5
558.553,1136.1
559.093,1076.1
559.632,1033.1
560.172,1034.4
560.711,1038.7
561.25,1047.4
561.789,1048.5
562.328,1073.8
562.867,1092.2
563.406,1098.6
563.944,1073.3
564.483,1088.1
565.021,1151.7
565.559,1229.3
566.098,1240.1
566.636,1116.0
567.174,1097.6
567.711,1207.7
568.249,1112.0
568.787,1108.6
569.324,1111.4
569.862,1153.1
570.399,1211.2
570.936,1375.0
571.474,1539.3
572.011,1328.2
572.548,1180.7
573.084,1144.5
573.621,1154.9
574.158,1192.1
574.694,1169.5
575.231,1204.1
575.767,1174.0
576.303,1209.5
576.84,1234.2
577.376,1197.9
577.912,1179.2
578.447,1178.2
578.983,1190.3
579.519,1194.7
580.054,1193.7
580.59,1205.7
581.125,1236.1
581.661,1337.9
582.196,2902.9
582.731,1310.8
583.266,1245.6
583.801,1229.2
584.336,1244.2
584.87,1262.1
585.405,1393.5
585.94,2098.9
586.474,1780.6
587.008,1331.5
587.543,1270.1
588.077,1265.1
588.611,1265.7
589.145,1261.6
589.679,1266.7
590.213,1259.0
590.747,1255.0
591.28,1254.8
591.814,1265.0
592.347,1262.2
592.881,1270.2
593.414,1269.7
593.947,1265.0
594.48,1277.1
595.014,1282.5
595.547,1286.9
596.079,1287.8
596.612,1291.5
597.145,1289.5
597.678,1299.5
598.21,1297.3
598.743,1299.6
599.275,1305.2
599.807,1313.3
600.34,1302.7
600.872,1307.2
601.404,1307.0
601.936,1312.4
602.468,1308.1
603.0,1312.7
603.532,1313.1
604.063,1313.0
604.595,1307.7
605.126,1313.1
605.658,1307.2
606.189,1303.7
606.721,1308.2
607.252,1308.7
607.783,1312.8
608.314,1316.7
608.845,1308.9
609.376,1328.2
609.907,1317.3
610.438,1314.2
610.968,1319.1
611.499,1324.5
612.03,1330.3
612.56,1336.6
613.091,1349.2
613.621,1354.2
614.151,1352.1
614.681,1353.3
615.212,1347.5
615.742,1358.4
616.272,1353.4
616.802,1374.4
617.332,1367.6
617.861,1384.3
618.391,1395.7
618.921,1381.6
619.45,1378.7
619.98,1374.3
620.509,1379.2
621.039,1382.7
621.568,1390.5
622.097,1390.9
622.627,1398.1
623.156,1409.1
623.685,1411.6
624.214,1422.4
624.743,1432.8
625.272,1432.3
625.801,1436.0
626.33,1428.9
626.858,1447.9
627.387,1449.7
627.916,1452.9
628.444,1472.2
628.973,1523.3
629.501,1513.1
630.029,1502.1
630.558,1507.5
631.086,1593.0
631.614,1779.9
632.142,1752.6
632.67,1653.6
633.198,1635.0
633.726,1604.0
634.254,1585.4
634.782,1571.2
635.31,1592.5
635.838,1660.6
636.365,1825.8
636.893,1825.6
637.421,1648.9
637.948,1622.1
638.476,1619.9
639.003,1618.3
639.531,1609.0
640.058,1607.8
640.585,1629.0
641.113,1626.5
641.64,1641.3
642.167,1649.6
642.694,1666.3
643.221,1650.2
643.748,1634.5
644.275,1645.7
644.802,1647.5
645.329,1653.9
645.856,1662.1
646.382,1662.9
646.909,1680.8
647.436,1689.6
647.962,1684.5
648.489,1686.6
649.016,1690.9
649.542,1674.0
650.069,1701.7
650.595,1682.5
651.121,1697.7
651.648,1696.7
652.174,1708.7
652.7,1714.5
653.227,1711.4
653.753,1716.7
654.279,1721.3
654.805,1718.2
655.331,1725.1
655.857,1725.4
656.383,1722.0
656.909,1731.5
657.435,1735.4
657.961,1726.9
658.487,1739.1
659.013,1734.6
659.538,1731.0
660.064,1731.5
660.59,1726.2
661.116,1719.3
661.641,1721.3
662.167,1712.9
662.692,1731.3
663.087,1717.8

File: VLFR_06-PET_nobio_Raman_e3cb3080.csv
nm,Intensity
526.5,830.3
527.047,829.1
527.594,830.1
528.14,830.5
528.687,829.4
529.233,828.7
529.779,829.9
530.325,829.2
530.871,829.8
531.417,830.2
531.962,837.0
532.508,829.9
533.053,831.3
533.599,841.2
534.144,2363.3
534.689,2478.1
535.234,2451.8
535.778,2569.8
536.323,2596.5
536.867,2612.5
537.412,2620.4
537.956,2672.3
538.5,2674.6
539.044,2685.0
539.588,2720.5
540.132,2738.4
540.675,2736.5
541.219,2765.2
541.762,2778.2
542.305,2799.1
542.848,2811.2
543.391,2844.9
543.934,2839.7
544.477,2858.1
545.02,2883.1
545.562,2932.4
546.105,2888.5
546.647,2889.8
547.189,2880.8
547.731,2883.4
548.273,2913.6
548.815,2898.7
549.356,2918.8
549.898,2903.8
550.439,2897.8
550.981,2913.9
551.522,2931.8
552.063,2938.1
552.604,2923.9
553.145,2932.3
553.686,2925.9
554.226,2963.0
554.767,2958.2
555.307,2934.5
555.848,2939.6
556.388,2918.4
556.928,2948.3
557.468,2929.7
558.008,2925.5
558.547,2929.1
559.087,2944.6
559.626,2978.1
560.166,3000.7
560.705,3002.6
561.244,3006.9
561.783,3007.8
562.322,3027.5
562.861,3045.3
563.4,3093.3
563.939,3119.4
564.477,3136.3
565.015,3152.2
565.554,3164.8
566.092,3166.3
566.63,3164.1
567.168,3177.2
567.706,3188.2
568.244,3225.2
568.781,3254.5
569.319,3302.6
569.857,3328.3
570.394,3346.9
570.931,3377.2
571.468,3374.9
572.005,3385.9
572.542,3404.1
573.079,3435.4
573.616,3465.7
574.153,3480.1
574.689,3486.9
575.226,3528.3
575.762,3539.4
576.298,3571.8
576.834,3584.6
577.371,3585.4
577.907,3600.4
578.442,3605.3
578.978,3612.2
579.514,3631.2
580.049,3638.6
580.585,3638.9
581.12,3650.2
581.656,3668.1
582.191,3728.3
582.726,3685.9
583.261,3705.0
583.796,3698.0
584.331,3684.8
584.865,3676.2
585.4,3698.8
585.935,3697.0
586.469,3724.7
587.004,3702.0
587.538,3706.3
588.072,3673.8
588.606,3679.0
589.14,3673.1
589.674,3635.1
590.208,3644.7
590.742,3660.3
591.275,3653.4
591.809,3640.6
592.342,3608.4
592.876,3607.3
593.409,3585.6
593.942,3571.3
594.476,3583.0
595.009,3581.6
595.542,3574.5
596.075,3597.2
596.607,3570.7
597.14,3581.3
597.673,3578.4
598.205,3583.9
598.738,3587.9
599.27,3586.1
599.803,3559.3
600.335,3531.5
600.867,3508.6
601.399,3502.1
601.931,3476.6
602.463,3459.4
602.995,3443.4
603.527,3438.7
604.058,3435.3
604.59,3431.5
605.122,3386.3
605.653,3355.4
606.184,3324.7
606.716,3334.6
607.247,3355.3
607.778,3340.3
608.309,3352.8
608.84,3347.5
609.371,3336.4
609.902,3325.1
610.433,3320.9
610.964,3304.3
611.494,3307.2
612.025,3322.2
612.556,3347.2
613.086,3358.0
613.616,3341.1
614.147,3354.2
614.677,3347.4
615.207,3337.4
615.737,3293.0
616.267,3292.6
616.797,3292.9
617.327,3270.6
617.857,3294.0
618.387,3274.1
618.917,3281.9
619.446,3286.3
619.976,3270.6
620.505,3275.1
621.035,3251.7
621.564,3249.1
622.093,3245.6
622.623,3238.8
623.152,3248.3
623.681,3254.5
624.21,3247.4
624.739,3238.9
625.268,3243.4
625.797,3214.0
626.326,3200.3
626.855,3197.4
627.383,3217.0
627.912,3199.4
628.441,3182.7
628.969,3208.0
629.498,3175.3
630.026,3156.9
630.554,3155.4
631.083,3122.9
631.611,3120.8
632.139,3132.1
632.667,3098.5
633.195,3104.9
633.724,3105.1
634.252,3086.5
634.779,3075.9
635.307,3099.8
635.835,3085.7
636.363,3087.2
636.891,3066.3
637.418,3043.2
637.946,3035.6
638.474,3022.0
639.001,3017.9
639.529,2994.9
640.056,3007.0
640.583,2989.8
641.111,2988.2
641.638,2973.7
642.165,2984.1
642.692,2972.7
643.22,2933.5
643.747,2929.7
644.274,2935.2
644.801,2901.4
645.328,2870.3
645.854,2872.8
646.381,2850.2
646.908,2862.6
647.435,2862.8
647.962,2856.5
648.488,2828.3
649.015,2818.4
649.542,2807.2
650.068,2799.7
650.595,2781.0
651.121,2775.9
651.648,2765.7
652.174,2770.9
652.7,2788.7
653.227,2756.1
653.753,2773.7
654.279,2760.4
654.805,2735.0
655.331,2719.6
655.858,2719.6
656.384,2708.7
656.91,2726.4
657.436,2716.0
657.962,2703.5
658.488,2693.5
659.013,2679.7
659.539,2681.6
660.065,2660.3
660.591,2654.6
661.117,2634.0
661.642,2605.8
662.168,2588.7
662.694,2597.5
663.088,2585.1

File: VLFR_06-PET_nobio_Raman_e83e465c.csv
nm,Intensity
526.547,832.3
527.094,831.7
527.641,833.7
528.188,831.9
528.734,832.9
529.281,832.8
529.827,833.6
530.373,833.6
530.92,832.5
531.466,834.5
532.011,839.2
532.557,834.0
533.103,831.9
533.648,848.3
534.193,1750.9
534.738,1477.4
535.283,1239.7
535.828,1112.3
536.373,1014.9
536.917,991.1
537.462,982.4
538.006,1006.2
538.55,990.9
539.094,979.8
539.638,993.6
540.182,988.6
540.726,964.9
541.269,958.9
541.812,951.2
542.356,962.1
542.899,957.5
543.442,957.8
543.985,965.5
544.527,960.8
545.07,968.8
545.612,1052.3
546.155,982.4
546.697,981.0
547.239,980.0
547.781,981.8
548.323,979.0
548.865,979.4
549.406,985.3
549.948,985.0
550.489,1007.2
551.03,999.4
551.572,998.9
552.113,1004.5
552.654,1019.9
553.194,1010.3
553.735,1012.7
554.276,1012.0
554.816,1018.6
555.356,1033.0
555.896,1061.6
556.437,1075.0
556.977,1082.0
557.516,1196.1
558.056,1102.6
558.596,1095.5
559.135,1057.0
559.675,1050.8
560.214,1050.6
560.753,1062.5
561.292,1063.8
561.831,1069.2
562.37,1079.5
562.909,1089.5
563.448,1098.8
563.986,1089.8
564.525,1100.3
565.063,1138.9
565.601,1180.7
566.139,1182.5
566.677,1119.4
567.215,1109.4
567.753,1175.7
568.291,1119.3
568.828,1117.8
569.366,1133.4
569.903,1151.2
570.441,1191.4
570.978,1285.6
571.515,1348.6
572.052,1239.3
572.589,1173.9
573.126,1158.8
573.662,1162.6
574.199,1182.3
574.735,1171.7
575.272,1203.5
575.808,1187.2
576.344,1208.4
576.88,1218.4
577.416,1191.9
577.952,1182.1
578.488,1194.0
579.024,1198.7
579.559,1199.0
580.095,1206.5
580.63,1216.3
581.166,1230.1
581.701,1309.2
582.236,2154.7
582.771,1264.7
583.306,1240.4
583.841,1237.5
584.376,1248.1
584.911,1261.6
585.445,1358.9
585.98,1739.8
586.514,1503.0
587.048,1301.0
587.583,1278.8
588.117,1258.5
588.651,1265.5
589.185,1265.8
589.719,1261.9
590.253,1268.3
590.786,1271.6
591.32,1277.1
591.853,1282.3
592.387,1274.3
592.92,1281.6
593.454,1282.0
593.987,1279.4
594.52,1279.3
595.053,1289.7
595.586,1289.6
596.119,1288.7
596.651,1297.0
597.184,1283.6
597.717,1294.6
598.249,1294.2
598.782,1299.2
599.314,1305.5
599.846,1305.1
600.379,1296.6
600.911,1293.3
601.443,1301.9
601.975,1291.3
602.507,1298.8
603.038,1298.6
603.57,1304.5
604.102,1306.2
604.633,1295.4
605.165,1298.4
605.696,1288.8
606.228,1277.0
606.759,1285.3
607.29,1302.2
607.821,1294.6
608.352,1300.4
608.883,1295.9
609.414,1302.5
609.945,1299.1
610.476,1299.2
611.006,1296.8
611.537,1297.4
612.067,1298.6
612.598,1315.9
613.128,1327.4
613.659,1317.2
614.189,1325.9
614.719,1322.0
615.249,1321.4
615.779,1329.6
616.309,1325.0
616.839,1330.7
617.369,1337.8
617.899,1348.8
618.428,1350.0
618.958,1336.5
619.487,1351.4
620.017,1343.2
620.546,1347.6
621.076,1344.1
621.605,1344.3
622.134,1348.9
622.663,1354.7
623.193,1362.8
623.722,1371.1
624.251,1366.4
624.78,1385.9
625.308,1378.0
625.837,1385.2
626.366,1373.2
626.895,1385.3
627.423,1381.7
627.952,1396.7
628.48,1411.8
629.009,1428.3
629.537,1437.9
630.065,1419.2
630.594,1436.4
631.122,1487.7
631.65,1594.2
632.178,1577.0
632.706,1509.8
633.234,1501.2
633.762,1479.9
634.29,1461.4
634.818,1466.1
635.346,1476.7
635.873,1513.7
636.401,1637.6
636.929,1604.4
637.456,1518.9
637.984,1481.2
638.511,1488.9
639.039,1477.2
639.566,1495.2
640.093,1489.3
640.62,1494.5
641.148,1496.6
641.675,1507.5
642.202,1516.9
642.729,1518.7
643.256,1502.2
643.783,1504.3
644.31,1500.5
644.837,1501.4
645.364,1499.3
645.891,1504.3
646.417,1517.0
646.944,1517.3
647.471,1518.5
647.997,1533.0
648.524,1525.5
649.051,1515.8
649.577,1523.0
650.104,1529.3
650.63,1524.8
651.157,1524.3
651.683,1522.6
652.209,1526.6
652.736,1525.3
653.262,1521.9
653.788,1529.5
654.314,1534.9
654.84,1537.1
655.366,1522.4
655.893,1532.4
656.419,1541.3
656.945,1533.2
657.471,1539.2
657.997,1542.0
658.522,1542.0
659.048,1535.6
659.574,1527.8
660.1,1529.1
660.626,1532.9
661.152,1542.5
661.677,1521.8
662.203,1529.9
662.729,1529.9
663.123,1520.1