Folder: MPX_specDB/spectra (part 114)

File: VLFR_07-PET_nobio_Raman_46a4bbc4.csv
nm,Intensity
791.377,12839.3
792.477,11685.2
793.576,10982.9
794.676,10858.8
795.775,10451.5
796.874,10519.2
797.973,10525.4
799.072,10465.5
800.171,10380.9
801.27,10294.9
802.368,10264.3
803.467,10038.1
804.565,9803.18
805.664,9890.92
806.762,9790.72
807.86,9636.52
808.958,9614.22
810.056,9567.98
811.153,9472.52
812.251,9365.76
813.349,9139.9
814.446,9150.58
815.543,9130.52
816.64,8977.0
817.737,9010.32
818.834,8786.6
819.931,8941.12
821.028,8757.46
822.125,8612.88
823.221,8539.06
824.317,8443.56
825.414,8586.12
826.51,8328.22
827.606,8322.0
828.702,8181.94
829.797,8223.22
830.893,8196.44
831.988,8039.28
833.084,7937.54
834.179,7852.64
835.274,7795.9
836.369,7794.16
837.464,7932.1
838.559,7790.04
839.654,7690.5
840.748,7967.88
841.843,8028.64
842.937,7633.96
844.031,7561.02
845.125,7306.02
846.219,7279.14
847.313,7205.44
848.407,7199.84
849.5,7084.02
850.593,7056.86
851.687,7139.98
852.78,7100.56
853.873,7020.82
854.966,6962.5
856.059,6809.14
857.151,6857.08
858.244,6936.06
859.336,6992.9
860.428,6993.36
861.52,6787.58
862.612,6651.4
863.704,6658.06
864.796,6732.34
865.888,6545.64
866.979,6495.92
868.07,6422.94
869.162,6499.5
870.253,6507.72
871.344,6579.26
872.434,6739.86
873.525,6823.28
874.615,6472.78
875.706,6303.36
876.796,6227.1
877.886,6172.52
878.976,6150.7
880.066,6072.46
881.156,6077.7
882.245,6058.0
883.335,6037.84
884.424,5989.94
885.513,5968.26
886.602,5959.14
887.691,5807.52
888.78,5771.44
889.868,5802.86
890.957,5747.02
892.045,5676.84
893.133,5659.56
894.221,5615.88
895.309,5594.32
896.397,5573.6
897.484,5833.42
898.571,6329.22
899.659,5785.76
900.746,5458.4
901.833,5375.02
902.92,5335.3
904.006,5334.86
905.093,5301.82
906.179,5425.44
907.266,5795.36
908.352,5685.38
909.438,5415.26
910.523,5141.6
911.609,5051.3
912.695,5056.92
913.78,4973.16
914.865,4959.12
915.95,4948.88
917.035,4899.08
918.12,4877.1
919.204,4850.54
920.289,4824.9
921.373,4771.54
922.457,4768.86
923.541,4718.64
924.625,4687.0
925.709,4675.32
926.792,4669.48
927.876,4631.14
928.959,4572.24
930.042,4562.1
931.125,4564.9
932.208,4504.78
933.29,4489.28
934.373,4475.78
935.455,4435.1
936.537,4421.6
937.619,4402.12
938.701,4398.78
939.782,4369.04
940.864,4346.88
941.945,4353.22
943.026,4304.98
944.107,4297.46
945.188,4285.56
946.269,4251.68
947.349,4236.28
948.43,4241.52
949.51,4218.18
950.59,4177.72
951.67,4189.0
952.75,4168.28
953.829,4167.4
954.909,4135.64
955.988,4111.92
957.067,4127.16
958.146,4101.44
959.224,4103.06
960.303,4080.88
961.381,4074.24
962.459,4057.72
963.537,4044.28
964.615,4046.86
965.693,4033.42
966.771,4017.82
967.848,4007.62
968.925,3995.92
970.002,3993.86
971.079,3988.16
972.156,3982.06
973.232,3968.92
974.309,3955.54
975.385,3951.28
976.461,3948.1
977.537,3937.28
978.612,3931.56
979.688,3921.44
980.763,3916.96
981.838,3911.6
982.913,3904.14
983.988,3900.8
985.063,3896.46
986.137,3887.04
987.211,3887.84
988.285,3880.9
989.359,3876.14
990.433,3868.84
991.506,3865.86
992.58,3857.3
993.653,3852.88
994.726,3843.76
995.799,3845.5
996.872,3839.52
997.944,3832.4
999.016,3831.52
1000.09,3826.9
1001.16,3824.98
1002.23,3822.16
1003.3,3819.5
1004.38,3812.98
1005.45,3813.7
1006.52,3805.58
1007.59,3802.84
1008.66,3799.72
1009.73,3796.22
1010.8,3794.7
1011.87,3793.32
1012.94,3789.84
1014.01,3790.62
1015.08,3787.66
1016.15,3787.5
1017.22,3785.38
1018.29,3781.56
1019.36,3780.0
1020.42,3779.84
1021.49,3785.04
1022.56,3788.42
1023.63,3786.5
1024.7,3778.58
1025.76,3773.86
1026.83,3768.42
1027.9,3766.36
1028.97,3761.1
1030.03,3759.12
1031.1,3759.72
1032.17,3757.34
1033.23,3757.82
1034.3,3762.14
1035.36,3763.4
1036.43,3760.76
1037.5,3755.46
1038.56,3751.06
1039.63,3748.74
1040.69,3748.06
1041.76,3747.24
1042.82,3746.22
1043.89,3744.44
1044.95,3744.36
1046.01,3743.24
1047.08,3742.88
1048.14,3742.2
1049.2,3740.94
1050.27,3741.3
1051.33,3742.04
1052.39,3741.2
1053.46,3739.58
1054.52,3739.64
1055.58,3740.32
1056.64,3739.28
1057.7,3738.26
1058.77,3737.72
1059.83,3737.84
1060.89,3738.84
1061.95,3738.9
1063.01,3738.58
1064.07,3737.82
1065.13,3737.44
1066.19,3737.76
1067.25,3737.02
1068.05,3736.02

File: VLFR_07-PET_nobio_Raman_53abcf2b.csv
nm,Intensity
791.75,14663.8
792.846,13691.1
793.942,13097.3
795.037,13030.8
796.133,12911.5
797.228,12802.0
798.324,12758.5
799.419,12724.9
800.514,12710.7
801.61,12916.0
802.705,12547.1
803.8,12278.3
804.894,12275.3
805.989,12217.9
807.084,11958.3
808.178,11858.9
809.273,11779.1
810.367,11630.9
811.461,11409.7
812.556,11369.5
813.65,11366.8
814.744,11006.2
815.837,10900.5
816.931,10806.3
818.025,10875.0
819.118,10625.6
820.212,10614.4
821.305,10373.4
822.398,10267.5
823.491,10135.3
824.585,10172.3
825.677,10492.9
826.77,9935.2
827.863,9832.8
828.956,9709.1
830.048,9794.35
831.14,9540.6
832.233,9418.45
833.325,9342.0
834.417,9240.55
835.509,9116.9
836.601,9312.85
837.692,9233.2
838.784,9157.1
839.876,9023.8
840.967,9370.75
842.058,9005.65
843.149,8835.8
844.24,8707.7
845.331,8426.95
846.422,8403.1
847.513,8241.85
848.604,8214.65
849.694,8117.4
850.784,8021.0
851.875,8140.45
852.965,8108.0
854.055,7964.4
855.145,7771.8
856.235,7857.65
857.324,7901.75
858.414,7885.2
859.503,8011.55
860.593,7831.45
861.682,7618.85
862.771,7492.4
863.86,7556.4
864.949,7481.4
866.038,7325.0
867.126,7335.1
868.215,7197.6
869.303,7279.45
870.391,7340.1
871.479,7553.05
872.567,7724.05
873.655,7407.5
874.743,7200.5
875.831,7071.8
876.918,6988.05
878.006,6883.35
879.093,6875.9
880.18,6809.35
881.267,6845.1
882.354,6772.6
883.441,6758.9
884.527,6682.95
885.614,6662.35
886.7,6529.15
887.786,6498.85
888.872,6437.0
889.958,6390.85
891.044,6399.65
892.13,6370.2
893.216,6237.55
894.301,6246.65
895.386,6166.9
896.472,6211.4
897.557,6892.45
898.642,6754.2
899.726,6203.9
900.811,5991.15
901.896,5854.85
902.98,5830.5
904.064,5836.75
905.148,5812.85
906.232,6157.85
907.316,6318.15
908.4,6158.95
909.484,5723.45
910.567,5572.75
911.65,5457.05
912.734,5423.85
913.817,5387.25
914.9,5355.25
915.982,5323.05
917.065,5247.75
918.147,5249.25
919.23,5205.25
920.312,5135.75
921.394,5067.7
922.476,5067.5
923.558,5027.1
924.639,4987.9
925.721,4984.05
926.802,4912.45
927.884,4911.8
928.965,4857.5
930.046,4788.6
931.126,4788.05
932.207,4754.0
933.288,4711.85
934.368,4680.6
935.448,4635.5
936.528,4629.05
937.608,4582.8
938.688,4548.3
939.767,4559.35
940.847,4544.1
941.926,4497.55
943.005,4436.4
944.084,4421.2
945.163,4422.15
946.242,4398.0
947.321,4381.4
948.399,4343.2
949.477,4340.0
950.556,4324.9
951.634,4296.0
952.711,4269.8
953.789,4260.6
954.867,4229.25
955.944,4231.15
957.021,4196.35
958.098,4193.3
959.175,4188.95
960.252,4153.8
961.328,4146.6
962.405,4137.0
963.481,4113.5
964.557,4103.4
965.633,4084.9
966.709,4079.55
967.785,4063.35
968.86,4046.25
969.936,4046.9
971.011,4025.15
972.086,4016.0
973.161,4006.5
974.235,4004.6
975.31,3985.0
976.384,3972.2
977.459,3972.85
978.533,3956.4
979.607,3950.5
980.68,3947.05
981.754,3928.3
982.827,3916.6
983.901,3922.1
984.974,3919.1
986.047,3903.35
987.119,3895.75
988.192,3892.0
989.264,3884.4
990.337,3877.9
991.409,3873.5
992.481,3863.2
993.553,3862.7
994.624,3848.55
995.696,3853.15
996.767,3838.35
997.838,3838.55
998.909,3831.65
999.98,3821.95
1001.05,3818.45
1002.12,3814.1
1003.19,3812.5
1004.26,3805.8
1005.33,3805.65
1006.4,3799.05
1007.47,3795.6
1008.54,3788.4
1009.61,3783.1
1010.68,3781.5
1011.75,3785.75
1012.82,3776.15
1013.88,3778.1
1014.95,3774.95
1016.02,3772.2
1017.09,3768.95
1018.16,3766.75
1019.22,3764.2
1020.29,3767.65
1021.36,3769.6
1022.43,3766.9
1023.49,3764.95
1024.56,3761.4
1025.63,3753.0
1026.69,3749.45
1027.76,3745.1
1028.83,3742.45
1029.89,3737.3
1030.96,3737.65
1032.02,3736.55
1033.09,3739.2
1034.15,3741.95
1035.22,3740.75
1036.28,3735.35
1037.35,3730.55
1038.41,3725.8
1039.48,3723.5
1040.54,3722.3
1041.6,3724.4
1042.67,3720.8
1043.73,3721.15
1044.79,3719.35
1045.86,3717.3
1046.92,3719.4
1047.98,3717.55
1049.05,3716.05
1050.11,3715.25
1051.17,3716.65
1052.23,3715.45
1053.29,3715.35
1054.36,3714.05
1055.42,3714.55
1056.48,3713.75
1057.54,3712.4
1058.6,3712.6
1059.66,3713.05
1060.72,3711.65
1061.78,3712.0
1062.84,3710.45
1063.9,3710.55
1064.96,3710.75
1066.02,3709.35
1067.08,3711.3
1067.88,3709.65

File: VLFR_07-PET_nobio_Raman_74ee2681.csv
nm,Intensity
791.377,11039.8
792.477,9963.96
793.576,9305.8
794.676,9035.0
795.775,8787.26
796.874,8853.9
797.973,8752.54
799.072,8632.9
800.171,8645.76
801.27,8542.88
802.368,8655.94
803.467,8290.98
804.565,8291.7
805.664,8216.04
806.762,8141.74
807.86,8046.06
808.958,7914.1
810.056,7864.26
811.153,7870.92
812.251,7743.68
813.349,7690.6
814.446,7644.54
815.543,7526.98
816.64,7572.24
817.737,7435.68
818.834,7385.64
819.931,7395.26
821.028,7329.6
822.125,7189.5
823.221,7165.16
824.317,7108.42
825.414,7336.0
826.51,7062.42
827.606,6979.9
828.702,6871.94
829.797,6834.24
830.893,6997.48
831.988,6731.22
833.084,6702.46
834.179,6639.7
835.274,6618.72
836.369,6623.6
837.464,6740.72
838.559,6662.04
839.654,6602.36
840.748,6774.42
841.843,6887.74
842.937,6589.18
844.031,6511.8
845.125,6345.3
846.219,6277.02
847.313,6137.18
848.407,6206.52
849.5,6130.28
850.593,6150.58
851.687,6148.02
852.78,6151.98
853.873,6086.64
854.966,6086.36
856.059,5932.92
857.151,5997.02
858.244,6053.46
859.336,6182.06
860.428,6166.1
861.52,5991.7
862.612,5863.64
863.704,5861.9
864.796,5894.4
865.888,5803.04
866.979,5740.32
868.07,5692.8
869.162,5688.7
870.253,5757.84
871.344,5873.28
872.434,6051.86
873.525,6082.7
874.615,5819.08
875.706,5674.92
876.796,5583.56
877.886,5505.62
878.976,5533.48
880.066,5448.88
881.156,5439.7
882.245,5437.0
883.335,5459.24
884.424,5386.32
885.513,5389.74
886.602,5333.2
887.691,5291.38
888.78,5182.5
889.868,5185.52
890.957,5203.4
892.045,5205.32
893.133,5138.22
894.221,5092.12
895.309,5073.9
896.397,5096.4
897.484,5305.68
898.571,5925.74
899.659,5305.08
900.746,4983.54
901.833,4896.76
902.92,4887.62
904.006,4860.56
905.093,4842.46
906.179,5016.68
907.266,5390.2
908.352,5324.16
909.438,4992.48
910.523,4795.2
911.609,4704.84
912.695,4670.36
913.78,4627.48
914.865,4606.3
915.95,4589.04
917.035,4586.34
918.12,4546.42
919.204,4534.16
920.289,4517.08
921.373,4493.58
922.457,4455.5
923.541,4441.58
924.625,4419.32
925.709,4417.54
926.792,4369.06
927.876,4385.5
928.959,4329.12
930.042,4331.64
931.125,4300.08
932.208,4291.78
933.29,4271.46
934.373,4263.82
935.455,4249.2
936.537,4219.44
937.619,4226.12
938.701,4189.96
939.782,4184.08
940.864,4173.24
941.945,4160.38
943.026,4155.2
944.107,4134.98
945.188,4116.66
946.269,4105.74
947.349,4097.82
948.43,4093.38
949.51,4078.84
950.59,4061.08
951.67,4050.22
952.75,4049.38
953.829,4033.58
954.909,4030.7
955.988,4004.28
957.067,4025.42
958.146,3995.76
959.224,3992.9
960.303,3989.82
961.381,3974.18
962.459,3962.8
963.537,3962.38
964.615,3948.16
965.693,3946.82
966.771,3942.34
967.848,3934.12
968.925,3924.04
970.002,3927.0
971.079,3913.76
972.156,3909.66
973.232,3906.12
974.309,3903.76
975.385,3888.58
976.461,3887.66
977.537,3883.8
978.612,3878.24
979.688,3875.02
980.763,3864.4
981.838,3864.12
982.913,3861.6
983.988,3854.02
985.063,3850.2
986.137,3847.4
987.211,3845.96
988.285,3840.84
989.359,3835.92
990.433,3832.52
991.506,3829.2
992.58,3816.12
993.653,3823.62
994.726,3816.16
995.799,3813.04
996.872,3809.82
997.944,3810.06
999.016,3805.78
1000.09,3804.22
1001.16,3797.56
1002.23,3797.2
1003.3,3793.86
1004.38,3789.22
1005.45,3788.5
1006.52,3788.04
1007.59,3785.4
1008.66,3782.84
1009.73,3779.4
1010.8,3777.62
1011.87,3777.4
1012.94,3776.52
1014.01,3773.64
1015.08,3774.56
1016.15,3773.96
1017.22,3769.6
1018.29,3771.08
1019.36,3767.76
1020.42,3767.48
1021.49,3775.04
1022.56,3779.58
1023.63,3775.02
1024.7,3770.96
1025.76,3766.38
1026.83,3761.46
1027.9,3758.12
1028.97,3754.38
1030.03,3753.42
1031.1,3752.74
1032.17,3753.26
1033.23,3753.62
1034.3,3757.08
1035.36,3759.38
1036.43,3757.12
1037.5,3750.68
1038.56,3746.28
1039.63,3746.36
1040.69,3743.98
1041.76,3743.18
1042.82,3743.92
1043.89,3741.58
1044.95,3740.9
1046.01,3739.62
1047.08,3740.48
1048.14,3740.5
1049.2,3739.54
1050.27,3739.58
1051.33,3739.04
1052.39,3738.34
1053.46,3737.28
1054.52,3737.34
1055.58,3738.94
1056.64,3737.02
1057.7,3737.24
1058.77,3736.76
1059.83,3736.48
1060.89,3736.8
1061.95,3736.7
1063.01,3736.84
1064.07,3737.4
1065.13,3737.66
1066.19,3737.34
1067.25,3735.74
1068.05,3734.92

File: VLFR_07-PET_nobio_Raman_77ff8117.csv
nm,Intensity
791.75,12820.9
792.846,11886.4
793.942,11347.0
795.037,11124.3
796.133,10805.1
797.228,10864.0
798.324,10726.7
799.419,10866.2
800.514,10839.2
801.61,10921.3
802.705,10636.6
803.8,10578.6
804.894,10275.4
805.989,10304.6
807.084,10326.1
808.178,10077.9
809.273,10010.6
810.367,9970.2
811.461,9996.2
812.556,9816.1
813.65,9709.6
814.744,9569.9
815.837,9518.8
816.931,9437.6
818.025,9415.8
819.118,9323.6
820.212,9250.1
821.305,9142.6
822.398,9068.4
823.491,9130.9
824.585,8985.7
825.677,9281.1
826.77,8844.5
827.863,8647.0
828.956,8690.1
830.048,8732.6
831.14,8536.2
832.233,8362.9
833.325,8368.7
834.417,8177.4
835.509,8312.4
836.601,8410.2
837.692,8227.0
838.784,8229.1
839.876,8224.3
840.967,8653.2
842.058,8181.4
843.149,7979.2
844.24,7848.6
845.331,7666.0
846.422,7532.8
847.513,7570.3
848.604,7430.9
849.694,7469.6
850.784,7511.8
851.875,7414.4
852.965,7350.2
854.055,7243.7
855.145,7255.6
856.235,7109.2
857.324,7178.5
858.414,7293.3
859.503,7245.5
860.593,7202.9
861.682,6997.9
862.771,6916.4
863.86,6933.9
864.949,6928.7
866.038,6762.9
867.126,6738.0
868.215,6672.7
869.303,6691.4
870.391,6729.5
871.479,6952.9
872.567,7127.0
873.655,6916.8
874.743,6678.5
875.831,6575.5
876.918,6422.4
878.006,6440.6
879.093,6378.3
880.18,6387.9
881.267,6259.7
882.354,6260.8
883.441,6214.7
884.527,6224.3
885.614,6208.3
886.7,6084.8
887.786,5953.2
888.872,5968.7
889.958,5962.9
891.044,5977.1
892.13,5894.1
893.216,5833.4
894.301,5825.9
895.386,5766.4
896.472,5885.5
897.557,6425.6
898.642,6487.1
899.726,5766.5
900.811,5566.9
901.896,5558.1
902.98,5449.0
904.064,5507.2
905.148,5504.5
906.232,5787.9
907.316,6046.8
908.4,5790.1
909.484,5419.4
910.567,5331.3
911.65,5215.8
912.734,5153.8
913.817,5120.5
914.9,5135.8
915.982,5058.7
917.065,5011.7
918.147,4972.2
919.23,4957.7
920.312,4931.6
921.394,4896.0
922.476,4867.2
923.558,4818.0
924.639,4807.3
925.721,4768.6
926.802,4747.4
927.884,4716.5
928.965,4644.3
930.046,4648.0
931.126,4623.3
932.207,4586.7
933.288,4563.7
934.368,4549.1
935.448,4515.2
936.528,4473.5
937.608,4452.7
938.688,4433.6
939.767,4412.6
940.847,4409.8
941.926,4349.5
943.005,4347.7
944.084,4316.9
945.163,4313.3
946.242,4284.5
947.321,4262.9
948.399,4266.2
949.477,4230.2
950.556,4234.1
951.634,4226.5
952.711,4191.2
953.789,4158.9
954.867,4148.8
955.944,4156.9
957.021,4123.7
958.098,4119.0
959.175,4116.4
960.252,4095.4
961.328,4079.0
962.405,4067.2
963.481,4057.8
964.557,4051.6
965.633,4026.1
966.709,4027.3
967.785,4003.3
968.86,4013.6
969.936,4009.7
971.011,3975.6
972.086,3986.3
973.161,3971.5
974.235,3957.8
975.31,3943.0
976.384,3945.8
977.459,3927.0
978.533,3925.5
979.607,3932.0
980.68,3915.1
981.754,3903.3
982.827,3899.0
983.901,3898.6
984.974,3890.2
986.047,3879.8
987.119,3884.1
988.192,3873.0
989.264,3872.4
990.337,3854.9
991.409,3857.1
992.481,3848.1
993.553,3847.5
994.624,3834.9
995.696,3835.0
996.767,3831.5
997.838,3825.8
998.909,3821.3
999.98,3816.8
1001.05,3808.2
1002.12,3808.1
1003.19,3805.8
1004.26,3801.4
1005.33,3796.2
1006.4,3795.0
1007.47,3787.1
1008.54,3782.9
1009.61,3778.4
1010.68,3778.3
1011.75,3775.9
1012.82,3770.7
1013.88,3772.5
1014.95,3771.4
1016.02,3770.6
1017.09,3769.2
1018.16,3760.9
1019.22,3761.9
1020.29,3762.7
1021.36,3773.7
1022.43,3767.0
1023.49,3767.2
1024.56,3756.2
1025.63,3755.5
1026.69,3745.8
1027.76,3746.4
1028.83,3739.8
1029.89,3738.4
1030.96,3736.5
1032.02,3738.4
1033.09,3735.3
1034.15,3741.7
1035.22,3737.3
1036.28,3738.5
1037.35,3732.9
1038.41,3729.8
1039.48,3726.7
1040.54,3727.1
1041.6,3724.3
1042.67,3724.4
1043.73,3721.9
1044.79,3721.5
1045.86,3718.6
1046.92,3718.3
1047.98,3717.6
1049.05,3719.2
1050.11,3719.6
1051.17,3717.0
1052.23,3716.9
1053.29,3716.7
1054.36,3715.7
1055.42,3715.2
1056.48,3717.1
1057.54,3715.6
1058.6,3714.6
1059.66,3714.2
1060.72,3714.0
1061.78,3715.0
1062.84,3716.2
1063.9,3713.6
1064.96,3714.7
1066.02,3715.3
1067.08,3714.4
1067.88,3711.9

File: VLFR_07-PET_nobio_Raman_83ca78c0.csv
nm,Intensity
791.588,9900.8
792.685,9246.1
793.781,8941.1
794.878,8771.1
795.975,8731.7
797.071,8729.5
798.168,8637.6
799.264,8650.2
800.36,8614.9
801.456,8556.2
802.552,8585.0
803.648,8456.2
804.744,8418.8
805.84,8337.6
806.936,8320.1
808.031,8144.8
809.127,8049.7
810.222,8016.7
811.317,8039.9
812.412,7857.5
813.507,7814.9
814.602,7694.2
815.697,7662.4
816.792,7651.8
817.887,7612.5
818.981,7557.4
820.076,7506.3
821.17,7425.2
822.265,7399.8
823.359,7332.1
824.453,7358.5
825.547,7386.6
826.641,7219.4
827.735,7231.2
828.828,7155.0
829.922,7073.4
831.016,7118.1
832.109,6964.3
833.202,6959.3
834.295,6949.7
835.388,6838.2
836.481,6856.4
837.574,6885.1
838.667,6918.3
839.76,6817.6
840.852,6927.0
841.945,6853.3
843.037,6678.5
844.129,6571.1
845.221,6532.7
846.314,6425.3
847.405,6362.9
848.497,6336.8
849.589,6328.6
850.681,6286.6
851.772,6251.7
852.863,6222.9
853.955,6189.4
855.046,6159.1
856.137,6141.9
857.228,6138.0
858.318,6166.4
859.409,6194.7
860.5,6167.2
861.59,6054.3
862.681,5961.5
863.771,6049.5
864.861,5967.5
865.951,5907.9
867.041,5850.3
868.131,5817.0
869.22,5835.0
870.31,5860.0
871.399,5932.8
872.488,6040.0
873.578,6026.5
874.667,5870.7
875.756,5807.1
876.845,5697.8
877.933,5692.4
879.022,5648.9
880.11,5678.8
881.199,5654.7
882.287,5619.1
883.375,5594.5
884.463,5543.2
885.551,5606.8
886.639,5493.5
887.726,5501.6
888.814,5419.0
889.901,5405.5
890.988,5424.1
892.075,5364.2
893.162,5314.1
894.249,5288.0
895.336,5259.7
896.423,5281.3
897.509,5453.3
898.595,5678.0
899.682,5442.0
900.768,5155.7
901.854,5072.0
902.94,5054.3
904.025,5024.7
905.111,5035.6
906.196,5095.2
907.282,5268.9
908.367,5240.0
909.452,5054.0
910.537,4909.5
911.622,4822.3
912.706,4790.0
913.791,4751.5
914.875,4780.2
915.959,4723.0
917.044,4695.3
918.128,4702.9
919.211,4659.0
920.295,4598.2
921.379,4604.4
922.462,4565.6
923.546,4549.7
924.629,4535.7
925.712,4487.8
926.795,4470.1
927.877,4468.0
928.96,4447.0
930.043,4403.6
931.125,4397.2
932.207,4367.1
933.289,4355.5
934.371,4330.3
935.453,4309.2
936.535,4300.1
937.616,4282.6
938.697,4262.9
939.779,4242.3
940.86,4236.5
941.941,4217.0
943.022,4213.9
944.102,4180.8
945.183,4175.8
946.263,4165.3
947.343,4153.4
948.423,4136.0
949.503,4133.8
950.583,4116.7
951.663,4107.2
952.742,4099.1
953.822,4072.0
954.901,4070.6
955.98,4057.9
957.059,4048.2
958.137,4040.7
959.216,4040.8
960.294,4013.8
961.373,4016.9
962.451,4011.2
963.529,4000.2
964.607,3994.6
965.684,3979.1
966.762,3979.0
967.839,3968.1
968.917,3964.2
969.994,3950.5
971.071,3955.8
972.147,3945.3
973.224,3934.0
974.3,3932.9
975.377,3920.4
976.453,3921.6
977.529,3911.8
978.605,3903.8
979.68,3898.2
980.756,3906.3
981.831,3890.5
982.907,3888.3
983.982,3885.4
985.057,3884.6
986.131,3876.6
987.206,3871.4
988.28,3869.6
989.355,3865.5
990.429,3862.9
991.503,3852.9
992.576,3854.1
993.65,3845.8
994.723,3841.5
995.797,3841.8
996.87,3837.9
997.943,3834.2
999.016,3833.8
1000.09,3830.0
1001.16,3828.1
1002.23,3822.3
1003.31,3821.7
1004.38,3820.9
1005.45,3816.5
1006.52,3813.2
1007.59,3806.3
1008.66,3810.0
1009.73,3804.9
1010.81,3802.8
1011.88,3801.8
1012.95,3801.5
1014.02,3800.6
1015.09,3799.1
1016.16,3795.3
1017.23,3793.3
1018.3,3791.2
1019.37,3790.2
1020.44,3790.1
1021.51,3790.9
1022.58,3790.1
1023.64,3791.8
1024.71,3788.3
1025.78,3786.6
1026.85,3781.9
1027.92,3778.4
1028.99,3775.3
1030.05,3779.7
1031.12,3775.9
1032.19,3773.4
1033.26,3774.6
1034.32,3775.3
1035.39,3774.8
1036.46,3775.2
1037.52,3771.5
1038.59,3769.3
1039.66,3768.1
1040.72,3765.9
1041.79,3767.2
1042.86,3766.8
1043.92,3765.3
1044.99,3764.4
1046.05,3761.8
1047.12,3762.2
1048.18,3762.4
1049.25,3763.8
1050.31,3763.9
1051.37,3761.1
1052.44,3759.3
1053.5,3760.0
1054.57,3762.5
1055.63,3760.4
1056.69,3760.2
1057.76,3761.1
1058.82,3761.3
1059.88,3757.8
1060.95,3759.5
1062.01,3759.5
1063.07,3759.9
1064.13,3760.1
1065.19,3760.7
1066.26,3759.1
1067.32,3758.5
1068.11,3760.3

File: VLFR_07-PET_nobio_Raman_91efb090.csv
cm-1,Intensity
109.24,8504.4
126.699,7926.65
144.108,7678.15
161.468,7450.2
178.779,7425.75
196.04,7448.8
213.253,7377.45
230.417,7372.0
247.532,7276.2
264.599,7299.9
281.618,7365.65
298.59,7119.4
315.513,7095.15
332.389,7061.35
349.218,6986.3
365.999,7006.5
382.734,6922.05
399.422,6915.15
416.064,6867.4
432.659,6808.15
449.208,6716.4
465.711,6657.8
482.168,6599.25
498.579,6537.55
514.946,6511.45
531.267,6512.35
547.542,6412.9
563.773,6379.6
579.96,6286.45
596.102,6305.05
612.199,6221.3
628.252,6366.65
644.261,6220.75
660.227,6156.1
676.149,6071.8
692.027,6086.35
707.862,6111.1
723.654,6009.05
739.403,5973.1
755.109,5942.25
770.773,5880.45
786.394,6007.05
801.973,5924.85
817.509,5943.25
833.004,5875.55
848.457,6106.3
863.868,5944.35
879.238,5887.1
894.567,5737.7
909.854,5675.65
925.1,5563.9
940.306,5599.35
955.471,5534.35
970.595,5562.8
985.679,5504.85
1000.72,5517.0
1015.73,5511.1
1030.69,5465.1
1045.61,5405.85
1060.5,5398.85
1075.34,5397.4
1090.15,5450.15
1104.92,5471.0
1119.64,5416.8
1134.33,5351.85
1148.98,5310.0
1163.6,5287.8
1178.17,5333.9
1192.7,5220.15
1207.2,5186.65
1221.66,5192.95
1236.08,5214.85
1250.46,5219.25
1264.81,5281.55
1279.12,5442.05
1293.39,5330.55
1307.62,5226.5
1321.82,5115.3
1335.98,5092.55
1350.11,5057.9
1364.19,5033.9
1378.24,5022.3
1392.26,5018.85
1406.24,5011.95
1420.18,4976.45
1434.08,4975.65
1447.96,4993.3
1461.79,4928.95
1475.59,4899.35
1489.35,4867.85
1503.08,4847.2
1516.78,4850.85
1530.44,4832.95
1544.06,4787.45
1557.65,4775.95
1571.2,4749.2
1584.72,4735.0
1598.21,5038.35
1611.66,5130.2
1625.08,4826.8
1638.46,4644.05
1651.81,4619.85
1665.13,4614.7
1678.41,4625.95
1691.66,4641.25
1704.88,4722.65
1718.06,4865.45
1731.21,4802.25
1744.32,4639.1
1757.41,4521.4
1770.46,4455.55
1783.48,4423.1
1796.46,4415.4
1809.42,4405.35
1822.34,4391.55
1835.23,4367.1
1848.08,4360.7
1860.91,4358.5
1873.7,4337.35
1886.46,4309.3
1899.19,4289.75
1911.89,4295.9
1924.56,4253.6
1937.19,4247.2
1949.8,4231.25
1962.37,4210.75
1974.91,4192.3
1987.42,4164.25
1999.9,4153.3
2012.36,4130.55
2024.78,4117.45
2037.16,4106.0
2049.52,4098.2
2061.85,4093.25
2074.15,4072.45
2086.42,4076.5
2098.66,4061.05
2110.87,4047.6
2123.05,4027.45
2135.2,4032.7
2147.32,4021.7
2159.41,4023.0
2171.47,4002.15
2183.51,3975.8
2195.51,3992.6
2207.49,3981.65
2219.43,3968.45
2231.35,3963.55
2243.24,3952.05
2255.1,3944.6
2266.93,3941.8
2278.73,3935.5
2290.51,3928.65
2302.26,3914.15
2313.97,3915.1
2325.67,3909.9
2337.33,3908.85
2348.96,3905.65
2360.57,3893.0
2372.15,3890.4
2383.7,3881.45
2395.23,3885.9
2406.73,3881.55
2418.2,3873.95
2429.64,3876.15
2441.06,3862.0
2452.45,3857.55
2463.81,3856.95
2475.15,3852.45
2486.46,3850.25
2497.74,3846.75
2509.0,3843.65
2520.23,3839.05
2531.43,3834.4
2542.61,3835.3
2553.76,3831.05
2564.88,3828.05
2575.98,3823.05
2587.06,3826.2
2598.1,3820.2
2609.13,3819.55
2620.12,3817.05
2631.09,3812.65
2642.04,3808.85
2652.96,3805.75
2663.85,3804.0
2674.72,3800.15
2685.57,3799.15
2696.39,3795.3
2707.18,3794.35
2717.95,3793.05
2728.69,3788.6
2739.41,3787.75
2750.11,3787.1
2760.78,3782.55
2771.43,3784.9
2782.05,3779.4
2792.65,3777.8
2803.22,3776.4
2813.77,3777.45
2824.3,3771.8
2834.8,3768.75
2845.27,3767.85
2855.73,3770.3
2866.16,3766.9
2876.56,3765.35
2886.95,3764.0
2897.3,3765.25
2907.64,3765.05
2917.95,3762.0
2928.24,3760.15
2938.51,3762.65
2948.75,3762.85
2958.97,3765.65
2969.17,3761.9
2979.34,3760.3
2989.49,3758.0
2999.62,3752.9
3009.72,3752.9
3019.81,3751.05
3029.87,3748.9
3039.9,3750.3
3049.92,3748.65
3059.91,3747.95
3069.88,3753.05
3079.83,3753.1
3089.76,3749.9
3099.66,3749.0
3109.54,3744.75
3119.4,3743.6
3129.24,3742.15
3139.06,3741.45
3148.85,3743.15
3158.62,3740.7
3168.38,3738.4
3178.11,3737.6
3187.81,3738.95
3197.5,3738.55
3207.17,3738.4
3216.81,3736.95
3226.44,3738.0
3236.04,3737.65
3245.62,3737.55
3255.18,3737.2
3264.72,3737.25
3274.24,3735.8
3283.73,3737.5
3293.21,3735.65
3302.67,3737.1
3312.1,3735.1
3321.52,3735.7
3330.91,3735.5
3340.29,3737.0
3349.64,3735.5
3358.97,3735.85
3368.29,3736.05
3375.26,3733.55