Folder: MPX_specDB/spectra (part 89)

File: VLFR_06-PET_nobio_Raman_bf545a03.csv
nm,Intensity
526.508,829.8
527.055,832.0
527.602,830.2
528.149,829.1
528.695,830.5
529.241,828.5
529.787,830.6
530.334,830.8
530.879,830.2
531.425,829.7
531.971,834.7
532.516,830.8
533.062,829.5
533.607,839.7
534.152,2276.2
534.697,1875.2
535.242,1456.6
535.786,1215.5
536.331,1068.2
536.876,1004.2
537.42,980.9
537.964,957.1
538.508,972.4
539.052,962.4
539.596,982.2
540.14,999.6
540.683,943.5
541.227,928.2
541.77,921.7
542.313,922.6
542.856,924.9
543.399,922.7
543.942,935.3
544.485,925.0
545.027,926.8
545.57,929.6
546.112,929.8
546.654,931.6
547.196,933.9
547.738,937.1
548.28,937.6
548.822,936.1
549.363,937.6
549.905,943.1
550.446,966.4
550.988,971.8
551.529,956.8
552.07,954.5
552.611,963.8
553.152,987.9
553.692,966.9
554.233,962.8
554.773,972.7
555.314,983.1
555.854,1039.6
556.394,1051.8
556.934,1063.9
557.474,1227.3
558.014,1098.6
558.553,1085.8
559.093,1036.7
559.632,999.6
560.172,996.0
560.711,1002.4
561.25,1008.0
561.789,1018.5
562.328,1030.8
562.867,1042.3
563.406,1048.7
563.944,1038.7
564.483,1046.7
565.021,1098.1
565.559,1175.3
566.098,1174.4
566.636,1067.6
567.174,1050.8
567.711,1143.7
568.249,1058.4
568.787,1050.2
569.324,1066.8
569.862,1093.2
570.399,1147.9
570.936,1296.9
571.474,1434.0
572.011,1248.8
572.548,1122.0
573.084,1095.2
573.621,1093.9
574.158,1133.9
574.694,1107.6
575.231,1135.6
575.767,1121.9
576.303,1154.8
576.84,1158.1
577.376,1124.1
577.912,1114.5
578.447,1121.2
578.983,1116.6
579.519,1128.2
580.054,1131.7
580.59,1143.1
581.125,1162.6
581.661,1251.8
582.196,2624.2
582.731,1220.9
583.266,1174.4
583.801,1161.7
584.336,1177.1
584.87,1191.8
585.405,1302.9
585.94,1909.4
586.474,1634.3
587.008,1245.7
587.543,1199.2
588.077,1186.2
588.611,1176.0
589.145,1186.5
589.679,1177.2
590.213,1181.4
590.747,1191.8
591.28,1192.8
591.814,1186.7
592.347,1194.5
592.881,1191.1
593.414,1192.7
593.947,1192.9
594.48,1198.6
595.014,1207.6
595.547,1204.5
596.079,1203.5
596.612,1208.5
597.145,1216.4
597.678,1210.9
598.21,1214.3
598.743,1216.7
599.275,1219.2
599.807,1227.9
600.34,1229.2
600.872,1231.4
601.404,1229.9
601.936,1225.1
602.468,1235.2
603.0,1239.5
603.532,1232.0
604.063,1232.6
604.595,1235.5
605.126,1231.0
605.658,1231.3
606.189,1226.5
606.721,1224.6
607.252,1235.6
607.783,1243.4
608.314,1243.6
608.845,1248.5
609.376,1243.6
609.907,1243.1
610.438,1248.6
610.968,1241.1
611.499,1239.1
612.03,1258.8
612.56,1254.7
613.091,1265.4
613.621,1262.7
614.151,1264.1
614.681,1268.9
615.212,1273.6
615.742,1272.7
616.272,1285.2
616.802,1276.8
617.332,1287.1
617.861,1298.1
618.391,1303.4
618.921,1306.2
619.45,1292.1
619.98,1290.0
620.509,1289.3
621.039,1305.0
621.568,1302.9
622.097,1303.2
622.627,1300.9
623.156,1322.0
623.685,1308.5
624.214,1333.5
624.743,1338.0
625.272,1342.2
625.801,1344.0
626.33,1339.2
626.858,1346.0
627.387,1353.7
627.916,1362.4
628.444,1382.2
628.973,1406.8
629.501,1412.9
630.029,1399.7
630.558,1411.9
631.086,1481.4
631.614,1616.2
632.142,1602.2
632.67,1538.2
633.198,1509.4
633.726,1503.1
634.254,1473.4
634.782,1462.7
635.31,1473.3
635.838,1540.3
636.365,1666.8
636.893,1688.3
637.421,1525.2
637.948,1495.0
638.476,1486.4
639.003,1496.7
639.531,1501.4
640.058,1507.4
640.585,1503.2
641.113,1517.7
641.64,1519.3
642.167,1528.5
642.694,1535.4
643.221,1534.0
643.748,1513.5
644.275,1532.5
644.802,1527.0
645.329,1528.0
645.856,1530.7
646.382,1547.6
646.909,1556.9
647.436,1560.9
647.962,1556.1
648.489,1549.1
649.016,1565.6
649.542,1559.7
650.069,1553.4
650.595,1563.8
651.121,1570.0
651.648,1567.4
652.174,1578.5
652.7,1582.7
653.227,1575.3
653.753,1581.9
654.279,1579.4
654.805,1582.3
655.331,1587.3
655.857,1580.1
656.383,1582.1
656.909,1590.5
657.435,1588.5
657.961,1581.8
658.487,1603.9
659.013,1597.1
659.538,1595.2
660.064,1599.1
660.59,1598.9
661.116,1591.2
661.641,1583.5
662.167,1577.7
662.692,1584.5
663.087,1578.1

File: VLFR_06-PET_nobio_Raman_c2fa14d1.csv
nm,Intensity
526.486,831.2
527.033,830.4
527.579,831.2
528.126,829.2
528.672,830.9
529.219,830.7
529.765,828.8
530.311,830.5
530.857,829.6
531.403,831.5
531.948,833.2
532.494,832.3
533.039,830.6
533.585,839.3
534.13,2365.6
534.675,1974.0
535.22,1550.2
535.764,1292.8
536.309,1130.7
536.854,1071.1
537.398,1044.4
537.942,1036.1
538.486,1046.4
539.03,1044.0
539.574,1055.9
540.118,1070.1
540.662,1019.0
541.205,1010.1
541.749,1011.8
542.292,1003.1
542.835,1003.4
543.378,1009.2
543.921,1016.6
544.464,1017.4
545.006,1017.3
545.549,1026.9
546.091,1025.0
546.634,1027.6
547.176,1030.0
547.718,1032.7
548.26,1041.6
548.802,1042.0
549.343,1042.7
549.885,1044.2
550.426,1066.9
550.968,1085.7
551.509,1055.8
552.05,1062.4
552.591,1072.9
553.132,1101.2
553.673,1079.5
554.214,1084.1
554.754,1087.3
555.295,1101.5
555.835,1164.8
556.375,1166.7
556.915,1181.0
557.455,1343.3
557.995,1231.2
558.535,1220.0
559.075,1167.3
559.614,1132.0
560.154,1133.2
560.693,1135.4
561.232,1151.6
561.772,1154.0
562.311,1175.1
562.85,1194.7
563.388,1193.7
563.927,1181.3
564.466,1191.8
565.004,1260.0
565.543,1341.0
566.081,1350.6
566.619,1240.7
567.157,1220.0
567.695,1324.7
568.233,1241.2
568.771,1222.6
569.309,1241.3
569.846,1275.4
570.384,1340.4
570.921,1486.6
571.458,1644.9
571.995,1451.6
572.532,1327.4
573.069,1304.9
573.606,1303.3
574.143,1343.7
574.68,1320.7
575.216,1351.5
575.753,1345.6
576.289,1369.7
576.825,1397.3
577.361,1360.2
577.897,1350.4
578.433,1366.6
578.969,1364.3
579.505,1366.8
580.041,1368.5
580.576,1398.2
581.112,1412.8
581.647,1499.2
582.183,2911.8
582.718,1498.6
583.253,1425.8
583.788,1427.2
584.323,1442.5
584.858,1455.0
585.392,1572.5
585.927,2222.4
586.462,1951.2
586.996,1535.1
587.53,1483.5
588.065,1467.0
588.599,1471.1
589.133,1468.5
589.667,1469.0
590.201,1471.2
590.735,1486.4
591.268,1481.5
591.802,1477.0
592.335,1489.8
592.869,1487.1
593.402,1495.0
593.936,1493.9
594.469,1497.8
595.002,1502.3
595.535,1507.6
596.068,1514.0
596.601,1520.8
597.133,1518.0
597.666,1518.4
598.199,1532.5
598.731,1537.6
599.264,1532.6
599.796,1548.4
600.328,1530.1
600.86,1545.5
601.393,1548.0
601.925,1542.8
602.457,1545.7
602.988,1557.4
603.52,1556.8
604.052,1557.7
604.583,1560.6
605.115,1551.7
605.646,1539.0
606.178,1548.5
606.709,1534.6
607.24,1536.6
607.771,1551.6
608.302,1556.5
608.833,1561.5
609.364,1566.0
609.895,1551.0
610.426,1554.0
610.957,1568.2
611.487,1569.2
612.018,1578.1
612.548,1591.5
613.078,1594.5
613.609,1591.7
614.139,1612.2
614.669,1605.7
615.199,1610.3
615.729,1619.8
616.259,1620.1
616.789,1626.8
617.319,1632.6
617.849,1643.1
618.378,1639.5
618.908,1647.2
619.437,1646.6
619.967,1639.5
620.496,1641.1
621.025,1647.3
621.555,1648.3
622.084,1660.6
622.613,1665.6
623.142,1682.9
623.671,1681.8
624.2,1693.4
624.729,1701.9
625.258,1725.1
625.786,1709.8
626.315,1716.0
626.844,1726.8
627.372,1723.9
627.901,1746.0
628.429,1773.6
628.957,1807.9
629.486,1813.4
630.014,1818.5
630.542,1823.5
631.07,1896.2
631.598,2058.8
632.126,2066.8
632.654,1972.8
633.182,1942.3
633.71,1934.6
634.237,1903.9
634.765,1894.1
635.293,1905.0
635.82,1983.0
636.348,2141.7
636.875,2185.0
637.403,2010.2
637.93,1964.0
638.458,1975.8
638.985,1969.9
639.512,1989.6
640.039,1990.6
640.566,1994.2
641.093,2004.1
641.62,2008.5
642.147,2040.4
642.674,2048.1
643.201,2021.1
643.728,2020.0
644.255,2035.0
644.781,2021.7
645.308,2037.5
645.835,2047.9
646.361,2059.4
646.888,2052.5
647.414,2058.6
647.941,2085.4
648.467,2077.0
648.993,2083.6
649.52,2079.9
650.046,2082.8
650.572,2078.1
651.098,2074.9
651.625,2094.2
652.151,2085.8
652.677,2110.0
653.203,2120.0
653.729,2108.7
654.255,2122.3
654.78,2104.2
655.306,2113.2
655.832,2119.4
656.358,2126.5
656.884,2129.8
657.409,2118.4
657.935,2126.2
658.461,2127.6
658.986,2129.9
659.512,2125.9
660.037,2139.2
660.563,2127.8
661.088,2120.1
661.614,2115.7
662.139,2096.6
662.664,2098.3
663.058,2094.0

File: VLFR_06-PET_nobio_Raman_c43b6a8d.csv
nm,Intensity
526.508,831.1
527.055,830.1
527.602,831.5
528.149,829.3
528.695,830.3
529.241,829.5
529.787,830.3
530.334,830.9
530.879,830.7
531.425,832.3
531.971,833.8
532.516,831.7
533.062,831.4
533.607,839.7
534.152,2205.1
534.697,1859.3
535.242,1478.1
535.786,1252.3
536.331,1111.9
536.876,1055.6
537.42,1036.6
537.964,1024.8
538.508,1035.4
539.052,1025.1
539.596,1048.8
540.14,1054.7
540.683,1014.0
541.227,999.8
541.77,1002.4
542.313,994.8
542.856,1002.0
543.399,1007.0
543.942,1019.0
544.485,1006.9
545.027,1015.4
545.57,1015.5
546.112,1026.0
546.654,1024.9
547.196,1031.0
547.738,1031.7
548.28,1029.5
548.822,1037.5
549.363,1041.9
549.905,1045.2
550.446,1068.0
550.988,1075.3
551.529,1057.1
552.07,1062.1
552.611,1070.0
553.152,1088.8
553.692,1081.9
554.233,1077.5
554.773,1081.5
555.314,1106.0
555.854,1156.6
556.394,1169.2
556.934,1182.7
557.474,1332.4
558.014,1216.5
558.553,1210.6
559.093,1164.9
559.632,1129.6
560.172,1136.0
560.711,1137.1
561.25,1150.3
561.789,1147.9
562.328,1177.1
562.867,1187.4
563.406,1193.8
563.944,1193.3
564.483,1203.4
565.021,1254.0
565.559,1325.4
566.098,1333.8
566.636,1230.3
567.174,1221.2
567.711,1319.1
568.249,1236.6
568.787,1230.5
569.324,1240.8
569.862,1273.0
570.399,1330.3
570.936,1478.6
571.474,1612.2
572.011,1442.1
572.548,1324.8
573.084,1298.1
573.621,1303.5
574.158,1340.0
574.694,1313.6
575.231,1352.7
575.767,1335.5
576.303,1365.8
576.84,1386.4
577.376,1354.0
577.912,1339.0
578.447,1356.1
578.983,1353.5
579.519,1364.4
580.054,1373.2
580.59,1378.6
581.125,1399.5
581.661,1496.4
582.196,2813.6
582.731,1473.9
583.266,1412.8
583.801,1418.4
584.336,1428.9
584.87,1458.9
585.405,1572.3
585.94,2168.2
586.474,1881.8
587.008,1518.8
587.543,1466.5
588.077,1466.1
588.611,1465.5
589.145,1470.0
589.679,1463.7
590.213,1459.0
590.747,1473.4
591.28,1483.0
591.814,1484.4
592.347,1478.8
592.881,1479.9
593.414,1481.1
593.947,1484.2
594.48,1496.1
595.014,1495.7
595.547,1504.9
596.079,1510.6
596.612,1507.7
597.145,1514.9
597.678,1520.9
598.21,1527.3
598.743,1531.9
599.275,1535.6
599.807,1539.5
600.34,1540.7
600.872,1539.9
601.404,1534.2
601.936,1538.3
602.468,1542.5
603.0,1540.5
603.532,1547.5
604.063,1549.2
604.595,1547.7
605.126,1538.3
605.658,1530.8
606.189,1533.8
606.721,1535.5
607.252,1531.4
607.783,1550.3
608.314,1550.3
608.845,1555.3
609.376,1548.2
609.907,1547.3
610.438,1550.6
610.968,1555.6
611.499,1562.7
612.03,1564.0
612.56,1577.8
613.091,1576.3
613.621,1592.3
614.151,1602.3
614.681,1601.6
615.212,1596.4
615.742,1599.9
616.272,1609.6
616.802,1610.3
617.332,1617.8
617.861,1625.2
618.391,1636.3
618.921,1628.7
619.45,1628.7
619.98,1622.5
620.509,1624.0
621.039,1641.0
621.568,1636.9
622.097,1642.2
622.627,1661.1
623.156,1664.3
623.685,1675.8
624.214,1674.5
624.743,1699.0
625.272,1702.3
625.801,1691.8
626.33,1697.4
626.858,1704.4
627.387,1701.5
627.916,1733.4
628.444,1748.2
628.973,1785.1
629.501,1785.2
630.029,1795.4
630.558,1801.4
631.086,1860.8
631.614,2030.6
632.142,2016.9
632.67,1920.7
633.198,1903.0
633.726,1896.2
634.254,1867.6
634.782,1857.2
635.31,1892.6
635.838,1960.7
636.365,2097.8
636.893,2110.5
637.421,1954.6
637.948,1931.1
638.476,1920.6
639.003,1931.8
639.531,1941.3
640.058,1943.6
640.585,1960.7
641.113,1970.6
641.64,1976.2
642.167,1996.8
642.694,1999.6
643.221,1998.4
643.748,1980.0
644.275,1982.1
644.802,1986.7
645.329,1989.2
645.856,1992.1
646.382,2023.0
646.909,2015.6
647.436,2035.8
647.962,2030.6
648.489,2029.0
649.016,2046.8
649.542,2032.4
650.069,2037.0
650.595,2031.1
651.121,2045.1
651.648,2039.9
652.174,2048.2
652.7,2066.0
653.227,2061.7
653.753,2062.2
654.279,2073.8
654.805,2064.6
655.331,2071.3
655.857,2058.9
656.383,2068.8
656.909,2079.7
657.435,2051.1
657.961,2074.6
658.487,2074.0
659.013,2062.9
659.538,2082.3
660.064,2081.9
660.59,2071.1
661.116,2071.3
661.641,2041.1
662.167,2047.2
662.692,2042.4
663.087,2044.6

File: VLFR_06-PET_nobio_Raman_d4b859f3.csv
nm,Intensity
526.486,829.7
527.033,830.1
527.579,830.2
528.126,831.1
528.672,829.4
529.219,829.8
529.765,831.6
530.311,830.5
530.857,830.9
531.403,829.6
531.948,835.2
532.494,831.5
533.039,829.8
533.585,836.5
534.13,1728.9
534.675,1515.9
535.22,1276.8
535.764,1151.5
536.309,1066.1
536.854,1032.4
537.398,1021.8
537.942,1017.7
538.486,1025.7
539.03,1030.7
539.574,1041.8
540.118,1050.1
540.662,1028.2
541.205,1020.9
541.749,1016.6
542.292,1018.7
542.835,1024.2
543.378,1021.1
543.921,1031.8
544.464,1030.1
545.006,1038.0
545.549,1035.3
546.091,1040.0
546.634,1042.3
547.176,1047.0
547.718,1049.5
548.26,1056.2
548.802,1058.2
549.343,1051.9
549.885,1063.7
550.426,1070.5
550.968,1083.1
551.509,1073.9
552.05,1076.0
552.591,1088.9
553.132,1097.3
553.673,1085.7
554.214,1094.3
554.754,1095.6
555.295,1107.1
555.835,1144.5
556.375,1151.4
556.915,1158.9
557.455,1253.0
557.995,1180.2
558.535,1181.4
559.075,1148.1
559.614,1131.8
560.154,1137.7
560.693,1152.0
561.232,1152.7
561.772,1155.1
562.311,1169.8
562.85,1180.9
563.388,1185.5
563.927,1186.2
564.466,1198.1
565.004,1236.1
565.543,1277.3
566.081,1295.0
566.619,1234.8
567.157,1221.7
567.695,1278.0
568.233,1237.5
568.771,1236.8
569.309,1254.0
569.846,1267.2
570.384,1308.8
570.921,1402.2
571.458,1497.8
571.995,1377.9
572.532,1317.9
573.069,1300.2
573.606,1314.0
574.143,1341.8
574.68,1325.2
575.216,1357.2
575.753,1345.1
576.289,1360.1
576.825,1381.8
577.361,1364.7
577.897,1356.9
578.433,1363.2
578.969,1374.4
579.505,1384.2
580.041,1393.7
580.576,1399.5
581.112,1410.8
581.647,1473.8
582.183,2304.9
582.718,1468.6
583.253,1444.8
583.788,1444.9
584.323,1449.3
584.858,1467.7
585.392,1529.6
585.927,1941.9
586.462,1760.9
586.996,1518.1
587.53,1496.5
588.065,1484.8
588.599,1488.4
589.133,1487.1
589.667,1500.4
590.201,1497.7
590.735,1498.4
591.268,1506.7
591.802,1509.7
592.335,1515.4
592.869,1509.9
593.402,1511.8
593.936,1508.5
594.469,1519.1
595.002,1530.4
595.535,1541.4
596.068,1544.3
596.601,1543.1
597.133,1552.7
597.666,1550.6
598.199,1567.1
598.731,1566.0
599.264,1581.4
599.796,1566.8
600.328,1574.4
600.86,1574.8
601.393,1571.7
601.925,1573.9
602.457,1586.8
602.988,1577.6
603.52,1588.0
604.052,1594.0
604.583,1588.7
605.115,1573.2
605.646,1584.5
606.178,1572.5
606.709,1567.7
607.24,1588.5
607.771,1585.7
608.302,1586.3
608.833,1603.3
609.364,1599.4
609.895,1603.1
610.426,1600.6
610.957,1592.8
611.487,1608.6
612.018,1619.3
612.548,1620.7
613.078,1636.7
613.609,1644.8
614.139,1654.1
614.669,1652.1
615.199,1654.7
615.729,1654.5
616.259,1652.7
616.789,1664.2
617.319,1656.9
617.849,1679.8
618.378,1677.6
618.908,1677.5
619.437,1664.4
619.967,1672.4
620.496,1670.5
621.025,1675.8
621.555,1677.3
622.084,1682.1
622.613,1693.6
623.142,1700.5
623.671,1708.0
624.2,1721.8
624.729,1730.9
625.258,1729.2
625.786,1736.0
626.315,1735.0
626.844,1740.9
627.372,1745.1
627.901,1752.1
628.429,1768.1
628.957,1797.7
629.486,1808.7
630.014,1807.4
630.542,1824.9
631.07,1871.3
631.598,1974.4
632.126,1965.9
632.654,1913.7
633.182,1891.4
633.71,1888.1
634.237,1862.7
634.765,1859.0
635.293,1878.1
635.82,1941.1
636.348,2046.9
636.875,2046.4
637.403,1943.2
637.93,1920.9
638.458,1921.5
638.985,1934.0
639.512,1942.9
640.039,1945.6
640.566,1955.0
641.093,1942.7
641.62,1967.8
642.147,1981.2
642.674,1971.2
643.201,1966.3
643.728,1980.4
644.255,1958.1
644.781,1963.2
645.308,1982.5
645.835,1977.3
646.361,1979.7
646.888,1972.9
647.414,1995.1
647.941,2003.2
648.467,2003.5
648.993,1992.3
649.52,1996.6
650.046,1988.5
650.572,1999.7
651.098,1985.2
651.625,1995.9
652.151,2002.9
652.677,2007.1
653.203,2023.0
653.729,2011.6
654.255,2019.2
654.78,2010.6
655.306,2015.4
655.832,2007.9
656.358,2017.0
656.884,2028.0
657.409,2010.7
657.935,2002.6
658.461,2015.4
658.986,2017.1
659.512,2034.6
660.037,2006.4
660.563,2006.9
661.088,2009.4
661.614,1974.6
662.139,1988.7
662.664,1976.1
663.058,1985.7

File: VLFR_06-PET_nobio_Raman_da5ef05d.csv
nm,Intensity
526.508,829.7
527.055,829.75
527.602,830.75
528.149,830.45
528.695,831.45
529.241,830.6
529.787,830.6
530.334,830.7
530.879,830.3
531.425,830.1
531.971,833.6
532.516,830.9
533.062,829.8
533.607,830.4
534.152,895.95
534.697,897.3
535.242,884.55
535.786,879.85
536.331,876.9
536.876,875.95
537.42,877.05
537.964,876.1
538.508,876.6
539.052,879.05
539.596,881.25
540.14,883.05
540.683,883.3
541.227,886.15
541.77,892.75
542.313,896.65
542.856,898.7
543.399,906.2
543.942,896.45
544.485,900.95
545.027,907.7
545.57,908.15
546.112,901.95
546.654,906.05
547.196,914.65
547.738,908.7
548.28,908.6
548.822,912.55
549.363,913.3
549.905,916.3
550.446,919.9
550.988,921.2
551.529,923.8
552.07,927.3
552.611,925.55
553.152,928.15
553.692,929.95
554.233,931.65
554.773,937.5
555.314,937.0
555.854,940.05
556.394,943.7
556.934,945.45
557.474,947.2
558.014,948.5
558.553,949.5
559.093,956.95
559.632,954.75
560.172,961.85
560.711,962.95
561.25,968.1
561.789,963.3
562.328,971.55
562.867,975.4
563.406,981.65
563.944,984.5
564.483,988.55
565.021,1011.4
565.559,1009.2
566.098,1013.1
566.636,1001.1
567.174,1000.85
567.711,993.2
568.249,999.5
568.787,998.15
569.324,1002.45
569.862,1004.4
570.399,1001.45
570.936,1011.5
571.474,1018.3
572.011,1012.35
572.548,1014.65
573.084,1019.4
573.621,1024.05
574.158,1029.25
574.694,1030.15
575.231,1024.85
575.767,1023.15
576.303,1024.75
576.84,1028.85
577.376,1028.75
577.912,1028.95
578.447,1026.05
578.983,1028.0
579.519,1026.4
580.054,1027.55
580.59,1031.1
581.125,1031.25
581.661,1033.05
582.196,1047.2
582.731,1033.2
583.266,1037.15
583.801,1034.3
584.336,1034.65
584.87,1037.9
585.405,1041.65
585.94,1046.75
586.474,1045.9
587.008,1044.5
587.543,1042.35
588.077,1038.15
588.611,1038.45
589.145,1038.0
589.679,1037.35
590.213,1039.15
590.747,1041.15
591.28,1036.25
591.814,1038.45
592.347,1034.55
592.881,1035.8
593.414,1034.35
593.947,1041.85
594.48,1037.0
595.014,1036.9
595.547,1038.65
596.079,1041.75
596.612,1040.4
597.145,1042.95
597.678,1043.25
598.21,1045.7
598.743,1048.65
599.275,1041.55
599.807,1045.05
600.34,1045.75
600.872,1045.95
601.404,1047.45
601.936,1049.25
602.468,1042.7
603.0,1047.85
603.532,1047.85
604.063,1049.3
604.595,1046.5
605.126,1047.9
605.658,1048.5
606.189,1042.15
606.721,1041.05
607.252,1042.65
607.783,1045.9
608.314,1042.1
608.845,1052.75
609.376,1051.15
609.907,1048.7
610.438,1049.0
610.968,1048.2
611.499,1046.8
612.03,1054.55
612.56,1054.95
613.091,1056.35
613.621,1055.1
614.151,1060.8
614.681,1059.4
615.212,1057.05
615.742,1060.95
616.272,1062.45
616.802,1064.95
617.332,1063.45
617.861,1068.4
618.391,1059.65
618.921,1067.1
619.45,1070.2
619.98,1065.9
620.509,1069.75
621.039,1067.5
621.568,1067.9
622.097,1070.25
622.627,1072.25
623.156,1074.65
623.685,1074.75
624.214,1069.9
624.743,1076.2
625.272,1075.05
625.801,1079.65
626.33,1078.95
626.858,1087.3
627.387,1092.25
627.916,1103.5
628.444,1119.45
628.973,1136.3
629.501,1134.85
630.029,1116.6
630.558,1110.75
631.086,1099.65
631.614,1093.85
632.142,1093.9
632.67,1083.8
633.198,1076.7
633.726,1072.45
634.254,1072.6
634.782,1073.75
635.31,1075.05
635.838,1074.7
636.365,1077.7
636.893,1077.3
637.421,1070.75
637.948,1074.5
638.476,1078.65
639.003,1075.05
639.531,1076.7
640.058,1076.05
640.585,1079.3
641.113,1079.8
641.64,1079.85
642.167,1076.75
642.694,1076.0
643.221,1078.95
643.748,1078.3
644.275,1080.05
644.802,1080.8
645.329,1080.6
645.856,1080.8
646.382,1077.65
646.909,1078.05
647.436,1083.4
647.962,1077.5
648.489,1075.95
649.016,1074.85
649.542,1077.6
650.069,1078.65
650.595,1070.65
651.121,1071.0
651.648,1072.65
652.174,1070.5
652.7,1072.65
653.227,1071.45
653.753,1069.55
654.279,1070.5
654.805,1064.3
655.331,1069.8
655.857,1065.1
656.383,1066.8
656.909,1065.1
657.435,1063.6
657.961,1065.45
658.487,1069.0
659.013,1067.65
659.538,1066.75
660.064,1066.15
660.59,1070.1
661.116,1069.25
661.641,1064.15
662.167,1058.25
662.692,1061.65
663.087,1059.4

File: VLFR_06-PET_nobio_Raman_db91c6a5.csv
nm,Intensity
528.65,1842.17
529.155,1843.03
529.66,1842.33
530.165,1842.8
530.67,1897.93
531.175,1846.27
531.68,1892.83
532.185,3886.6
532.69,1847.0
533.194,1855.13
533.699,3373.17
534.204,6620.73
534.708,5294.23
535.213,4180.93
535.717,3352.27
536.222,2825.93
536.726,2641.43
537.231,2542.63
537.735,2497.17
538.239,2499.4
538.743,2518.77
539.247,2544.77
539.751,2659.13
540.255,2569.0
540.759,2431.67
541.263,2379.03
541.767,2378.93
542.271,2373.5
542.775,2378.8
543.279,2369.3
543.782,2400.27
544.286,2393.37
544.789,2401.53
545.293,2388.43
545.796,2389.3
546.3,2383.8
546.803,2408.67
547.306,2413.1
547.81,2408.0
548.313,2391.8
548.816,2403.8
549.319,2399.07
549.822,2393.5
550.325,2509.7
550.828,2799.47
551.331,2442.8
551.834,2432.3
552.337,2438.83
552.839,2743.1
553.342,2446.27
553.844,2456.07
554.347,2436.0
554.849,2456.7
555.352,2608.5
555.854,2793.8
556.357,2832.5
556.859,2879.23
557.361,3523.9
557.863,3155.8
558.365,2968.03
558.867,2784.53
559.369,2559.53
559.871,2533.8
560.373,2527.6
560.875,2544.93
561.377,2576.93
561.878,2650.47
562.38,2656.4
562.881,2762.93
563.383,2718.47
563.884,2667.87
564.386,2711.0
564.887,2940.0
565.388,3272.63
565.89,3457.9
566.391,2954.3
566.892,2737.97
567.393,2936.0
567.894,3002.9
568.395,2750.8
568.896,2736.93
569.396,2811.0
569.897,2944.4
570.398,3307.93
570.898,4069.93
571.399,4590.93
571.9,3704.2
572.4,3126.1
572.9,2901.13
573.401,2894.5
573.901,3028.47
574.401,2949.83
574.901,3000.03
575.401,3209.37
575.901,3010.77
576.401,3211.57
576.901,3202.87
577.401,2985.9
577.901,2931.07
578.4,3002.1
578.9,2961.33
579.399,2986.0
579.899,3021.43
580.398,3067.6
580.898,3183.43
581.397,3360.2
581.896,6558.83
582.395,5636.27
582.895,3249.47
583.394,3123.57
583.893,3177.37
584.391,3194.97
584.89,3313.23
585.389,4147.9
585.888,6528.47
586.386,5094.07
586.885,3531.43
587.384,3246.6
587.882,3186.17
588.38,3202.2
588.879,3160.57
589.377,3185.87
589.875,3137.23
590.373,3168.6
590.871,3161.3
591.369,3154.23
591.867,3184.53
592.365,3193.77
592.863,3186.53
593.361,3177.0
593.858,3166.2
594.356,3216.2
594.853,3172.93
595.351,3195.07
595.848,3218.1
596.345,3225.7
596.843,3183.43
597.34,3220.77
597.837,3220.8
598.334,3243.43
598.831,3249.93
599.328,3210.97
599.824,3258.23
600.321,3222.47
600.818,3265.93
601.314,3227.6
601.811,3245.5
602.307,3226.8
602.804,3262.47
603.3,3253.13
603.796,3270.13
604.293,3268.6
604.789,3288.13
605.285,3223.83
605.781,3261.27
606.277,3269.33
606.772,3280.9
607.268,3298.47
607.764,3293.63
608.259,3227.03
608.755,3261.57
609.25,3294.4
609.746,3288.43
610.241,3314.0
610.736,3332.63
611.231,3287.17
611.727,3304.5
612.222,3256.7
612.716,3297.17
613.211,3294.47
613.706,3313.73
614.201,3332.13
614.695,3313.4
615.19,3309.13
615.684,3342.07
616.179,3393.67
616.673,3332.07
617.168,3399.67
617.662,3362.6
618.156,3408.8
618.65,3420.9
619.144,3364.83
619.638,3371.8
620.131,3360.53
620.625,3366.5
621.119,3390.23
621.612,3390.97
622.106,3386.47
622.599,3395.07
623.093,3469.33
623.586,3432.83
624.079,3388.5
624.572,3461.4
625.065,3524.17
625.558,3476.6
626.051,3408.83
626.544,3459.47
627.037,3481.87
627.529,3473.43
628.022,3498.33
628.514,3613.2
629.007,3715.8
629.499,3683.37
629.991,3588.2
630.483,3710.33
630.976,3970.33
631.468,4565.0
631.959,4490.13
632.451,4162.87
632.943,3989.87
633.435,4011.0
633.926,3872.47
634.418,3783.67
634.909,3706.03
635.401,3763.97
635.892,4181.8
636.383,4751.27
636.874,4404.47
637.365,3927.03
637.856,3749.87
638.347,3730.7
638.838,3722.03
639.329,3723.2
639.819,3665.97
640.31,3664.7
640.8,3701.0
641.291,3635.8
641.781,3688.43
642.271,3714.27
642.761,3689.33
643.251,3703.8
643.741,3706.27
644.231,3710.0
644.721,3661.03
645.211,3658.1
645.7,3713.7
646.19,3725.6
646.679,3639.8
647.169,3700.97
647.658,3668.67
648.147,3611.43
648.636,3675.43
649.125,3634.57
649.614,3628.5
650.103,3584.0
650.592,3650.57
651.08,3613.2
651.569,3635.53
652.058,3628.1
652.546,3546.97
653.034,3556.33
653.523,3523.4
654.011,3565.5
654.499,3491.57
654.987,3568.63
655.475,3496.2
655.963,3486.6
656.45,3466.4
656.938,3445.37
657.425,3424.93
657.913,3425.03
658.4,3349.1
658.888,3435.07
659.375,3347.6
659.862,3339.73
660.349,3398.27
660.836,3300.23
661.079,3333.77