Folder: MPX_specDB/spectra (part 43)

File: VLFR_02-HDPE_bio_Raman_685428b8.csv
nm,Intensity
526.494,833.9
527.041,835.2
527.588,835.1
528.135,835.0
528.682,834.1
529.229,834.6
529.775,835.0
530.321,835.1
530.868,834.2
531.414,834.6
531.96,846.4
532.506,836.4
533.051,833.3
533.597,834.1
534.142,868.2
534.687,868.4
535.232,863.8
535.777,856.3
536.322,852.8
536.867,853.9
537.411,851.5
537.956,850.5
538.5,850.2
539.044,848.1
539.588,848.6
540.132,849.2
540.676,848.2
541.22,851.4
541.763,847.0
542.306,848.8
542.85,847.3
543.393,845.5
543.936,849.6
544.479,849.1
545.021,845.7
545.564,846.0
546.106,847.1
546.649,847.1
547.191,846.5
547.733,846.9
548.275,848.5
548.817,847.7
549.359,848.2
549.9,848.2
550.442,847.0
550.983,848.9
551.524,849.3
552.066,849.0
552.607,848.1
553.148,848.7
553.688,849.8
554.229,848.5
554.77,851.1
555.31,850.3
555.85,851.4
556.39,852.2
556.931,850.9
557.471,852.8
558.01,854.3
558.55,853.0
559.09,851.6
559.629,851.4
560.169,850.6
560.708,852.7
561.247,851.0
561.786,853.5
562.325,853.1
562.864,853.8
563.403,856.1
563.941,891.0
564.48,864.5
565.018,858.9
565.557,859.9
566.095,887.3
566.633,859.1
567.171,857.1
567.709,860.4
568.247,854.6
568.784,858.2
569.322,856.7
569.859,856.6
570.397,859.0
570.934,861.9
571.471,925.3
572.008,870.4
572.545,861.5
573.082,858.2
573.619,860.5
574.155,864.4
574.692,859.8
575.228,862.3
575.765,881.4
576.301,933.6
576.837,904.6
577.373,890.7
577.909,875.8
578.445,872.7
578.981,871.4
579.516,875.2
580.052,873.1
580.587,877.5
581.123,875.4
581.658,883.4
582.193,879.1
582.728,881.8
583.263,882.0
583.798,884.3
584.333,884.9
584.868,884.7
585.402,886.6
585.937,891.3
586.471,893.3
587.005,893.5
587.54,895.5
588.074,898.9
588.608,899.1
589.142,902.0
589.676,902.6
590.21,903.0
590.743,905.1
591.277,908.5
591.81,908.9
592.344,908.6
592.877,907.4
593.411,910.1
593.944,908.4
594.477,910.1
595.01,912.8
595.543,911.7
596.076,915.8
596.608,917.3
597.141,912.6
597.674,917.4
598.206,916.8
598.739,922.7
599.271,923.5
599.803,920.9
600.335,922.4
600.868,922.2
601.4,924.2
601.931,926.7
602.463,929.3
602.995,927.7
603.527,926.7
604.058,927.0
604.59,922.2
605.121,922.9
605.653,922.3
606.184,919.0
606.715,917.6
607.246,918.1
607.778,917.4
608.309,923.3
608.839,918.7
609.37,919.4
609.901,910.3
610.432,913.7
610.962,911.9
611.493,911.8
612.023,913.9
612.554,911.9
613.084,914.8
613.614,908.2
614.145,914.2
614.675,910.4
615.205,910.4
615.735,909.5
616.265,905.1
616.795,910.4
617.324,911.8
617.854,914.3
618.384,909.1
618.913,908.7
619.443,907.7
619.972,910.3
620.502,910.1
621.031,913.6
621.56,917.9
622.089,929.2
622.618,925.4
623.147,909.7
623.676,908.1
624.205,906.7
624.734,906.4
625.263,907.2
625.792,912.9
626.32,925.3
626.849,1061.8
627.377,1261.9
627.906,1112.8
628.434,1224.3
628.963,1107.0
629.491,1063.7
630.019,1009.1
630.547,995.5
631.076,942.2
631.604,910.4
632.132,906.5
632.66,900.3
633.188,904.4
633.715,899.0
634.243,896.0
634.771,899.2
635.299,899.4
635.826,893.0
636.354,898.6
636.881,896.5
637.409,892.7
637.936,891.4
638.464,892.9
638.991,895.9
639.518,895.1
640.045,891.8
640.573,892.0
641.1,893.0
641.627,895.6
642.154,891.5
642.681,892.8
643.208,891.8
643.735,893.1
644.261,890.9
644.788,892.8
645.315,890.4
645.842,891.2
646.368,890.7
646.895,894.1
647.421,889.8
647.948,892.7
648.474,893.8
649.001,891.1
649.527,889.2
650.054,891.5
650.58,890.1
651.106,890.0
651.633,888.9
652.159,890.5
652.685,893.3
653.211,890.4
653.737,891.8
654.263,892.5
654.789,890.1
655.315,890.8
655.841,890.8
656.367,892.6
656.893,891.1
657.419,890.3
657.945,891.4
658.47,890.9
658.996,888.2
659.522,890.3
660.047,887.9
660.573,889.7
661.099,889.4
661.624,886.9
662.15,889.2
662.675,886.7
663.07,883.6

File: VLFR_02-HDPE_bio_Raman_4036845a.csv
nm,Intensity
528.629,1851.6
529.134,1851.4
529.639,1852.05
530.145,1851.95
530.65,1853.2
531.155,1852.45
531.66,1875.55
532.165,2590.55
532.67,1852.7
533.175,1853.25
533.68,1857.0
534.185,1868.4
534.69,1868.8
535.195,1868.45
535.699,1868.35
536.204,1870.05
536.709,1868.5
537.213,1869.0
537.718,1868.05
538.222,1869.3
538.727,1870.8
539.231,1870.45
539.735,1870.15
540.239,1872.1
540.744,1870.35
541.248,1872.65
541.752,1871.5
542.256,1873.25
542.76,1871.8
543.264,1871.1
543.768,1873.1
544.271,1872.15
544.775,1871.9
545.279,1873.75
545.783,1871.6
546.286,1871.3
546.79,1873.25
547.293,1873.8
547.797,1875.7
548.3,1873.4
548.803,1877.05
549.306,1873.25
549.81,1874.85
550.313,1876.95
550.816,1874.3
551.319,1875.45
551.822,1876.2
552.325,1879.95
552.828,1872.85
553.33,1879.6
553.833,1878.05
554.336,1877.0
554.838,1880.5
555.341,1877.7
555.843,1880.9
556.346,1880.65
556.848,1882.15
557.35,1878.75
557.853,1879.85
558.355,1881.9
558.857,1880.95
559.359,1879.55
559.861,1879.4
560.363,1882.35
560.865,1882.75
561.367,1884.35
561.869,1882.0
562.37,1885.15
562.872,1880.95
563.374,1882.55
563.875,1890.95
564.376,1885.35
564.878,1885.4
565.379,1884.9
565.881,1893.1
566.382,1892.1
566.883,1885.6
567.384,1889.15
567.885,1888.7
568.386,1884.55
568.887,1885.5
569.388,1886.85
569.888,1890.4
570.389,1889.25
570.89,1889.0
571.39,1900.75
571.891,1891.65
572.391,1890.0
572.892,1892.45
573.392,1892.55
573.892,1892.85
574.393,1890.7
574.893,1893.45
575.393,1896.95
575.893,1895.05
576.393,1898.5
576.893,1899.2
577.392,1895.35
577.892,1892.05
578.392,1889.05
578.891,1890.95
579.391,1894.15
579.89,1893.4
580.39,1895.05
580.889,1896.7
581.388,1891.5
581.888,1892.9
582.387,1891.85
582.886,1897.1
583.385,1894.8
583.884,1893.65
584.383,1893.85
584.881,1891.3
585.38,1896.1
585.879,1894.6
586.377,1896.95
586.876,1893.45
587.374,1896.5
587.873,1892.6
588.371,1892.0
588.869,1896.8
589.368,1893.9
589.866,1895.0
590.364,1891.7
590.862,1893.7
591.36,1895.45
591.857,1894.6
592.355,1895.25
592.853,1891.5
593.35,1899.45
593.848,1894.7
594.345,1897.5
594.843,1895.4
595.34,1894.95
595.837,1897.8
596.335,1899.05
596.832,1896.15
597.329,1897.45
597.826,1899.55
598.323,1897.95
598.819,1899.3
599.316,1891.85
599.813,1898.15
600.309,1901.0
600.806,1902.3
601.302,1896.35
601.799,1899.35
602.295,1898.95
602.791,1896.75
603.288,1898.7
603.784,1899.55
604.28,1893.75
604.776,1898.55
605.272,1897.0
605.767,1899.5
606.263,1894.3
606.759,1893.35
607.254,1898.3
607.75,1894.0
608.245,1894.25
608.74,1896.0
609.236,1897.85
609.731,1890.85
610.226,1894.0
610.721,1893.65
611.216,1894.7
611.711,1900.6
612.206,1893.55
612.7,1896.45
613.195,1893.2
613.69,1895.7
614.184,1891.45
614.679,1893.1
615.173,1890.85
615.667,1896.1
616.161,1891.8
616.656,1893.1
617.15,1893.5
617.644,1894.6
618.137,1894.3
618.631,1894.55
619.125,1894.15
619.619,1896.3
620.112,1893.25
620.606,1894.2
621.099,1894.45
621.592,1895.65
622.086,1895.9
622.579,1897.2
623.072,1894.25
623.565,1891.2
624.058,1889.4
624.551,1890.65
625.043,1890.35
625.536,1889.8
626.029,1891.25
626.521,1905.0
627.014,1934.75
627.506,1931.2
627.998,1919.5
628.49,1946.45
628.983,1913.35
629.475,1913.9
629.966,1902.2
630.458,1908.4
630.95,1893.5
631.442,1891.95
631.933,1889.9
632.425,1887.4
632.916,1887.45
633.408,1886.3
633.899,1887.1
634.39,1890.4
634.881,1887.0
635.372,1890.0
635.863,1883.65
636.354,1887.8
636.845,1887.25
637.336,1883.55
637.826,1885.75
638.317,1886.1
638.807,1882.6
639.298,1883.0
639.788,1884.5
640.278,1882.85
640.768,1884.25
641.258,1880.55
641.748,1885.2
642.238,1882.15
642.728,1884.45
643.217,1881.5
643.707,1880.8
644.197,1881.85
644.686,1886.3
645.175,1878.2
645.664,1878.5
646.154,1880.45
646.643,1879.8
647.132,1878.2
647.621,1879.25
648.109,1879.4
648.598,1880.15
649.087,1877.35
649.575,1880.8
650.064,1877.3
650.552,1878.7
651.04,1876.8
651.528,1877.15
652.017,1878.85
652.505,1878.35
652.992,1877.2
653.48,1877.85
653.968,1875.5
654.456,1874.5
654.943,1875.7
655.431,1875.55
655.918,1876.5
656.405,1874.8
656.893,1872.4
657.38,1874.8
657.867,1874.45
658.354,1870.1
658.84,1869.75
659.327,1870.5
659.814,1872.9
660.3,1871.25
660.787,1870.05
661.03,1871.1

File: VLFR_02-HDPE_bio_Raman_15967531.csv
nm,Intensity
528.626,1870.7
529.132,1866.3
529.637,1868.8
530.143,1869.2
530.648,1868.4
531.153,1871.9
531.658,1901.6
532.164,4125.4
532.669,1870.7
533.174,1871.6
533.679,1957.9
534.184,2252.1
534.689,2297.4
535.194,2264.9
535.699,2117.4
536.203,2059.4
536.708,2055.9
537.213,2039.8
537.717,2050.4
538.222,2028.1
538.726,2023.6
539.231,2008.0
539.735,2007.6
540.239,1996.8
540.744,1994.7
541.248,2003.1
541.752,2000.8
542.256,2001.6
542.76,2003.7
543.264,2003.3
543.768,2003.6
544.272,1998.9
544.776,2005.2
545.28,1992.7
545.784,1999.2
546.287,1997.5
546.791,2002.5
547.294,1993.9
547.798,2002.1
548.301,2005.9
548.805,1996.3
549.308,1997.7
549.811,2004.3
550.315,2000.1
550.818,2008.1
551.321,2008.2
551.824,2008.9
552.327,2010.5
552.83,1997.1
553.333,2028.4
553.835,2022.3
554.338,2024.5
554.841,2028.9
555.343,2034.5
555.846,2041.4
556.349,2049.4
556.851,2050.8
557.353,2069.3
557.856,2085.1
558.358,2087.5
558.86,2069.2
559.362,2064.4
559.864,2077.1
560.366,2065.7
560.868,2074.4
561.37,2076.4
561.872,2072.9
562.374,2094.5
562.876,2109.0
563.377,2138.8
563.879,2702.6
564.38,2269.9
564.882,2215.0
565.383,2171.8
565.885,2388.0
566.386,2500.2
566.887,2150.5
567.388,2290.8
567.889,2124.8
568.391,2116.2
568.892,2112.6
569.392,2136.3
569.893,2128.6
570.394,2156.9
570.895,2212.8
571.395,3031.3
571.896,2436.8
572.397,2228.9
572.897,2175.7
573.397,2171.4
573.898,2254.0
574.398,2184.5
574.898,2201.5
575.398,2531.4
575.898,2611.8
576.398,3144.6
576.898,2841.1
577.398,2571.5
577.898,2355.7
578.398,2336.6
578.897,2372.0
579.397,2388.4
579.896,2441.2
580.396,2438.0
580.895,2484.4
581.395,2525.8
581.894,2535.3
582.393,2556.5
582.892,2563.0
583.391,2577.7
583.89,2558.2
584.389,2550.5
584.888,2538.4
585.387,2524.9
585.886,2494.8
586.384,2504.8
586.883,2466.0
587.381,2451.9
587.88,2404.6
588.378,2416.5
588.876,2372.1
589.375,2382.5
589.873,2365.9
590.371,2351.8
590.869,2363.4
591.367,2372.0
591.865,2321.0
592.363,2346.1
592.86,2311.2
593.358,2331.0
593.856,2299.9
594.353,2309.8
594.851,2295.7
595.348,2288.6
595.845,2303.6
596.342,2288.8
596.84,2308.3
597.337,2302.4
597.834,2288.4
598.331,2283.0
598.828,2303.1
599.324,2297.3
599.821,2322.7
600.318,2306.7
600.814,2307.6
601.311,2318.3
601.807,2356.9
602.304,2348.6
602.8,2323.0
603.296,2320.3
603.792,2330.1
604.288,2327.8
604.784,2337.3
605.28,2300.8
605.776,2318.9
606.272,2305.3
606.767,2300.5
607.263,2274.3
607.759,2282.5
608.254,2287.5
608.749,2286.1
609.245,2282.9
609.74,2276.5
610.235,2277.2
610.73,2283.8
611.225,2285.7
611.72,2256.9
612.215,2274.1
612.71,2248.7
613.204,2254.8
613.699,2253.9
614.194,2251.9
614.688,2250.0
615.182,2256.7
615.677,2260.8
616.171,2257.1
616.665,2297.7
617.159,2331.4
617.653,2341.0
618.147,2335.0
618.641,2315.7
619.135,2344.0
619.628,2384.6
620.122,2347.4
620.615,2369.1
621.109,2432.8
621.602,2548.7
622.095,2798.8
622.589,2698.3
623.082,2449.1
623.575,2367.3
624.068,2357.9
624.561,2356.1
625.053,2374.5
625.546,2417.0
626.039,2593.4
626.531,3513.5
627.024,8818.3
627.516,7939.4
628.008,6539.1
628.501,10305.0
628.993,5844.4
629.485,4957.5
629.977,4290.0
630.469,4024.0
630.96,3153.7
631.452,2551.2
631.944,2416.7
632.435,2360.0
632.927,2343.6
633.418,2343.2
633.91,2302.5
634.401,2272.5
634.892,2253.4
635.383,2263.9
635.874,2229.5
636.365,2226.4
636.856,2213.3
637.346,2197.8
637.837,2174.1
638.327,2179.2
638.818,2140.6
639.308,2141.0
639.799,2140.5
640.289,2136.2
640.779,2127.6
641.269,2120.6
641.759,2114.1
642.249,2112.5
642.738,2103.2
643.228,2091.7
643.718,2095.9
644.207,2100.0
644.697,2093.7
645.186,2093.0
645.675,2079.0
646.164,2074.8
646.653,2073.7
647.142,2062.0
647.631,2071.0
648.12,2065.0
648.609,2043.4
649.098,2055.0
649.586,2057.6
650.075,2055.7
650.563,2053.6
651.051,2044.2
651.539,2048.2
652.027,2043.0
652.515,2037.7
653.003,2044.0
653.491,2042.5
653.979,2039.3
654.467,2037.1
654.954,2029.8
655.442,2036.6
655.929,2030.3
656.416,2012.1
656.904,2021.1
657.391,2028.4
657.878,2023.4
658.365,2015.9
658.851,2017.7
659.338,2004.9
659.825,2012.4
660.311,2023.7
660.798,2005.5
661.041,2013.4

File: VLFR_02-HDPE_bio_Raman_82584088.csv
nm,Intensity
528.65,1836.5
529.155,1836.05
529.66,1835.45
530.165,1836.55
530.67,1835.6
531.175,1838.15
531.68,1865.45
532.185,3953.05
532.69,1836.9
533.194,1839.95
533.699,2014.45
534.204,2658.4
534.708,2707.05
535.213,2738.75
535.717,2689.25
536.222,2635.3
536.726,2641.75
537.231,2663.5
537.735,2687.5
538.239,2677.95
538.743,2676.55
539.247,2677.85
539.751,2665.95
540.255,2660.65
540.759,2675.3
541.263,2678.4
541.767,2719.35
542.271,2733.85
542.775,2769.0
543.279,2795.7
543.782,2840.05
544.286,2955.45
544.789,3055.0
545.293,3105.1
545.796,3371.7
546.3,3362.2
546.803,3074.0
547.306,3002.05
547.81,3003.25
548.313,3024.6
548.816,3051.15
549.319,3096.55
549.822,3230.8
550.325,3256.35
550.828,3522.8
551.331,3281.85
551.834,3243.0
552.337,3159.2
552.839,3173.8
553.342,3191.6
553.844,3225.05
554.347,3255.95
554.849,3299.65
555.352,3311.05
555.854,3315.6
556.357,3342.8
556.859,3379.9
557.361,3388.3
557.863,3388.6
558.365,3449.45
558.867,3476.9
559.369,3515.65
559.871,3537.05
560.373,3538.3
560.875,3600.3
561.377,3726.2
561.878,4803.95
562.38,7928.75
562.881,4286.25
563.383,3785.0
563.884,4195.75
564.386,4003.05
564.887,3935.6
565.388,4004.5
565.89,4245.4
566.391,4368.8
566.892,4136.5
567.393,4133.5
567.894,4012.55
568.395,4015.05
568.896,4042.4
569.396,4039.2
569.897,4023.9
570.398,4068.25
570.898,4171.55
571.399,4719.35
571.9,4318.05
572.4,4205.75
572.9,4169.05
573.401,4182.4
573.901,4248.6
574.401,4211.15
574.901,4221.75
575.401,4545.75
575.901,4565.85
576.401,4981.4
576.901,4789.5
577.401,4569.4
577.901,4445.25
578.4,4421.65
578.9,4474.5
579.399,4479.85
579.899,4488.95
580.398,4580.5
580.898,4566.5
581.397,4671.7
581.896,4598.3
582.395,4673.05
582.895,4650.05
583.394,4731.7
583.893,4725.85
584.391,4713.35
584.89,4747.85
585.389,4744.1
585.888,4745.25
586.386,4789.25
586.885,4807.6
587.384,4872.9
587.882,4913.35
588.38,5008.5
588.879,4982.35
589.377,5012.65
589.875,5034.55
590.373,5089.6
590.871,5070.55
591.369,5172.5
591.867,5186.9
592.365,5226.4
592.863,5263.85
593.361,5262.0
593.858,5316.75
594.356,5325.55
594.853,5439.0
595.351,5388.7
595.848,5398.55
596.345,5514.05
596.843,5523.6
597.34,5553.15
597.837,5551.8
598.334,5474.7
598.831,5587.95
599.328,5592.1
599.824,5610.5
600.321,5635.75
600.818,5537.5
601.314,5638.65
601.811,5620.25
602.307,5604.15
602.804,5652.05
603.3,5582.4
603.796,5544.7
604.293,5479.75
604.789,5471.1
605.285,5433.25
605.781,5479.0
606.277,5375.7
606.772,5384.35
607.268,5367.2
607.764,5244.55
608.259,5285.25
608.755,5306.3
609.25,5302.2
609.746,5248.05
610.241,5283.7
610.736,5264.75
611.231,5240.25
611.727,5162.15
612.222,5146.3
612.716,5114.75
613.211,5099.1
613.706,5119.0
614.201,5065.65
614.695,5080.15
615.19,5130.1
615.684,5068.55
616.179,5059.4
616.673,5048.25
617.168,5093.1
617.662,5025.75
618.156,5056.3
618.65,5016.1
619.144,5075.05
619.638,5100.9
620.131,5021.0
620.625,5014.95
621.119,5108.5
621.612,5113.4
622.106,5275.2
622.599,5220.35
623.093,5010.55
623.586,4942.15
624.079,4969.2
624.572,4835.85
625.065,4917.3
625.558,4929.15
626.051,5021.0
626.544,5600.75
627.037,9131.2
627.529,8668.55
628.022,7561.95
628.514,10252.3
629.007,7405.35
629.499,6864.3
629.991,6176.9
630.483,6014.75
630.976,5375.1
631.468,4911.3
631.959,4687.85
632.451,4805.05
632.943,4738.5
633.435,4729.1
633.926,4678.65
634.418,4609.9
634.909,4581.95
635.401,4530.6
635.892,4552.6
636.383,4453.8
636.874,4501.25
637.365,4400.9
637.856,4469.55
638.347,4444.75
638.838,4397.25
639.329,4408.7
639.819,4383.45
640.31,4332.3
640.8,4332.1
641.291,4337.7
641.781,4292.0
642.271,4287.3
642.761,4283.45
643.251,4226.6
643.741,4302.7
644.231,4233.35
644.721,4241.8
645.211,4266.05
645.7,4239.05
646.19,4194.8
646.679,4153.9
647.169,4133.75
647.658,4139.65
648.147,4190.75
648.636,4039.6
649.125,4089.3
649.614,4055.9
650.103,4037.1
650.592,4097.1
651.08,4012.15
651.569,4015.35
652.058,4019.45
652.546,3943.15
653.034,3954.55
653.523,3874.8
654.011,3814.6
654.499,3875.7
654.987,3757.7
655.475,3822.0
655.963,3798.9
656.45,3687.65
656.938,3611.0
657.425,3651.75
657.913,3622.25
658.4,3523.9
658.888,3502.75
659.375,3419.05
659.862,3494.4
660.349,3408.8
660.836,3379.75
661.079,3354.5

File: VLFR_02-HDPE_bio_Raman_a0acc8b3.csv
nm,Intensity
526.494,835.2
527.041,833.7
527.588,836.3
528.135,834.3
528.682,834.9
529.229,835.0
529.775,835.0
530.321,836.4
530.868,835.5
531.414,834.7
531.96,845.5
532.506,838.1
533.051,835.0
533.597,835.5
534.142,911.6
534.687,902.8
535.232,891.4
535.777,880.9
536.322,879.5
536.867,875.6
537.411,873.2
537.956,875.2
538.5,872.1
539.044,871.7
539.588,869.3
540.132,870.0
540.676,865.1
541.22,867.3
541.763,866.7
542.306,867.4
542.85,865.6
543.393,867.9
543.936,865.9
544.479,866.6
545.021,868.4
545.564,868.7
546.106,869.7
546.649,867.8
547.191,867.2
547.733,867.8
548.275,869.0
548.817,869.9
549.359,866.6
549.9,869.3
550.442,868.6
550.983,872.2
551.524,868.0
552.066,871.4
552.607,870.1
553.148,871.9
553.688,872.6
554.229,874.7
554.77,875.7
555.31,877.0
555.85,874.9
556.39,878.8
556.931,877.4
557.471,882.3
558.01,881.8
558.55,883.3
559.09,881.3
559.629,881.0
560.169,882.5
560.708,883.7
561.247,882.7
561.786,887.8
562.325,887.9
562.864,889.6
563.403,893.3
563.941,957.1
564.48,910.6
565.018,904.4
565.557,905.9
566.095,984.1
566.633,908.5
567.171,900.1
567.709,903.4
568.247,899.0
568.784,903.3
569.322,908.6
569.859,909.5
570.397,918.0
570.934,921.0
571.471,1041.4
572.008,942.1
572.545,927.5
573.082,926.2
573.619,934.4
574.155,947.5
574.692,942.8
575.228,954.3
575.765,996.9
576.301,1082.7
576.837,1035.2
577.373,1025.8
577.909,998.2
578.445,1001.0
578.981,1013.1
579.516,1024.3
580.052,1036.2
580.587,1043.6
581.123,1058.7
581.658,1068.8
582.193,1078.6
582.728,1097.5
583.263,1110.6
583.798,1130.2
584.333,1138.6
584.868,1154.5
585.402,1173.8
585.937,1197.8
586.471,1224.4
587.005,1237.0
587.54,1258.9
588.074,1284.6
588.608,1313.5
589.142,1317.2
589.676,1356.0
590.21,1375.9
590.743,1404.7
591.277,1417.8
591.81,1438.9
592.344,1455.6
592.877,1465.9
593.411,1485.6
593.944,1503.0
594.477,1512.7
595.01,1523.8
595.543,1532.8
596.076,1550.0
596.608,1558.2
597.141,1573.4
597.674,1570.9
598.206,1594.2
598.739,1610.8
599.271,1601.8
599.803,1616.2
600.335,1608.3
600.868,1601.8
601.4,1605.5
601.931,1603.7
602.463,1603.0
602.995,1606.5
603.527,1596.8
604.058,1585.6
604.59,1574.2
605.121,1557.1
605.653,1535.9
606.184,1527.8
606.715,1501.6
607.246,1509.0
607.778,1493.9
608.309,1491.3
608.839,1475.7
609.37,1481.9
609.901,1461.1
610.432,1462.3
610.962,1444.1
611.493,1431.8
612.023,1421.7
612.554,1418.2
613.084,1411.7
613.614,1400.9
614.145,1401.2
614.675,1393.9
615.205,1389.2
615.735,1370.9
616.265,1359.4
616.795,1351.5
617.324,1351.8
617.854,1339.0
618.384,1323.3
618.913,1313.9
619.443,1307.8
619.972,1299.2
620.502,1294.7
621.031,1286.7
621.56,1288.4
622.089,1301.7
622.618,1297.1
623.147,1264.0
623.676,1257.5
624.205,1242.8
624.734,1239.1
625.263,1241.5
625.792,1248.5
626.32,1255.0
626.849,1446.0
627.377,1748.3
627.906,1530.4
628.434,1663.7
628.963,1531.2
629.491,1443.0
630.019,1366.5
630.547,1352.7
631.076,1267.4
631.604,1218.1
632.132,1200.3
632.66,1200.8
633.188,1189.4
633.715,1189.6
634.243,1180.2
634.771,1183.3
635.299,1181.5
635.826,1179.4
636.354,1182.1
636.881,1183.1
637.409,1181.7
637.936,1179.2
638.464,1175.2
638.991,1175.0
639.518,1171.4
640.045,1178.9
640.573,1175.3
641.1,1178.9
641.627,1177.5
642.154,1178.2
642.681,1174.1
643.208,1171.6
643.735,1172.9
644.261,1177.9
644.788,1170.7
645.315,1171.2
645.842,1170.7
646.368,1169.3
646.895,1159.9
647.421,1166.5
647.948,1171.9
648.474,1159.7
649.001,1162.5
649.527,1154.7
650.054,1155.4
650.58,1156.3
651.106,1149.7
651.633,1154.5
652.159,1156.9
652.685,1150.2
653.211,1150.3
653.737,1136.6
654.263,1143.9
654.789,1133.0
655.315,1133.8
655.841,1137.8
656.367,1131.1
656.893,1128.8
657.419,1120.9
657.945,1130.7
658.47,1121.5
658.996,1115.4
659.522,1110.5
660.047,1111.9
660.573,1102.4
661.099,1096.8
661.624,1095.5
662.15,1084.3
662.675,1085.3
663.07,1080.0

File: VLFR_02-HDPE_bio_Raman_a1a4ddbc.csv
nm,Intensity
526.495,829.85
527.042,829.6
527.589,829.2
528.136,829.15
528.682,829.2
529.229,829.35
529.775,829.25
530.321,828.65
530.867,828.9
531.413,830.2
531.959,831.4
532.505,829.45
533.051,830.05
533.596,831.35
534.141,915.7
534.687,899.0
535.232,884.3
535.777,872.45
536.321,867.9
536.866,865.3
537.41,861.5
537.955,860.2
538.499,860.5
539.043,855.0
539.587,854.7
540.131,852.7
540.675,850.5
541.219,849.85
541.762,848.55
542.305,849.05
542.849,849.3
543.392,846.9
543.935,848.35
544.478,847.95
545.02,846.9
545.563,845.05
546.106,846.05
546.648,846.65
547.19,846.7
547.732,845.1
548.274,845.75
548.816,844.3
549.358,845.9
549.9,843.85
550.441,846.0
550.983,844.6
551.524,845.95
552.065,844.85
552.606,844.65
553.147,848.45
553.688,849.85
554.229,850.1
554.769,851.3
555.31,851.5
555.85,854.0
556.391,856.6
556.931,859.7
557.471,860.35
558.011,864.85
558.551,866.35
559.09,863.2
559.63,863.45
560.169,861.1
560.709,865.25
561.248,865.4
561.787,868.45
562.326,870.8
562.865,880.0
563.404,881.35
563.943,947.35
564.481,909.3
565.02,904.3
565.558,898.05
566.096,993.3
566.634,910.85
567.172,902.35
567.71,904.45
568.248,904.7
568.786,908.9
569.324,910.45
569.861,918.25
570.399,928.4
570.936,940.1
571.473,1050.75
572.01,983.3
572.547,967.2
573.084,964.5
573.621,979.95
574.158,999.25
574.694,998.85
575.231,1016.0
575.767,1092.4
576.303,1182.75
576.84,1159.95
577.376,1150.75
577.912,1144.9
578.448,1176.0
578.984,1208.05
579.519,1234.3
580.055,1273.6
580.59,1318.3
581.126,1353.4
581.661,1391.55
582.196,1432.1
582.731,1462.85
583.267,1490.95
583.801,1531.0
584.336,1553.2
584.871,1573.35
585.406,1591.15
585.94,1605.5
586.475,1638.05
587.009,1658.6
587.543,1673.2
588.078,1689.0
588.612,1697.8
589.146,1716.15
589.68,1727.3
590.214,1746.05
590.747,1768.35
591.281,1787.1
591.815,1792.9
592.348,1799.3
592.881,1790.65
593.415,1794.2
593.948,1795.85
594.481,1793.7
595.014,1799.65
595.547,1824.0
596.08,1818.4
596.613,1829.7
597.146,1832.95
597.678,1851.9
598.211,1872.7
598.743,1884.1
599.276,1893.0
599.808,1902.9
600.34,1901.65
600.872,1892.35
601.404,1899.3
601.936,1882.9
602.468,1861.85
603.0,1851.9
603.532,1813.8
604.064,1792.5
604.595,1745.85
605.127,1708.4
605.658,1673.15
606.189,1632.3
606.721,1607.15
607.252,1568.05
607.783,1547.0
608.314,1528.2
608.845,1503.5
609.376,1480.95
609.907,1461.1
610.438,1449.6
610.968,1433.55
611.499,1415.1
612.029,1399.8
612.56,1390.4
613.09,1380.95
613.621,1379.15
614.151,1363.35
614.681,1347.5
615.211,1338.75
615.741,1318.05
616.271,1307.9
616.801,1300.75
617.331,1300.1
617.861,1291.05
618.39,1289.2
618.92,1281.45
619.45,1271.35
619.979,1268.7
620.509,1264.2
621.038,1262.45
621.567,1268.2
622.096,1283.0
622.626,1284.95
623.155,1271.45
623.684,1263.95
624.213,1261.45
624.742,1266.85
625.271,1268.6
625.799,1280.05
626.328,1301.05
626.857,1490.25
627.386,1902.05
627.914,1665.35
628.443,1844.5
628.971,1776.65
629.5,1677.65
630.028,1586.95
630.556,1569.25
631.084,1449.85
631.613,1379.4
632.141,1358.8
632.669,1357.1
633.197,1353.8
633.725,1351.8
634.253,1357.15
634.781,1362.55
635.308,1365.05
635.836,1375.0
636.364,1375.75
636.891,1376.85
637.419,1374.95
637.947,1379.1
638.474,1378.75
639.002,1379.1
639.529,1381.95
640.056,1386.35
640.584,1390.05
641.111,1391.45
641.638,1385.9
642.165,1392.95
642.692,1396.65
643.219,1390.05
643.746,1387.5
644.273,1382.3
644.8,1378.65
645.327,1375.85
645.854,1386.7
646.381,1374.85
646.908,1372.5
647.434,1373.45
647.961,1372.45
648.488,1362.05
649.014,1359.2
649.541,1357.6
650.067,1351.9
650.594,1352.15
651.12,1345.6
651.646,1345.2
652.173,1347.65
652.699,1339.35
653.225,1342.4
653.752,1345.95
654.278,1342.35
654.804,1333.5
655.33,1330.05
655.856,1321.25
656.382,1316.85
656.908,1305.05
657.434,1294.0
657.96,1286.1
658.486,1276.0
659.012,1266.0
659.538,1253.35
660.064,1237.5
660.589,1225.0
661.115,1213.05
661.641,1199.25
662.166,1183.3
662.692,1171.9
663.086,1162.45