Folder: MPX_specDB/spectra (part 33)

File: VLFR_02-HDPE_bio_Raman_2aa5806d.csv
nm,Intensity
526.495,829.5
527.042,829.7
527.589,829.1
528.136,828.0
528.682,827.8
529.229,829.2
529.775,829.0
530.321,830.2
530.867,829.2
531.413,828.1
531.959,833.0
532.505,829.4
533.051,828.2
533.596,828.0
534.141,834.4
534.687,834.1
535.232,834.9
535.777,832.3
536.321,834.7
536.866,832.5
537.41,832.0
537.955,835.3
538.499,834.6
539.043,833.5
539.587,835.9
540.131,833.1
540.675,835.1
541.219,832.0
541.762,833.4
542.305,832.5
542.849,834.3
543.392,834.0
543.935,834.1
544.478,834.0
545.02,833.3
545.563,833.9
546.106,834.9
546.648,833.5
547.19,831.7
547.732,833.6
548.274,834.3
548.816,832.9
549.358,833.1
549.9,832.5
550.441,833.5
550.983,832.7
551.524,833.7
552.065,834.0
552.606,832.5
553.147,832.8
553.688,833.6
554.229,834.6
554.769,834.6
555.31,834.1
555.85,833.0
556.391,834.4
556.931,836.0
557.471,834.0
558.011,833.3
558.551,834.2
559.09,836.3
559.63,833.7
560.169,834.3
560.709,836.5
561.248,835.1
561.787,835.3
562.326,835.5
562.865,835.4
563.404,835.0
563.943,834.9
564.481,836.3
565.02,835.5
565.558,834.1
566.096,835.7
566.634,834.6
567.172,834.7
567.71,834.3
568.248,835.0
568.786,836.2
569.324,834.5
569.861,835.0
570.399,835.4
570.936,834.6
571.473,835.1
572.01,835.1
572.547,836.4
573.084,835.9
573.621,835.1
574.158,834.7
574.694,836.6
575.231,835.3
575.767,835.0
576.303,836.6
576.84,836.3
577.376,837.4
577.912,835.9
578.448,837.7
578.984,837.3
579.519,837.7
580.055,838.1
580.59,839.6
581.126,837.2
581.661,838.3
582.196,837.3
582.731,836.7
583.267,838.3
583.801,836.2
584.336,838.8
584.871,837.8
585.406,839.6
585.94,836.1
586.475,836.6
587.009,837.8
587.543,838.6
588.078,838.0
588.612,838.8
589.146,838.9
589.68,836.8
590.214,838.3
590.747,838.2
591.281,836.5
591.815,838.8
592.348,837.9
592.881,841.3
593.415,840.4
593.948,838.4
594.481,839.3
595.014,839.4
595.547,840.4
596.08,841.3
596.613,842.0
597.146,842.1
597.678,843.3
598.211,842.7
598.743,843.7
599.276,843.8
599.808,844.3
600.34,842.8
600.872,844.6
601.404,845.5
601.936,843.4
602.468,843.3
603.0,844.1
603.532,844.5
604.064,844.5
604.595,843.2
605.127,842.4
605.658,842.6
606.189,842.7
606.721,841.0
607.252,842.0
607.783,841.7
608.314,841.7
608.845,842.5
609.376,841.5
609.907,838.8
610.438,841.2
610.968,840.3
611.499,840.4
612.029,839.9
612.56,840.5
613.09,840.6
613.621,840.1
614.151,840.1
614.681,841.8
615.211,839.7
615.741,839.2
616.271,840.5
616.801,840.3
617.331,838.4
617.861,838.9
618.39,837.8
618.92,839.0
619.45,839.2
619.979,840.5
620.509,839.4
621.038,840.1
621.567,839.0
622.096,840.7
622.626,838.0
623.155,839.4
623.684,839.9
624.213,840.2
624.742,838.8
625.271,838.5
625.799,839.3
626.328,839.0
626.857,840.0
627.386,840.2
627.914,838.9
628.443,840.3
628.971,840.9
629.5,840.8
630.028,839.5
630.556,838.1
631.084,838.3
631.613,838.8
632.141,839.1
632.669,838.4
633.197,838.7
633.725,838.9
634.253,839.1
634.781,839.3
635.308,839.9
635.836,837.5
636.364,838.8
636.891,838.2
637.419,837.6
637.947,839.3
638.474,838.7
639.002,839.1
639.529,839.3
640.056,839.0
640.584,839.7
641.111,838.9
641.638,838.2
642.165,838.5
642.692,838.8
643.219,839.0
643.746,837.9
644.273,839.3
644.8,839.2
645.327,838.9
645.854,840.1
646.381,839.7
646.908,837.9
647.434,840.7
647.961,838.9
648.488,841.5
649.014,839.1
649.541,837.6
650.067,841.1
650.594,839.5
651.12,839.9
651.646,841.1
652.173,840.0
652.699,841.2
653.225,840.3
653.752,839.5
654.278,838.2
654.804,838.6
655.33,837.6
655.856,837.4
656.382,841.0
656.908,839.0
657.434,838.9
657.96,838.4
658.486,839.4
659.012,840.0
659.538,838.0
660.064,838.9
660.589,838.4
661.115,837.5
661.641,837.6
662.166,838.7
662.692,837.5
663.086,836.2

File: VLFR_02-HDPE_bio_Raman_2d355c0f.csv
nm,Intensity
526.508,830.6
527.055,829.4
527.602,829.7
528.149,830.2
528.695,830.4
529.241,828.6
529.787,830.9
530.334,829.2
530.879,829.4
531.425,829.4
531.971,834.4
532.516,831.6
533.062,828.7
533.607,830.3
534.152,868.3
534.697,862.5
535.242,858.8
535.786,850.9
536.331,848.4
536.876,847.0
537.42,848.0
537.964,845.1
538.508,847.5
539.052,844.4
539.596,844.1
540.14,842.8
540.683,839.2
541.227,843.0
541.77,842.6
542.313,842.6
542.856,841.1
543.399,842.6
543.942,842.7
544.485,840.6
545.027,840.2
545.57,842.5
546.112,843.7
546.654,840.2
547.196,842.6
547.738,841.1
548.28,840.8
548.822,843.2
549.363,843.1
549.905,843.0
550.446,841.7
550.988,843.0
551.529,844.1
552.07,842.8
552.611,842.8
553.152,844.8
553.692,844.8
554.233,845.1
554.773,846.1
555.314,843.0
555.854,843.4
556.394,846.5
556.934,848.1
557.474,847.7
558.014,849.3
558.553,849.1
559.093,847.9
559.632,848.4
560.172,848.9
560.711,849.1
561.25,847.7
561.789,848.5
562.328,851.6
562.867,851.5
563.406,854.0
563.944,897.5
564.483,862.5
565.021,857.7
565.559,857.8
566.098,936.2
566.636,858.8
567.174,854.8
567.711,853.9
568.249,851.7
568.787,850.3
569.324,852.8
569.862,852.5
570.399,854.9
570.936,858.3
571.474,942.7
572.011,869.7
572.548,857.3
573.084,854.9
573.621,853.1
574.158,859.1
574.694,855.5
575.231,859.1
575.767,891.6
576.303,924.0
576.84,893.1
577.376,883.1
577.912,861.1
578.447,861.4
578.983,858.7
579.519,861.4
580.054,863.3
580.59,861.8
581.125,862.9
581.661,862.9
582.196,869.1
582.731,871.5
583.266,869.9
583.801,873.2
584.336,876.3
584.87,878.3
585.405,880.8
585.94,882.7
586.474,888.3
587.008,888.6
587.543,889.9
588.077,897.4
588.611,900.2
589.145,895.7
589.679,902.6
590.213,903.3
590.747,913.6
591.28,908.1
591.814,907.0
592.347,914.5
592.881,910.8
593.414,912.9
593.947,909.5
594.48,910.5
595.014,911.6
595.547,909.7
596.079,909.2
596.612,911.8
597.145,912.8
597.678,914.0
598.21,914.9
598.743,916.8
599.275,915.3
599.807,913.8
600.34,915.1
600.872,909.5
601.404,915.5
601.936,915.9
602.468,917.4
603.0,909.1
603.532,910.7
604.063,909.2
604.595,908.5
605.126,904.7
605.658,901.8
606.189,901.2
606.721,897.9
607.252,896.8
607.783,895.3
608.314,893.6
608.845,895.6
609.376,889.5
609.907,891.8
610.438,892.6
610.968,889.0
611.499,890.3
612.03,889.1
612.56,887.9
613.091,887.5
613.621,883.8
614.151,886.4
614.681,882.0
615.212,885.1
615.742,882.9
616.272,882.4
616.802,885.1
617.332,882.3
617.861,882.7
618.391,885.3
618.921,882.4
619.45,884.1
619.98,881.4
620.509,884.9
621.039,882.9
621.568,889.6
622.097,898.4
622.627,898.3
623.156,887.5
623.685,881.8
624.214,881.2
624.743,883.3
625.272,882.9
625.801,886.5
626.33,897.4
626.858,1016.8
627.387,1240.7
627.916,1082.3
628.444,1189.8
628.973,1134.1
629.501,1073.7
630.029,1007.5
630.558,1002.0
631.086,935.1
631.614,896.5
632.142,885.8
632.67,883.9
633.198,877.2
633.726,882.2
634.254,877.3
634.782,876.5
635.31,878.2
635.838,878.9
636.365,876.5
636.893,880.0
637.421,878.5
637.948,879.7
638.476,875.6
639.003,878.3
639.531,880.6
640.058,876.9
640.585,877.0
641.113,878.8
641.64,878.6
642.167,882.1
642.694,880.1
643.221,878.8
643.748,879.4
644.275,879.6
644.802,879.2
645.329,879.3
645.856,877.2
646.382,880.0
646.909,880.1
647.436,877.4
647.962,880.0
648.489,879.9
649.016,877.7
649.542,875.6
650.069,876.2
650.595,874.0
651.121,873.3
651.648,875.5
652.174,871.9
652.7,875.8
653.227,873.8
653.753,876.9
654.279,874.4
654.805,874.0
655.331,873.0
655.857,872.2
656.383,874.0
656.909,872.8
657.435,872.5
657.961,872.4
658.487,871.0
659.013,870.1
659.538,871.0
660.064,872.8
660.59,868.6
661.116,866.8
661.641,865.8
662.167,866.0
662.692,863.4
663.087,865.9

File: VLFR_02-HDPE_bio_Raman_2e1fd8f6.csv
nm,Intensity
528.626,1862.9
529.132,1863.9
529.637,1862.5
530.143,1862.2
530.648,1862.3
531.153,1866.1
531.658,1889.7
532.164,3243.8
532.669,1863.0
533.174,1866.0
533.679,2008.3
534.184,2516.5
534.689,2486.4
535.194,2488.7
535.699,2365.3
536.203,2296.4
536.708,2295.1
537.213,2277.0
537.717,2313.1
538.222,2273.4
538.726,2262.6
539.231,2221.4
539.735,2221.3
540.239,2217.9
540.744,2215.6
541.248,2215.4
541.752,2233.9
542.256,2214.7
542.76,2222.1
543.264,2218.4
543.768,2257.2
544.272,2248.9
544.776,2230.5
545.28,2247.7
545.784,2242.3
546.287,2221.2
546.791,2246.0
547.294,2248.7
547.798,2229.8
548.301,2246.7
548.805,2241.4
549.308,2257.4
549.811,2253.0
550.315,2244.3
550.818,2246.9
551.321,2251.4
551.824,2274.5
552.327,2263.0
552.83,2249.3
553.333,2283.8
553.835,2305.8
554.338,2295.0
554.841,2316.6
555.343,2326.0
555.846,2311.1
556.349,2328.9
556.851,2330.1
557.353,2342.2
557.856,2382.1
558.358,2371.9
558.86,2337.0
559.362,2361.5
559.864,2362.1
560.366,2334.5
560.868,2375.0
561.37,2363.5
561.872,2369.2
562.374,2380.6
562.876,2407.1
563.377,2448.3
563.879,3125.6
564.38,2644.5
564.882,2580.8
565.383,2483.4
565.885,2891.7
566.386,3005.8
566.887,2464.8
567.388,2577.9
567.889,2458.9
568.391,2434.1
568.892,2431.0
569.392,2463.5
569.893,2467.4
570.394,2508.1
570.895,2557.0
571.395,3575.0
571.896,2849.9
572.397,2586.3
572.897,2519.1
573.397,2530.7
573.898,2584.7
574.398,2499.1
574.898,2526.3
575.398,3004.5
575.898,3042.0
576.398,3652.1
576.898,3289.9
577.398,2940.3
577.898,2692.8
578.398,2647.5
578.897,2665.1
579.397,2696.4
579.896,2686.9
580.396,2733.3
580.895,2772.4
581.395,2772.0
581.894,2778.6
582.393,2791.5
582.892,2833.6
583.391,2870.5
583.89,2885.0
584.389,2895.6
584.888,2931.3
585.387,2959.5
585.886,2952.1
586.384,2993.2
586.883,3070.8
587.381,3071.9
587.88,3139.0
588.378,3182.9
588.876,3166.0
589.375,3237.2
589.873,3284.8
590.371,3345.1
590.869,3382.2
591.367,3442.8
591.865,3479.3
592.363,3492.0
592.86,3518.6
593.358,3599.5
593.856,3556.5
594.353,3558.6
594.851,3544.5
595.348,3607.1
595.845,3638.3
596.342,3672.0
596.84,3624.6
597.337,3682.1
597.834,3688.6
598.331,3704.1
598.828,3682.9
599.324,3763.5
599.821,3753.3
600.318,3754.2
600.814,3759.2
601.311,3801.7
601.807,3805.1
602.304,3736.6
602.8,3751.3
603.296,3694.3
603.792,3672.4
604.288,3603.0
604.784,3587.6
605.28,3504.6
605.776,3470.6
606.272,3427.9
606.767,3403.5
607.263,3377.3
607.759,3284.2
608.254,3294.7
608.749,3283.9
609.245,3219.5
609.74,3213.1
610.235,3174.6
610.73,3172.2
611.225,3178.2
611.72,3112.0
612.215,3076.2
612.71,3050.8
613.204,3057.7
613.699,2994.3
614.194,2984.5
614.688,2983.7
615.182,2981.9
615.677,2937.5
616.171,2944.7
616.665,2933.5
617.159,3005.0
617.653,2958.8
618.147,2966.7
618.641,2971.3
619.135,2955.4
619.628,2975.8
620.122,2980.6
620.615,2967.5
621.109,2995.7
621.602,3093.1
622.095,3292.2
622.589,3196.4
623.082,2944.8
623.575,2900.4
624.068,2849.9
624.561,2886.2
625.053,2864.3
625.546,2896.7
626.039,3052.6
626.531,3901.1
627.024,8001.3
627.516,7635.5
628.008,6324.3
628.501,9807.3
628.993,6309.7
629.485,5467.7
629.977,4752.8
630.469,4478.9
630.96,3615.8
631.452,3017.8
631.944,2885.7
632.435,2853.9
632.927,2822.7
633.418,2774.6
633.91,2777.0
634.401,2747.6
634.892,2767.3
635.383,2722.0
635.874,2680.7
636.365,2727.4
636.856,2741.4
637.346,2719.9
637.837,2694.2
638.327,2698.9
638.818,2682.5
639.308,2633.4
639.799,2677.6
640.289,2717.0
640.779,2660.6
641.269,2708.2
641.759,2657.8
642.249,2731.8
642.738,2740.6
643.228,2696.7
643.718,2659.0
644.207,2740.0
644.697,2733.8
645.186,2691.5
645.675,2687.6
646.164,2682.9
646.653,2671.7
647.142,2656.9
647.631,2628.6
648.12,2670.0
648.609,2625.5
649.098,2608.9
649.586,2592.2
650.075,2586.0
650.563,2582.9
651.051,2642.6
651.539,2595.3
652.027,2572.1
652.515,2538.1
653.003,2531.0
653.491,2532.5
653.979,2526.9
654.467,2494.2
654.954,2517.9
655.442,2493.1
655.929,2467.3
656.416,2420.2
656.904,2452.8
657.391,2466.1
657.878,2423.8
658.365,2412.5
658.851,2385.4
659.338,2377.2
659.825,2375.8
660.311,2389.5
660.798,2373.9
661.041,2346.3

File: VLFR_02-HDPE_bio_Raman_2f16ce2b.csv
nm,Intensity
526.495,828.8
527.042,829.0
527.589,829.5
528.136,829.3
528.682,829.1
529.229,828.3
529.775,829.1
530.321,828.9
530.867,829.8
531.413,829.0
531.959,833.3
532.505,831.1
533.051,829.3
533.596,827.7
534.141,910.0
534.687,904.5
535.232,895.4
535.777,886.2
536.321,880.8
536.866,878.4
537.41,875.3
537.955,873.0
538.499,870.6
539.043,874.3
539.587,867.3
540.131,862.4
540.675,863.8
541.219,862.5
541.762,862.6
542.305,864.6
542.849,863.3
543.392,863.9
543.935,862.7
544.478,864.2
545.02,865.5
545.563,863.8
546.106,865.2
546.648,865.4
547.19,865.3
547.732,863.1
548.274,862.9
548.816,863.1
549.358,866.2
549.9,867.3
550.441,866.5
550.983,867.0
551.524,868.7
552.065,866.8
552.606,867.7
553.147,866.6
553.688,868.9
554.229,868.0
554.769,866.8
555.31,863.4
555.85,866.9
556.391,866.2
556.931,869.0
557.471,866.5
558.011,869.2
558.551,867.8
559.09,868.3
559.63,870.1
560.169,870.3
560.709,867.6
561.248,869.3
561.787,874.7
562.326,873.1
562.865,875.1
563.404,872.0
563.943,896.9
564.481,881.5
565.02,874.7
565.558,874.6
566.096,904.0
566.634,877.6
567.172,870.6
567.71,874.3
568.248,873.5
568.786,873.9
569.324,876.5
569.861,875.9
570.399,879.4
570.936,879.9
571.473,921.7
572.01,885.3
572.547,880.1
573.084,878.2
573.621,881.4
574.158,883.6
574.694,881.6
575.231,882.1
575.767,892.5
576.303,937.9
576.84,913.2
577.376,900.5
577.912,885.8
578.448,887.0
578.984,887.2
579.519,884.7
580.055,887.1
580.59,886.2
581.126,885.8
581.661,892.9
582.196,893.0
582.731,896.2
583.267,898.7
583.801,899.6
584.336,901.6
584.871,902.1
585.406,904.5
585.94,907.4
586.475,907.8
587.009,909.7
587.543,914.5
588.078,912.8
588.612,918.8
589.146,927.1
589.68,926.2
590.214,932.3
590.747,935.2
591.281,940.9
591.815,939.6
592.348,942.9
592.881,944.7
593.415,947.7
593.948,947.1
594.481,950.1
595.014,949.7
595.547,951.7
596.08,952.4
596.613,951.0
597.146,953.3
597.678,956.2
598.211,958.8
598.743,963.9
599.276,962.0
599.808,966.8
600.34,967.0
600.872,959.5
601.404,964.6
601.936,966.8
602.468,961.4
603.0,961.7
603.532,958.7
604.064,955.4
604.595,953.8
605.127,951.1
605.658,947.0
606.189,944.7
606.721,939.4
607.252,943.3
607.783,939.1
608.314,938.6
608.845,934.8
609.376,935.5
609.907,936.4
610.438,934.4
610.968,927.8
611.499,925.8
612.029,928.8
612.56,928.5
613.09,930.5
613.621,928.0
614.151,927.1
614.681,925.5
615.211,925.2
615.741,921.6
616.271,919.7
616.801,922.8
617.331,926.3
617.861,921.4
618.39,922.2
618.92,919.4
619.45,917.4
619.979,921.8
620.509,922.0
621.038,919.5
621.567,928.0
622.096,936.3
622.626,935.5
623.155,918.5
623.684,915.4
624.213,915.9
624.742,911.9
625.271,914.8
625.799,916.8
626.328,928.4
626.857,1046.6
627.386,1223.8
627.914,1088.0
628.443,1197.2
628.971,1096.5
629.5,1050.2
630.028,1000.0
630.556,995.4
631.084,943.3
631.613,921.7
632.141,911.2
632.669,910.4
633.197,910.7
633.725,906.8
634.253,909.4
634.781,907.3
635.308,908.2
635.836,907.6
636.364,910.4
636.891,910.5
637.419,909.0
637.947,912.2
638.474,909.7
639.002,912.9
639.529,915.0
640.056,912.8
640.584,915.0
641.111,916.1
641.638,919.1
642.165,921.7
642.692,921.7
643.219,923.1
643.746,924.8
644.273,922.6
644.8,921.9
645.327,927.2
645.854,930.2
646.381,931.3
646.908,933.2
647.434,930.1
647.961,931.9
648.488,934.1
649.014,934.6
649.541,934.3
650.067,931.9
650.594,935.3
651.12,936.5
651.646,931.8
652.173,931.9
652.699,934.2
653.225,930.3
653.752,928.6
654.278,924.5
654.804,926.6
655.33,924.1
655.856,917.6
656.382,915.6
656.908,910.1
657.434,912.8
657.96,909.3
658.486,911.0
659.012,901.9
659.538,901.7
660.064,900.4
660.589,895.9
661.115,896.2
661.641,898.8
662.166,893.8
662.692,891.6
663.086,888.2

File: VLFR_02-HDPE_bio_Raman_3ad4a4f8.csv
nm,Intensity
526.508,830.4
527.055,829.5
527.602,830.7
528.149,830.4
528.695,829.7
529.241,829.5
529.787,828.9
530.334,829.9
530.879,830.8
531.425,830.3
531.971,835.1
532.516,831.3
533.062,830.1
533.607,831.2
534.152,922.1
534.697,913.7
535.242,898.7
535.786,888.7
536.331,882.7
536.876,884.2
537.42,881.0
537.964,879.0
538.508,876.9
539.052,873.8
539.596,875.0
540.14,871.7
540.683,872.9
541.227,869.9
541.77,874.6
542.313,872.4
542.856,872.2
543.399,873.7
543.942,875.6
544.485,875.0
545.027,875.8
545.57,876.2
546.112,877.1
546.654,877.6
547.196,879.4
547.738,879.9
548.28,877.6
548.822,876.2
549.363,879.0
549.905,881.1
550.446,878.0
550.988,879.1
551.529,877.2
552.07,879.1
552.611,877.5
553.152,882.0
553.692,876.4
554.233,880.2
554.773,881.7
555.314,882.6
555.854,881.3
556.394,882.2
556.934,884.2
557.474,884.8
558.014,891.0
558.553,894.0
559.093,893.2
559.632,892.0
560.172,891.4
560.711,890.4
561.25,892.8
561.789,893.8
562.328,895.8
562.867,902.6
563.406,905.1
563.944,1007.0
564.483,933.7
565.021,928.4
565.559,932.2
566.098,1122.1
566.636,945.2
567.174,925.9
567.711,923.9
568.249,928.6
568.787,934.4
569.324,941.4
569.862,944.9
570.399,956.3
570.936,963.3
571.474,1123.9
572.011,1000.8
572.548,984.5
573.084,995.6
573.621,1007.9
574.158,1030.8
574.694,1044.5
575.231,1064.7
575.767,1194.3
576.303,1196.3
576.84,1201.9
577.376,1203.8
577.912,1218.1
578.447,1262.3
578.983,1315.2
579.519,1365.2
580.054,1405.2
580.59,1458.5
581.125,1502.0
581.661,1568.2
582.196,1593.6
582.731,1636.2
583.266,1664.2
583.801,1692.5
584.336,1713.4
584.87,1717.2
585.405,1736.5
585.94,1744.7
586.474,1770.5
587.008,1793.9
587.543,1792.7
588.077,1796.3
588.611,1817.0
589.145,1829.2
589.679,1865.5
590.213,1884.9
590.747,1900.7
591.28,1904.6
591.814,1940.6
592.347,1949.7
592.881,1955.1
593.414,1976.3
593.947,1975.0
594.48,1982.9
595.014,2007.4
595.547,2025.9
596.079,2031.2
596.612,2045.9
597.145,2056.4
597.678,2051.2
598.21,2089.2
598.743,2105.6
599.275,2103.2
599.807,2120.1
600.34,2116.5
600.872,2124.8
601.404,2119.6
601.936,2103.7
602.468,2089.4
603.0,2096.5
603.532,2072.2
604.063,2036.6
604.595,2013.6
605.126,1961.5
605.658,1926.3
606.189,1871.1
606.721,1847.4
607.252,1822.7
607.783,1795.3
608.314,1770.0
608.845,1745.9
609.376,1719.2
609.907,1693.6
610.438,1677.6
610.968,1648.9
611.499,1636.1
612.03,1619.9
612.56,1609.7
613.091,1605.6
613.621,1584.7
614.151,1568.8
614.681,1549.3
615.212,1534.7
615.742,1512.9
616.272,1496.1
616.802,1490.6
617.332,1476.4
617.861,1471.1
618.391,1467.0
618.921,1446.1
619.45,1444.7
619.98,1438.8
620.509,1416.8
621.039,1424.3
621.568,1428.6
622.097,1439.2
622.627,1425.1
623.156,1415.8
623.685,1408.4
624.214,1409.9
624.743,1409.0
625.272,1404.3
625.801,1419.9
626.33,1427.0
626.858,1615.6
627.387,1995.2
627.916,1746.5
628.444,1849.2
628.973,1816.7
629.501,1732.0
630.029,1653.5
630.558,1662.5
631.086,1555.4
631.614,1500.9
632.142,1482.3
632.67,1493.0
633.198,1480.7
633.726,1492.0
634.254,1492.1
634.782,1495.1
635.31,1493.3
635.838,1502.7
636.365,1512.3
636.893,1512.7
637.421,1509.8
637.948,1517.2
638.476,1508.5
639.003,1522.9
639.531,1518.9
640.058,1528.2
640.585,1524.8
641.113,1518.7
641.64,1530.6
642.167,1536.4
642.694,1537.4
643.221,1537.6
643.748,1532.0
644.275,1532.9
644.802,1539.2
645.329,1540.5
645.856,1538.5
646.382,1544.5
646.909,1537.2
647.436,1538.7
647.962,1543.3
648.489,1536.6
649.016,1525.8
649.542,1519.5
650.069,1514.2
650.595,1500.4
651.121,1508.5
651.648,1512.8
652.174,1502.5
652.7,1502.5
653.227,1503.1
653.753,1498.0
654.279,1492.2
654.805,1484.4
655.331,1481.3
655.857,1462.3
656.383,1466.2
656.909,1450.7
657.435,1449.6
657.961,1439.0
658.487,1420.8
659.013,1408.2
659.538,1394.9
660.064,1389.7
660.59,1368.9
661.116,1351.2
661.641,1327.8
662.167,1305.5
662.692,1303.7
663.087,1294.2

File: VLFR_02-HDPE_bio_Raman_3e1d7682.csv
nm,Intensity
526.508,830.3
527.055,829.5
527.602,830.6
528.149,829.7
528.695,829.2
529.241,827.9
529.787,829.1
530.334,829.4
530.879,828.8
531.425,829.0
531.971,832.6
532.516,828.6
533.062,830.3
533.607,830.2
534.152,873.3
534.697,870.8
535.242,870.3
535.786,852.8
536.331,846.2
536.876,845.4
537.42,844.8
537.964,845.4
538.508,843.3
539.052,843.3
539.596,840.9
540.14,840.5
540.683,838.8
541.227,838.8
541.77,839.9
542.313,840.2
542.856,843.1
543.399,842.8
543.942,839.2
544.485,838.3
545.027,840.3
545.57,839.0
546.112,837.9
546.654,839.3
547.196,838.8
547.738,840.1
548.28,838.9
548.822,839.9
549.363,838.3
549.905,840.2
550.446,839.9
550.988,838.8
551.529,838.7
552.07,840.2
552.611,839.6
553.152,841.4
553.692,838.8
554.233,839.8
554.773,842.7
555.314,841.5
555.854,841.7
556.394,843.3
556.934,842.9
557.474,845.4
558.014,843.4
558.553,845.9
559.093,844.0
559.632,845.0
560.172,844.6
560.711,843.4
561.25,844.3
561.789,844.4
562.328,842.9
562.867,845.6
563.406,848.1
563.944,893.1
564.483,858.0
565.021,854.0
565.559,850.1
566.098,886.7
566.636,853.2
567.174,851.9
567.711,852.9
568.249,847.1
568.787,845.9
569.324,847.4
569.862,850.5
570.399,850.9
570.936,856.0
571.474,925.6
572.011,869.4
572.548,856.1
573.084,850.6
573.621,852.8
574.158,857.3
574.694,855.2
575.231,855.0
575.767,881.7
576.303,955.1
576.84,911.5
577.376,895.2
577.912,866.7
578.447,862.3
578.983,860.4
579.519,863.0
580.054,865.7
580.59,865.2
581.125,865.8
581.661,868.8
582.196,869.0
582.731,869.5
583.266,874.2
583.801,877.4
584.336,876.1
584.87,881.2
585.405,881.1
585.94,885.8
586.474,889.4
587.008,891.8
587.543,897.5
588.077,904.2
588.611,904.1
589.145,910.8
589.679,915.9
590.213,922.6
590.747,925.9
591.28,933.1
591.814,938.9
592.347,939.5
592.881,944.1
593.414,944.5
593.947,954.3
594.48,957.4
595.014,957.9
595.547,963.1
596.079,966.6
596.612,967.0
597.145,974.0
597.678,980.8
598.21,985.8
598.743,991.9
599.275,993.9
599.807,995.0
600.34,996.5
600.872,998.2
601.404,996.2
601.936,997.6
602.468,991.2
603.0,988.0
603.532,984.3
604.063,978.7
604.595,978.2
605.126,968.5
605.658,961.2
606.189,960.7
606.721,952.3
607.252,946.5
607.783,943.7
608.314,940.4
608.845,942.7
609.376,934.1
609.907,931.7
610.438,922.3
610.968,925.2
611.499,924.8
612.03,924.4
612.56,923.2
613.091,922.2
613.621,922.5
614.151,916.7
614.681,919.3
615.212,912.2
615.742,915.2
616.272,915.5
616.802,913.5
617.332,917.3
617.861,913.7
618.391,919.9
618.921,915.0
619.45,913.3
619.98,914.5
620.509,912.2
621.039,915.1
621.568,928.8
622.097,954.4
622.627,957.1
623.156,922.4
623.685,912.8
624.214,908.7
624.743,910.5
625.272,913.3
625.801,917.7
626.33,949.7
626.858,1227.0
627.387,1666.4
627.916,1332.2
628.444,1600.4
628.973,1330.8
629.501,1227.4
630.029,1117.1
630.558,1093.7
631.086,980.7
631.614,920.6
632.142,909.6
632.67,905.2
633.198,901.5
633.726,899.5
634.254,897.4
634.782,895.1
635.31,895.0
635.838,894.3
636.365,895.0
636.893,896.3
637.421,890.2
637.948,894.8
638.476,893.5
639.003,895.3
639.531,893.4
640.058,893.0
640.585,895.1
641.113,895.9
641.64,896.0
642.167,896.3
642.694,899.1
643.221,903.9
643.748,904.3
644.275,900.1
644.802,900.6
645.329,904.5
645.856,904.7
646.382,908.0
646.909,904.6
647.436,908.7
647.962,909.2
648.489,907.2
649.016,910.9
649.542,907.8
650.069,908.2
650.595,908.0
651.121,907.7
651.648,909.7
652.174,909.6
652.7,909.9
653.227,911.8
653.753,912.4
654.279,912.1
654.805,911.0
655.331,910.7
655.857,905.9
656.383,906.7
656.909,903.2
657.435,903.9
657.961,904.3
658.487,901.0
659.013,901.2
659.538,899.1
660.064,897.6
660.59,898.2
661.116,891.8
661.641,889.9
662.167,886.7
662.692,885.7
663.087,885.1