Folder: MPX_specDB/spectra (part 142)

File: VLFR_08-PLA_bio_Raman_d1469299.csv
nm,Intensity
526.508,827.7
527.055,827.7
527.602,827.4
528.149,829.1
528.695,828.6
529.241,829.9
529.787,828.2
530.334,827.8
530.879,830.0
531.425,826.4
531.971,838.6
532.516,831.3
533.062,828.4
533.607,829.2
534.152,950.6
534.697,927.3
535.242,912.3
535.786,904.4
536.331,903.0
536.876,901.1
537.42,897.7
537.964,899.5
538.508,893.2
539.052,892.1
539.596,891.7
540.14,889.6
540.683,898.8
541.227,900.1
541.77,898.2
542.313,892.8
542.856,900.3
543.399,905.8
543.942,911.4
544.485,902.2
545.027,896.3
545.57,896.4
546.112,895.5
546.654,899.7
547.196,900.8
547.738,894.8
548.28,901.5
548.822,902.0
549.363,902.3
549.905,903.3
550.446,906.1
550.988,905.8
551.529,907.6
552.07,909.5
552.611,909.8
553.152,908.9
553.692,910.9
554.233,913.6
554.773,910.8
555.314,910.4
555.854,908.6
556.394,907.6
556.934,911.9
557.474,921.9
558.014,971.2
558.553,924.7
559.093,916.0
559.632,916.4
560.172,913.6
560.711,914.9
561.25,911.6
561.789,916.4
562.328,915.3
562.867,921.2
563.406,933.0
563.944,929.5
564.483,923.8
565.021,933.4
565.559,928.5
566.098,946.7
566.636,928.2
567.174,919.7
567.711,923.8
568.249,928.6
568.787,929.3
569.324,927.8
569.862,924.0
570.399,927.3
570.936,929.5
571.474,939.3
572.011,937.8
572.548,934.8
573.084,936.6
573.621,934.4
574.158,939.0
574.694,943.6
575.231,929.7
575.767,931.2
576.303,944.4
576.84,971.2
577.376,949.1
577.912,933.8
578.447,931.6
578.983,933.3
579.519,934.6
580.054,932.0
580.59,929.7
581.125,932.2
581.661,934.0
582.196,934.5
582.731,936.4
583.266,935.2
583.801,933.6
584.336,936.8
584.87,934.9
585.405,939.3
585.94,938.0
586.474,944.6
587.008,959.8
587.543,977.6
588.077,947.3
588.611,939.9
589.145,934.8
589.679,937.3
590.213,938.0
590.747,942.4
591.28,941.2
591.814,940.3
592.347,937.5
592.881,936.3
593.414,938.6
593.947,939.1
594.48,936.3
595.014,937.5
595.547,940.3
596.079,939.2
596.612,937.5
597.145,940.9
597.678,939.3
598.21,936.4
598.743,940.3
599.275,940.9
599.807,940.0
600.34,938.8
600.872,942.1
601.404,938.2
601.936,940.6
602.468,938.3
603.0,936.4
603.532,941.2
604.063,935.1
604.595,932.1
605.126,935.7
605.658,931.9
606.189,933.4
606.721,930.6
607.252,936.1
607.783,934.5
608.314,936.1
608.845,931.2
609.376,934.6
609.907,933.8
610.438,937.8
610.968,928.0
611.499,931.7
612.03,936.7
612.56,937.1
613.091,938.6
613.621,937.8
614.151,937.4
614.681,936.6
615.212,932.7
615.742,934.0
616.272,930.5
616.802,937.4
617.332,939.2
617.861,931.8
618.391,934.5
618.921,932.9
619.45,933.9
619.98,935.6
620.509,930.5
621.039,934.6
621.568,937.2
622.097,933.8
622.627,937.6
623.156,944.4
623.685,938.5
624.214,936.6
624.743,934.0
625.272,932.1
625.801,931.5
626.33,934.8
626.858,936.3
627.387,933.1
627.916,938.3
628.444,981.8
628.973,972.3
629.501,967.3
630.029,977.3
630.558,1006.6
631.086,1236.8
631.614,1096.8
632.142,1007.3
632.67,1000.3
633.198,1064.7
633.726,1042.9
634.254,976.3
634.782,942.6
635.31,935.1
635.838,932.1
636.365,928.1
636.893,929.1
637.421,923.7
637.948,925.8
638.476,923.8
639.003,927.0
639.531,923.4
640.058,921.8
640.585,923.3
641.113,925.9
641.64,926.4
642.167,917.5
642.694,922.2
643.221,921.5
643.748,920.4
644.275,915.9
644.802,914.8
645.329,914.9
645.856,913.4
646.382,913.4
646.909,912.8
647.436,917.8
647.962,917.0
648.489,911.5
649.016,913.1
649.542,912.8
650.069,912.9
650.595,912.1
651.121,912.0
651.648,909.7
652.174,915.7
652.7,910.2
653.227,912.9
653.753,909.7
654.279,906.9
654.805,907.6
655.331,910.1
655.857,908.3
656.383,908.8
656.909,906.0
657.435,906.7
657.961,907.9
658.487,904.6
659.013,907.2
659.538,905.2
660.064,909.7
660.59,904.2
661.116,900.0
661.641,905.8
662.167,901.9
662.692,904.0
663.087,903.7

File: VLFR_08-PLA_bio_Raman_dad396d3.csv
nm,Intensity
526.495,826.7
527.042,827.8
527.589,827.8
528.136,828.1
528.682,827.2
529.229,826.9
529.775,827.7
530.321,827.2
530.867,827.3
531.413,827.8
531.959,829.6
532.505,826.9
533.051,827.1
533.596,828.8
534.141,1053.0
534.687,999.8
535.232,958.8
535.777,941.4
536.321,932.3
536.866,933.4
537.41,925.5
537.955,924.6
538.499,916.2
539.043,908.7
539.587,901.0
540.131,903.0
540.675,915.0
541.219,915.8
541.762,907.8
542.305,903.6
542.849,907.4
543.392,927.3
543.935,937.6
544.478,912.7
545.02,906.2
545.563,898.5
546.106,898.5
546.648,901.5
547.19,900.4
547.732,905.0
548.274,901.9
548.816,905.2
549.358,908.7
549.9,904.7
550.441,909.6
550.983,910.4
551.524,914.2
552.065,913.7
552.606,915.9
553.147,916.1
553.688,915.2
554.229,923.8
554.769,909.2
555.31,909.3
555.85,905.9
556.391,905.4
556.931,913.5
557.471,927.2
558.011,1046.8
558.551,947.3
559.09,923.9
559.63,925.5
560.169,914.6
560.709,915.0
561.248,912.0
561.787,912.7
562.326,913.8
562.865,922.8
563.404,960.9
563.943,937.0
564.481,928.8
565.02,949.4
565.558,936.8
566.096,976.9
566.634,944.6
567.172,922.0
567.71,928.4
568.248,929.8
568.786,928.5
569.324,932.5
569.861,924.3
570.399,925.7
570.936,929.0
571.473,950.0
572.01,950.2
572.547,943.6
573.084,944.4
573.621,949.8
574.158,945.2
574.694,953.8
575.231,932.3
575.767,929.1
576.303,947.5
576.84,1015.1
577.376,956.4
577.912,936.5
578.448,932.4
578.984,934.6
579.519,932.4
580.055,932.3
580.59,931.1
581.126,935.7
581.661,933.9
582.196,934.9
582.731,938.1
583.267,938.2
583.801,937.1
584.336,936.7
584.871,938.8
585.406,935.3
585.94,938.6
586.475,952.2
587.009,991.8
587.543,1017.3
588.078,960.5
588.612,944.9
589.146,942.4
589.68,937.6
590.214,939.9
590.747,943.2
591.281,943.6
591.815,939.2
592.348,938.5
592.881,936.5
593.415,938.1
593.948,936.3
594.481,939.2
595.014,937.1
595.547,940.6
596.08,941.0
596.613,943.2
597.146,944.5
597.678,942.6
598.211,943.3
598.743,946.1
599.276,948.3
599.808,943.2
600.34,942.6
600.872,948.0
601.404,948.2
601.936,950.3
602.468,947.1
603.0,945.5
603.532,945.3
604.064,946.5
604.595,949.8
605.127,951.6
605.658,947.3
606.189,948.8
606.721,944.3
607.252,952.9
607.783,949.7
608.314,955.2
608.845,953.3
609.376,953.9
609.907,955.5
610.438,952.7
610.968,956.2
611.499,954.9
612.029,956.3
612.56,963.8
613.09,961.5
613.621,967.2
614.151,961.1
614.681,963.4
615.211,960.8
615.741,966.8
616.271,959.7
616.801,966.5
617.331,965.8
617.861,966.9
618.39,966.5
618.92,967.0
619.45,963.8
619.979,969.4
620.509,966.7
621.038,967.1
621.567,972.4
622.096,970.2
622.626,981.4
623.155,983.7
623.684,979.1
624.213,978.6
624.742,966.3
625.271,974.6
625.799,973.2
626.328,968.0
626.857,974.7
627.386,970.3
627.914,980.4
628.443,1057.4
628.971,1039.3
629.5,1037.0
630.028,1044.0
630.556,1101.7
631.084,1532.6
631.613,1261.0
632.141,1117.5
632.669,1090.0
633.197,1192.5
633.725,1146.0
634.253,1044.4
634.781,993.4
635.308,972.9
635.836,968.2
636.364,961.1
636.891,960.2
637.419,954.8
637.947,957.1
638.474,953.3
639.002,954.1
639.529,955.2
640.056,951.0
640.584,953.7
641.111,951.3
641.638,953.2
642.165,951.4
642.692,951.6
643.219,948.0
643.746,945.1
644.273,941.3
644.8,936.3
645.327,936.8
645.854,940.7
646.381,937.9
646.908,933.3
647.434,938.2
647.961,935.4
648.488,935.0
649.014,933.4
649.541,931.8
650.067,934.4
650.594,931.6
651.12,927.7
651.646,928.7
652.173,924.8
652.699,928.7
653.225,926.7
653.752,923.3
654.278,924.8
654.804,923.7
655.33,923.8
655.856,921.3
656.382,923.0
656.908,925.5
657.434,926.2
657.96,921.9
658.486,925.9
659.012,918.8
659.538,919.3
660.064,921.8
660.589,917.3
661.115,915.5
661.641,916.7
662.166,914.4
662.692,912.8
663.086,912.8

File: VLFR_08-PLA_bio_Raman_dc191635.csv
nm,Intensity
528.626,1863.2
529.132,1864.9
529.637,1862.8
530.143,1863.5
530.648,1863.7
531.153,1866.7
531.658,1925.7
532.164,4742.8
532.669,1866.7
533.174,1867.2
533.679,2101.1
534.184,2759.2
534.689,2598.8
535.194,2490.1
535.699,2414.4
536.203,2367.0
536.708,2398.9
537.213,2366.1
537.717,2406.7
538.222,2334.4
538.726,2326.9
539.231,2324.1
539.735,2297.0
540.239,2311.2
540.744,2374.0
541.248,2382.2
541.752,2324.2
542.256,2324.9
542.76,2340.2
543.264,2435.6
543.768,2484.0
544.272,2410.8
544.776,2338.4
545.28,2335.7
545.784,2318.5
546.287,2322.8
546.791,2319.8
547.294,2332.9
547.798,2334.0
548.301,2347.4
548.805,2362.7
549.308,2366.3
549.811,2357.2
550.315,2363.9
550.818,2384.1
551.321,2389.7
551.824,2423.1
552.327,2445.2
552.83,2437.2
553.333,2426.1
553.835,2453.8
554.338,2449.7
554.841,2453.9
555.343,2409.5
555.846,2406.8
556.349,2389.7
556.851,2395.0
557.353,2500.4
557.856,2988.3
558.358,2763.1
558.86,2508.2
559.362,2464.5
559.864,2467.7
560.366,2444.6
560.868,2462.8
561.37,2454.4
561.872,2439.6
562.374,2452.0
562.876,2535.0
563.377,2671.6
563.879,2541.7
564.38,2515.2
564.882,2619.3
565.383,2606.6
565.885,2718.4
566.386,2709.3
566.887,2515.6
567.388,2514.0
567.889,2546.0
568.391,2552.8
568.892,2551.4
569.392,2527.8
569.893,2521.4
570.394,2536.6
570.895,2533.6
571.395,2632.6
571.896,2665.9
572.397,2610.6
572.897,2646.3
573.397,2656.5
573.898,2627.9
574.398,2674.0
574.898,2591.2
575.398,2555.6
575.898,2587.4
576.398,2818.7
576.898,2968.3
577.398,2666.3
577.898,2585.4
578.398,2557.5
578.897,2558.9
579.397,2553.1
579.896,2584.8
580.396,2572.9
580.895,2557.7
581.395,2569.5
581.894,2575.6
582.393,2539.1
582.892,2571.0
583.391,2566.2
583.89,2566.4
584.389,2555.1
584.888,2585.8
585.387,2562.2
585.886,2555.4
586.384,2672.2
586.883,2792.9
587.381,2942.7
587.88,2789.2
588.378,2577.2
588.876,2578.0
589.375,2532.1
589.873,2543.2
590.371,2558.2
590.869,2541.4
591.367,2532.3
591.865,2531.9
592.363,2556.6
592.86,2568.8
593.358,2551.0
593.856,2537.7
594.353,2549.8
594.851,2519.8
595.348,2553.2
595.845,2554.1
596.342,2539.6
596.84,2536.8
597.337,2539.5
597.834,2551.5
598.331,2520.0
598.828,2523.5
599.324,2548.7
599.821,2531.1
600.318,2552.4
600.814,2539.8
601.311,2531.8
601.807,2558.1
602.304,2546.6
602.8,2555.1
603.296,2532.2
603.792,2547.3
604.288,2544.0
604.784,2518.6
605.28,2533.1
605.776,2523.2
606.272,2531.1
606.767,2536.4
607.263,2541.6
607.759,2522.6
608.254,2521.8
608.749,2497.9
609.245,2524.5
609.74,2523.4
610.235,2519.7
610.73,2505.4
611.225,2549.9
611.72,2506.0
612.215,2505.5
612.71,2515.4
613.204,2493.8
613.699,2478.7
614.194,2516.2
614.688,2498.8
615.182,2529.3
615.677,2511.2
616.171,2513.2
616.665,2523.9
617.159,2515.4
617.653,2501.1
618.147,2500.0
618.641,2507.9
619.135,2471.2
619.628,2504.8
620.122,2506.5
620.615,2475.0
621.109,2489.7
621.602,2495.3
622.095,2501.0
622.589,2559.8
623.082,2586.1
623.575,2528.1
624.068,2530.2
624.561,2496.1
625.053,2499.4
625.546,2492.0
626.039,2484.7
626.531,2484.8
627.024,2472.6
627.516,2490.0
628.008,2654.0
628.501,3004.0
628.993,2847.1
629.485,2857.2
629.977,2866.6
630.469,3264.2
630.96,5179.6
631.452,4281.8
631.944,3334.5
632.435,3098.9
632.927,3555.0
633.418,3669.9
633.91,3182.5
634.401,2748.9
634.892,2564.0
635.383,2459.4
635.874,2460.7
636.365,2441.4
636.856,2424.0
637.346,2420.5
637.837,2382.0
638.327,2410.2
638.818,2392.2
639.308,2374.2
639.799,2396.2
640.289,2390.8
640.779,2361.9
641.269,2390.6
641.759,2359.5
642.249,2382.0
642.738,2375.0
643.228,2323.0
643.718,2346.5
644.207,2336.5
644.697,2333.6
645.186,2336.8
645.675,2324.9
646.164,2312.6
646.653,2327.8
647.142,2306.1
647.631,2304.2
648.12,2286.6
648.609,2291.1
649.098,2277.2
649.586,2284.0
650.075,2270.6
650.563,2262.6
651.051,2286.2
651.539,2256.2
652.027,2264.9
652.515,2243.0
653.003,2238.9
653.491,2234.4
653.979,2240.5
654.467,2212.3
654.954,2225.6
655.442,2201.7
655.929,2230.1
656.416,2211.0
656.904,2212.8
657.391,2205.2
657.878,2200.4
658.365,2198.8
658.851,2181.0
659.338,2186.8
659.825,2188.6
660.311,2183.3
660.798,2178.1
661.041,2164.9

File: VLFR_08-PLA_bio_Raman_dd370799.csv
nm,Intensity
526.495,827.3
527.042,828.7
527.589,829.9
528.136,829.2
528.682,830.1
529.229,829.8
529.775,829.3
530.321,828.7
530.867,829.2
531.413,827.5
531.959,832.6
532.505,829.5
533.051,829.8
533.596,829.9
534.141,1023.6
534.687,982.9
535.232,952.8
535.777,933.6
536.321,927.0
536.866,927.9
537.41,923.5
537.955,922.8
538.499,910.7
539.043,910.0
539.587,908.2
540.131,902.6
540.675,915.0
541.219,918.2
541.762,910.8
542.305,904.4
542.849,907.7
543.392,923.5
543.935,934.2
544.478,915.3
545.02,908.2
545.563,905.7
546.106,905.1
546.648,905.1
547.19,907.9
547.732,906.5
548.274,906.7
548.816,908.5
549.358,906.7
549.9,912.9
550.441,913.4
550.983,912.6
551.524,917.7
552.065,918.0
552.606,919.3
553.147,918.0
553.688,916.8
554.229,927.6
554.769,918.0
555.31,913.2
555.85,907.3
556.391,908.1
556.931,913.2
557.471,927.7
558.011,1041.8
558.551,949.4
559.09,928.6
559.63,927.1
560.169,923.5
560.709,917.4
561.248,920.1
561.787,916.3
562.326,918.2
562.865,930.3
563.404,959.2
563.943,938.9
564.481,928.7
565.02,950.5
565.558,946.0
566.096,976.7
566.634,945.2
567.172,928.1
567.71,927.2
568.248,933.4
568.786,934.8
569.324,935.4
569.861,934.3
570.399,930.0
570.936,933.2
571.473,951.4
572.01,950.8
572.547,946.4
573.084,946.4
573.621,951.3
574.158,945.6
574.694,954.1
575.231,935.6
575.767,934.4
576.303,953.6
576.84,1008.5
577.376,962.9
577.912,939.0
578.448,938.2
578.984,939.3
579.519,936.8
580.055,939.9
580.59,935.4
581.126,936.5
581.661,941.9
582.196,936.0
582.731,941.6
583.267,940.9
583.801,939.0
584.336,947.0
584.871,940.7
585.406,941.4
585.94,947.6
586.475,960.8
587.009,992.1
587.543,1015.4
588.078,969.0
588.612,946.7
589.146,945.4
589.68,946.2
590.214,941.3
590.747,945.1
591.281,941.9
591.815,942.5
592.348,944.3
592.881,942.5
593.415,941.4
593.948,939.9
594.481,945.6
595.014,946.8
595.547,942.9
596.08,945.1
596.613,946.5
597.146,941.3
597.678,948.0
598.211,946.8
598.743,947.4
599.276,951.5
599.808,947.3
600.34,947.2
600.872,941.5
601.404,947.7
601.936,941.7
602.468,948.1
603.0,949.4
603.532,952.8
604.064,947.4
604.595,949.3
605.127,950.9
605.658,945.9
606.189,942.8
606.721,948.9
607.252,948.0
607.783,949.5
608.314,949.2
608.845,950.8
609.376,950.6
609.907,951.3
610.438,951.1
610.968,948.3
611.499,950.6
612.029,949.5
612.56,954.6
613.09,956.2
613.621,951.2
614.151,958.6
614.681,954.8
615.211,954.5
615.741,957.8
616.271,959.7
616.801,958.0
617.331,959.3
617.861,958.2
618.39,959.5
618.92,957.3
619.45,958.9
619.979,957.0
620.509,962.2
621.038,957.7
621.567,960.4
622.096,960.5
622.626,968.6
623.155,977.3
623.684,973.9
624.213,962.6
624.742,962.1
625.271,961.1
625.799,963.7
626.328,958.0
626.857,961.0
627.386,960.3
627.914,970.0
628.443,1046.5
628.971,1024.3
629.5,1023.3
630.028,1026.7
630.556,1089.2
631.084,1471.3
631.613,1225.8
632.141,1094.9
632.669,1068.8
633.197,1167.9
633.725,1129.5
634.253,1027.1
634.781,978.0
635.308,965.8
635.836,960.3
636.364,951.7
636.891,950.2
637.419,952.2
637.947,950.1
638.474,950.9
639.002,946.0
639.529,946.8
640.056,945.7
640.584,943.5
641.111,948.1
641.638,945.9
642.165,946.1
642.692,943.3
643.219,944.5
643.746,942.0
644.273,934.6
644.8,936.0
645.327,940.3
645.854,935.7
646.381,934.0
646.908,933.9
647.434,936.5
647.961,930.6
648.488,927.5
649.014,927.6
649.541,929.4
650.067,929.9
650.594,927.1
651.12,929.1
651.646,925.9
652.173,929.5
652.699,928.6
653.225,924.8
653.752,924.9
654.278,924.4
654.804,923.9
655.33,919.2
655.856,920.1
656.382,921.2
656.908,922.3
657.434,922.8
657.96,921.0
658.486,923.8
659.012,920.0
659.538,924.4
660.064,915.3
660.589,917.8
661.115,918.9
661.641,918.5
662.166,916.1
662.692,914.2
663.086,914.8

File: VLFR_08-PLA_bio_Raman_ded8f176.csv
nm,Intensity
526.532,833.35
527.079,833.6
527.625,833.7
528.172,833.85
528.718,833.85
529.265,833.15
529.811,833.2
530.357,834.0
530.903,833.15
531.449,833.5
531.994,845.25
532.54,834.3
533.085,833.05
533.63,835.6
534.176,986.15
534.721,970.65
535.266,950.75
535.81,942.4
536.355,944.65
536.9,946.9
537.444,941.65
537.988,944.35
538.533,939.85
539.077,941.75
539.621,939.6
540.165,938.1
540.708,945.9
541.252,951.05
541.795,946.8
542.339,946.35
542.882,949.35
543.425,963.1
543.968,967.6
544.511,956.4
545.054,953.85
545.597,955.45
546.139,954.05
546.682,955.85
547.224,958.4
547.766,959.9
548.308,960.3
548.85,961.25
549.392,964.85
549.934,964.7
550.475,965.4
551.017,970.05
551.558,971.35
552.1,971.1
552.641,971.3
553.182,972.9
553.723,976.7
554.264,977.65
554.804,973.9
555.345,973.7
555.885,972.95
556.426,974.85
556.966,978.3
557.506,983.85
558.046,1050.85
558.586,990.75
559.126,987.0
559.665,985.85
560.205,983.8
560.745,985.85
561.284,982.6
561.823,981.7
562.362,982.15
562.901,993.1
563.44,1009.4
563.979,1002.85
564.518,997.8
565.056,1007.6
565.595,1004.6
566.133,1022.55
566.671,1003.6
567.21,998.25
567.748,1000.75
568.285,1001.6
568.823,1002.0
569.361,1003.9
569.899,1003.75
570.436,1004.85
570.974,1004.9
571.511,1012.2
572.048,1011.6
572.585,1012.9
573.122,1014.55
573.659,1015.9
574.196,1017.2
574.733,1027.85
575.269,1012.9
575.806,1008.15
576.342,1023.8
576.878,1056.2
577.414,1021.55
577.951,1016.0
578.486,1019.6
579.022,1015.85
579.558,1012.95
580.094,1012.75
580.629,1015.7
581.165,1015.85
581.7,1014.65
582.236,1018.1
582.771,1017.5
583.306,1018.05
583.841,1020.0
584.376,1020.7
584.911,1018.9
585.445,1022.15
585.98,1022.15
586.514,1032.3
587.049,1047.0
587.583,1055.35
588.117,1034.75
588.651,1025.3
589.186,1020.85
589.72,1022.25
590.253,1020.55
590.787,1020.95
591.321,1020.8
591.854,1021.25
592.388,1018.1
592.921,1018.0
593.455,1015.35
593.988,1016.35
594.521,1018.0
595.054,1020.15
595.587,1017.5
596.12,1017.05
596.653,1014.55
597.186,1021.45
597.718,1021.95
598.251,1021.15
598.783,1020.45
599.316,1017.35
599.848,1020.5
600.38,1016.4
600.912,1013.85
601.444,1020.3
601.976,1016.3
602.508,1012.25
603.04,1011.3
603.572,1015.35
604.103,1015.2
604.635,1009.3
605.167,1009.65
605.698,1004.55
606.229,1004.55
606.761,1005.9
607.292,1005.9
607.823,1005.55
608.354,1005.35
608.885,1005.35
609.416,1004.15
609.947,1002.6
610.477,1001.6
611.008,1002.3
611.539,999.8
612.069,1002.05
612.6,1002.0
613.13,1006.15
613.66,1005.7
614.19,1007.25
614.721,1004.9
615.251,1004.1
615.781,1000.4
616.311,1001.85
616.841,1002.4
617.37,1000.25
617.9,1002.2
618.43,997.5
618.96,999.8
619.489,1000.15
620.019,1003.75
620.548,996.75
621.077,995.15
621.607,994.65
622.136,996.65
622.665,1002.45
623.194,1007.75
623.723,1002.0
624.252,999.8
624.781,994.2
625.31,996.0
625.839,993.35
626.368,993.05
626.896,994.1
627.425,993.4
627.953,1000.55
628.482,1037.0
629.01,1028.6
629.539,1027.35
630.067,1029.8
630.596,1065.3
631.124,1291.3
631.652,1124.0
632.18,1056.9
632.708,1049.3
633.236,1108.25
633.764,1078.85
634.292,1015.25
634.82,992.55
635.348,982.1
635.876,977.9
636.403,984.05
636.931,980.15
637.459,976.0
637.986,975.3
638.514,975.35
639.041,974.0
639.568,975.6
640.096,974.65
640.623,974.55
641.15,972.2
641.678,972.45
642.205,972.5
642.732,972.0
643.259,966.55
643.786,963.8
644.313,961.6
644.84,963.65
645.367,959.45
645.894,957.95
646.421,957.5
646.948,959.05
647.474,954.15
648.001,957.0
648.528,954.65
649.054,954.1
649.581,953.15
650.108,955.5
650.634,950.1
651.161,951.25
651.687,951.45
652.214,950.55
652.74,948.35
653.266,950.85
653.793,945.9
654.319,948.3
654.845,949.5
655.371,948.25
655.897,947.35
656.424,948.55
656.95,946.05
657.476,946.9
658.002,946.55
658.528,946.2
659.054,942.3
659.58,943.45
660.106,940.4
660.631,942.95
661.157,937.8
661.683,940.55
662.209,936.3
662.735,937.85
663.129,938.6

File: VLFR_08-PLA_bio_Raman_dee71bc2.csv
nm,Intensity
528.626,1863.73
529.132,1864.8
529.637,1864.5
530.143,1864.03
530.648,1864.93
531.153,1867.6
531.658,1911.23
532.164,4493.37
532.669,1866.7
533.174,1864.27
533.679,1997.9
534.184,2441.13
534.689,2445.23
535.194,2464.7
535.699,2466.2
536.203,2461.8
536.708,2440.67
537.213,2467.47
537.717,2476.97
538.222,2453.07
538.726,2460.1
539.231,2471.97
539.735,2454.83
540.239,2466.73
540.744,2495.23
541.248,2510.27
541.752,2503.5
542.256,2503.13
542.76,2533.93
543.264,2559.03
543.768,2581.67
544.272,2603.93
544.776,2583.97
545.28,2572.67
545.784,2588.3
546.287,2554.7
546.791,2587.17
547.294,2597.17
547.798,2583.3
548.301,2618.27
548.805,2604.7
549.308,2643.43
549.811,2631.8
550.315,2658.77
550.818,2676.37
551.321,2701.47
551.824,2709.33
552.327,2700.5
552.83,2668.8
553.333,2694.47
553.835,2713.93
554.338,2700.53
554.841,2731.83
555.343,2718.7
555.846,2731.87
556.349,2716.67
556.851,2726.67
557.353,2731.87
557.856,2828.27
558.358,2807.67
558.86,2747.37
559.362,2753.4
559.864,2747.07
560.366,2771.37
560.868,2816.77
561.37,2837.27
561.872,2922.1
562.374,3193.73
562.876,2886.8
563.377,2862.23
563.879,2823.93
564.38,2854.7
564.882,2882.1
565.383,2879.07
565.885,2864.83
566.386,2912.77
566.887,2907.7
567.388,2923.7
567.889,2902.4
568.391,2901.57
568.892,2892.47
569.392,2901.17
569.893,2876.6
570.394,2884.63
570.895,2878.4
571.395,2941.43
571.896,2956.23
572.397,2943.23
572.897,2941.17
573.397,2964.27
573.898,2952.7
574.398,2940.47
574.898,2952.53
575.398,2931.53
575.898,2941.7
576.398,2994.87
576.898,3040.37
577.398,2972.73
577.898,2962.0
578.398,2918.03
578.897,2953.93
579.397,2964.63
579.896,2958.03
580.396,2988.33
580.895,2986.63
581.395,2984.93
581.894,3016.17
582.393,2985.43
582.892,2994.9
583.391,2990.03
583.89,2977.43
584.389,3013.97
584.888,2970.83
585.387,2972.97
585.886,2961.8
586.384,2994.63
586.883,3031.4
587.381,3071.7
587.88,3058.23
588.378,2984.07
588.876,2912.17
589.375,2952.0
589.873,2961.5
590.371,2972.83
590.869,2997.17
591.367,2986.9
591.865,2986.13
592.363,2974.93
592.86,3012.13
593.358,3002.1
593.856,2999.73
594.353,2982.87
594.851,2976.97
595.348,3027.6
595.845,3016.7
596.342,3034.7
596.84,3015.17
597.337,3048.2
597.834,2999.93
598.331,3021.4
598.828,3019.27
599.324,3036.53
599.821,3026.1
600.318,3048.43
600.814,3028.83
601.311,3045.27
601.807,3054.03
602.304,3026.83
602.8,3076.9
603.296,3076.37
603.792,3054.47
604.288,3070.13
604.784,3047.87
605.28,3048.33
605.776,3095.2
606.272,3070.33
606.767,3065.57
607.263,3075.4
607.759,3075.17
608.254,3064.57
608.749,3071.27
609.245,3059.23
609.74,3088.6
610.235,3066.67
610.73,3080.23
611.225,3075.5
611.72,3098.77
612.215,3073.37
612.71,3089.6
613.204,3088.63
613.699,3055.13
614.194,3088.0
614.688,3115.07
615.182,3093.47
615.677,3115.63
616.171,3062.53
616.665,3069.43
617.159,3108.6
617.653,3087.37
618.147,3085.5
618.641,3093.9
619.135,3105.03
619.628,3085.6
620.122,3126.57
620.615,3082.63
621.109,3107.53
621.602,3071.43
622.095,3079.03
622.589,3102.83
623.082,3095.2
623.575,3089.43
624.068,3072.73
624.561,3074.0
625.053,3060.87
625.546,3073.53
626.039,3059.13
626.531,3046.83
627.024,3052.67
627.516,3049.73
628.008,3050.33
628.501,3149.87
628.993,3089.7
629.485,3077.87
629.977,3085.03
630.469,3121.8
630.96,3439.9
631.452,3309.2
631.944,3134.1
632.435,3104.33
632.927,3162.0
633.418,3163.3
633.91,3098.37
634.401,3017.27
634.892,3008.27
635.383,2978.97
635.874,2961.1
636.365,2958.03
636.856,2968.73
637.346,2958.1
637.837,2945.57
638.327,2947.37
638.818,2937.4
639.308,2938.7
639.799,2918.93
640.289,2917.8
640.779,2895.8
641.269,2884.5
641.759,2882.37
642.249,2863.47
642.738,2899.37
643.228,2852.47
643.718,2859.33
644.207,2889.3
644.697,2839.4
645.186,2839.8
645.675,2832.57
646.164,2846.87
646.653,2831.17
647.142,2823.17
647.631,2817.13
648.12,2803.57
648.609,2782.37
649.098,2766.17
649.586,2755.13
650.075,2745.4
650.563,2775.37
651.051,2768.83
651.539,2741.6
652.027,2739.3
652.515,2720.07
653.003,2739.7
653.491,2708.33
653.979,2703.83
654.467,2683.73
654.954,2656.6
655.442,2678.3
655.929,2647.1
656.416,2599.67
656.904,2653.3
657.391,2651.23
657.878,2615.13
658.365,2626.07
658.851,2620.27
659.338,2598.0
659.825,2579.73
660.311,2574.07
660.798,2588.33
661.041,2574.37