Folder: MPX_specDB/spectra (part 103)

File: VLFR_07-PET_bio_Raman_aae56f9e.csv
nm,Intensity
791.496,12034.6
792.594,11198.0
793.692,10854.9
794.79,10723.5
795.888,10609.0
796.986,10461.5
798.083,10593.6
799.181,10418.5
800.278,10424.3
801.375,10374.0
802.473,10279.1
803.57,10188.2
804.667,10128.7
805.764,9991.2
806.86,9916.1
807.957,9866.7
809.054,9831.0
810.15,9809.6
811.246,9664.5
812.343,9698.4
813.439,9567.5
814.535,9388.8
815.631,9451.2
816.727,9283.8
817.822,9251.4
818.918,9106.5
820.013,9115.9
821.109,8975.7
822.204,8842.4
823.299,8783.2
824.394,8659.0
825.489,8842.9
826.584,8676.7
827.679,8449.3
828.774,8439.7
829.868,8397.6
830.963,8311.4
832.057,8275.6
833.151,8142.1
834.245,8042.7
835.339,8067.1
836.433,8165.4
837.527,8023.5
838.621,8027.6
839.714,7974.9
840.808,8216.7
841.901,8002.4
842.994,7851.4
844.087,7774.1
845.18,7579.4
846.273,7536.2
847.366,7465.1
848.458,7450.8
849.551,7381.9
850.643,7367.7
851.735,7405.2
852.828,7273.6
853.92,7255.7
855.012,7168.5
856.103,7157.1
857.195,7162.5
858.287,7188.4
859.378,7239.3
860.469,7125.3
861.56,7054.4
862.651,6938.5
863.742,6982.7
864.833,6887.8
865.924,6752.3
867.014,6788.0
868.105,6691.3
869.195,6719.3
870.285,6723.1
871.376,6896.4
872.465,6979.1
873.555,6825.9
874.645,6684.6
875.735,6541.2
876.824,6488.0
877.913,6426.3
879.002,6387.5
880.092,6281.7
881.18,6364.5
882.269,6336.4
883.358,6225.8
884.446,6287.5
885.535,6192.4
886.623,6091.9
887.711,6094.7
888.799,6044.9
889.887,5960.7
890.975,5980.7
892.062,5942.8
893.15,5827.8
894.237,5883.5
895.325,5832.4
896.412,5795.8
897.499,6167.1
898.585,6223.6
899.672,5883.0
900.759,5651.3
901.845,5559.7
902.931,5559.8
904.017,5530.2
905.103,5531.7
906.189,5695.7
907.275,5813.5
908.361,5680.0
909.446,5491.7
910.531,5309.6
911.616,5235.0
912.701,5245.3
913.786,5161.7
914.871,5173.8
915.956,5123.2
917.04,5095.6
918.124,5066.4
919.209,5019.3
920.293,4963.8
921.376,4918.0
922.46,4869.9
923.544,4890.7
924.627,4834.2
925.711,4789.8
926.794,4775.9
927.877,4757.1
928.96,4690.8
930.042,4669.5
931.125,4652.0
932.207,4607.1
933.29,4589.4
934.372,4561.0
935.454,4518.4
936.536,4514.7
937.617,4469.9
938.699,4446.0
939.78,4460.8
940.861,4420.9
941.943,4375.4
943.023,4367.9
944.104,4350.7
945.185,4323.6
946.265,4292.6
947.346,4285.0
948.426,4275.8
949.506,4244.2
950.586,4225.9
951.665,4216.9
952.745,4198.0
953.824,4162.7
954.904,4152.4
955.983,4156.1
957.062,4131.1
958.141,4109.3
959.219,4100.4
960.298,4090.8
961.376,4066.1
962.454,4060.7
963.532,4054.4
964.61,4051.5
965.688,4028.7
966.765,4026.5
967.842,4013.7
968.92,4003.6
969.997,3994.1
971.074,3979.6
972.15,3958.5
973.227,3958.4
974.303,3956.6
975.379,3938.3
976.455,3938.3
977.531,3922.5
978.607,3915.3
979.683,3915.3
980.758,3896.3
981.833,3888.1
982.908,3886.3
983.983,3884.4
985.058,3872.0
986.133,3870.5
987.207,3865.4
988.281,3863.9
989.355,3854.1
990.429,3844.1
991.503,3837.2
992.577,3830.1
993.65,3832.2
994.723,3831.0
995.796,3822.3
996.869,3811.9
997.942,3813.7
999.014,3809.8
1000.09,3799.9
1001.16,3798.6
1002.23,3793.1
1003.3,3786.7
1004.37,3784.4
1005.45,3782.2
1006.52,3779.0
1007.59,3772.4
1008.66,3768.3
1009.73,3768.3
1010.8,3763.0
1011.87,3764.5
1012.94,3759.9
1014.01,3757.4
1015.08,3753.0
1016.15,3750.8
1017.22,3756.0
1018.29,3747.5
1019.36,3746.2
1020.43,3744.0
1021.5,3751.7
1022.57,3752.7
1023.64,3745.3
1024.7,3736.2
1025.77,3731.9
1026.84,3732.2
1027.91,3727.4
1028.97,3723.5
1030.04,3725.3
1031.11,3724.7
1032.18,3722.2
1033.24,3725.0
1034.31,3724.6
1035.38,3723.3
1036.44,3717.4
1037.51,3716.5
1038.58,3715.4
1039.64,3714.2
1040.71,3709.9
1041.77,3707.4
1042.84,3708.6
1043.9,3707.2
1044.97,3708.0
1046.03,3705.4
1047.1,3706.2
1048.16,3704.7
1049.22,3705.7
1050.29,3703.5
1051.35,3704.3
1052.42,3704.7
1053.48,3704.8
1054.54,3702.6
1055.61,3703.8
1056.67,3699.4
1057.73,3703.6
1058.79,3698.2
1059.86,3698.2
1060.92,3701.6
1061.98,3701.7
1063.04,3698.1
1064.1,3701.4
1065.16,3696.9
1066.22,3700.4
1067.29,3696.7
1068.08,3699.2

File: VLFR_07-PET_bio_Raman_adee5d0f.csv
nm,Intensity
791.75,7729.8
792.846,7522.2
793.942,7412.9
795.037,7438.75
796.133,7380.2
797.228,7346.45
798.324,7318.2
799.419,7337.7
800.514,7294.15
801.61,7298.85
802.705,7234.25
803.8,7225.2
804.894,7194.5
805.989,7105.2
807.084,7075.3
808.178,6940.3
809.273,7077.4
810.367,6907.9
811.461,6895.35
812.556,6926.9
813.65,6815.65
814.744,6728.85
815.837,6700.2
816.931,6605.85
818.025,6540.55
819.118,6582.5
820.212,6533.7
821.305,6493.05
822.398,6407.15
823.491,6353.45
824.585,6389.8
825.677,6391.4
826.77,6300.8
827.863,6264.4
828.956,6193.2
830.048,6178.35
831.14,6122.65
832.233,6073.75
833.325,6096.65
834.417,6068.75
835.509,6003.15
836.601,6016.2
837.692,6045.7
838.784,5985.3
839.876,5959.3
840.967,5974.0
842.058,6010.7
843.149,5895.2
844.24,5853.65
845.331,5849.25
846.422,5762.05
847.513,5793.4
848.604,5714.7
849.694,5704.7
850.784,5708.4
851.875,5665.6
852.965,5688.25
854.055,5621.65
855.145,5605.45
856.235,5586.8
857.324,5577.35
858.414,5601.3
859.503,5597.45
860.593,5575.35
861.682,5496.55
862.771,5487.95
863.86,5473.65
864.949,5442.2
866.038,5391.8
867.126,5365.45
868.215,5358.8
869.303,5391.35
870.391,5358.15
871.479,5411.9
872.567,5437.4
873.655,5415.65
874.743,5368.6
875.831,5286.65
876.918,5236.25
878.006,5256.75
879.093,5219.2
880.18,5183.85
881.267,5192.7
882.354,5190.3
883.441,5173.4
884.527,5127.35
885.614,5123.0
886.7,5099.6
887.786,5027.25
888.872,5043.45
889.958,4997.2
891.044,5019.6
892.13,4979.8
893.216,4968.5
894.301,4908.75
895.386,4899.8
896.472,4896.5
897.557,4993.8
898.642,5048.1
899.726,4893.5
900.811,4807.4
901.896,4746.95
902.98,4786.0
904.064,4745.5
905.148,4721.3
906.232,4791.65
907.316,4859.6
908.4,4872.45
909.484,4718.6
910.567,4634.0
911.65,4608.45
912.734,4573.8
913.817,4576.6
914.9,4540.95
915.982,4501.9
917.065,4518.9
918.147,4487.25
919.23,4476.5
920.312,4446.7
921.394,4450.7
922.476,4424.45
923.558,4390.55
924.639,4373.1
925.721,4374.15
926.802,4348.15
927.884,4335.65
928.965,4290.3
930.046,4275.2
931.126,4274.9
932.207,4240.3
933.288,4234.85
934.368,4207.2
935.448,4210.65
936.528,4198.1
937.608,4168.2
938.688,4158.05
939.767,4157.35
940.847,4152.05
941.926,4128.95
943.005,4118.1
944.084,4102.55
945.163,4093.85
946.242,4079.7
947.321,4073.05
948.399,4063.3
949.477,4048.7
950.556,4050.3
951.634,4027.65
952.711,4021.85
953.789,4011.15
954.867,4005.6
955.944,3999.2
957.021,3988.9
958.098,3983.7
959.175,3972.1
960.252,3983.15
961.328,3967.0
962.405,3958.05
963.481,3944.35
964.557,3938.2
965.633,3942.55
966.709,3932.7
967.785,3931.45
968.86,3925.15
969.936,3915.9
971.011,3914.3
972.086,3902.55
973.161,3901.75
974.235,3894.05
975.31,3897.55
976.384,3879.5
977.459,3878.05
978.533,3879.3
979.607,3869.9
980.68,3868.45
981.754,3867.2
982.827,3864.05
983.901,3855.2
984.974,3855.9
986.047,3849.35
987.119,3847.5
988.192,3846.1
989.264,3840.3
990.337,3834.8
991.409,3832.0
992.481,3829.3
993.553,3827.35
994.624,3821.6
995.696,3818.85
996.767,3819.8
997.838,3816.75
998.909,3810.3
999.98,3814.25
1001.05,3805.35
1002.12,3805.65
1003.19,3802.0
1004.26,3801.55
1005.33,3797.85
1006.4,3797.95
1007.47,3794.65
1008.54,3788.85
1009.61,3789.55
1010.68,3788.75
1011.75,3785.35
1012.82,3784.05
1013.88,3781.2
1014.95,3782.7
1016.02,3779.35
1017.09,3777.35
1018.16,3774.85
1019.22,3774.8
1020.29,3773.3
1021.36,3775.35
1022.43,3775.3
1023.49,3772.7
1024.56,3770.35
1025.63,3768.15
1026.69,3764.4
1027.76,3765.25
1028.83,3762.45
1029.89,3761.75
1030.96,3759.9
1032.02,3760.1
1033.09,3759.45
1034.15,3760.55
1035.22,3760.5
1036.28,3759.55
1037.35,3754.75
1038.41,3754.85
1039.48,3753.7
1040.54,3753.9
1041.6,3751.75
1042.67,3750.85
1043.73,3750.9
1044.79,3749.45
1045.86,3746.55
1046.92,3747.65
1047.98,3749.4
1049.05,3747.9
1050.11,3747.95
1051.17,3746.8
1052.23,3747.0
1053.29,3745.4
1054.36,3745.85
1055.42,3745.9
1056.48,3746.05
1057.54,3745.85
1058.6,3744.5
1059.66,3745.65
1060.72,3743.4
1061.78,3746.15
1062.84,3746.55
1063.9,3744.4
1064.96,3744.45
1066.02,3743.3
1067.08,3744.1
1067.88,3743.35

File: VLFR_07-PET_bio_Raman_ae10d20e.csv
nm,Intensity
791.588,7909.9
792.685,7617.6
793.781,7562.6
794.878,7535.5
795.975,7605.2
797.071,7457.6
798.168,7508.1
799.264,7475.5
800.36,7418.6
801.456,7420.1
802.552,7413.8
803.648,7334.5
804.744,7147.4
805.84,7241.8
806.936,7092.9
808.031,7125.7
809.127,7044.1
810.222,6989.2
811.317,6958.3
812.412,6899.8
813.507,6789.4
814.602,6769.5
815.697,6734.9
816.792,6652.9
817.887,6627.1
818.981,6613.3
820.076,6586.4
821.17,6624.3
822.265,6451.7
823.359,6304.7
824.453,6454.5
825.547,6424.7
826.641,6408.3
827.735,6217.7
828.828,6192.4
829.922,6230.1
831.016,6152.3
832.109,6058.2
833.202,6020.9
834.295,6018.2
835.388,5965.2
836.481,5982.1
837.574,5972.5
838.667,5956.6
839.76,5891.0
840.852,5919.7
841.945,5973.8
843.037,5854.2
844.129,5823.9
845.221,5766.1
846.314,5708.1
847.405,5736.7
848.497,5674.4
849.589,5645.4
850.68,5650.9
851.772,5729.4
852.863,5808.9
853.955,5554.3
855.046,5572.2
856.137,5559.5
857.228,5572.0
858.318,5547.7
859.409,5560.5
860.5,5558.3
861.59,5462.1
862.681,5438.1
863.771,5463.0
864.861,5448.3
865.951,5389.7
867.041,5333.1
868.131,5345.6
869.22,5322.1
870.31,5335.2
871.399,5377.5
872.488,5356.8
873.578,5395.1
874.667,5320.2
875.756,5267.3
876.845,5201.3
877.933,5178.4
879.022,5193.5
880.11,5146.2
881.199,5119.1
882.287,5109.6
883.375,5094.2
884.463,5114.9
885.551,5055.3
886.639,5035.3
887.726,5006.9
888.814,4978.1
889.901,4978.0
890.988,4966.3
892.075,4908.1
893.162,4881.0
894.249,4812.3
895.336,4791.2
896.423,4756.5
897.509,4808.6
898.595,4876.0
899.682,4757.4
900.768,4674.4
901.854,4636.6
902.94,4665.9
904.025,4633.8
905.111,4625.2
906.196,4629.6
907.282,4643.8
908.367,4648.7
909.452,4587.1
910.537,4499.1
911.622,4498.2
912.706,4441.8
913.791,4441.9
914.875,4418.6
915.959,4416.0
917.044,4387.5
918.128,4372.7
919.211,4389.9
920.295,4367.4
921.379,4342.5
922.462,4322.6
923.546,4309.4
924.629,4297.8
925.712,4263.3
926.795,4253.4
927.877,4233.6
928.96,4205.5
930.043,4188.7
931.125,4163.7
932.207,4120.1
933.289,4108.9
934.371,4108.7
935.453,4108.9
936.535,4095.1
937.616,4089.2
938.697,4080.8
939.779,4067.5
940.86,4068.9
941.941,4050.4
943.022,4041.6
944.102,4030.9
945.183,4020.3
946.263,4015.5
947.343,4003.7
948.423,3995.1
949.503,3999.1
950.583,3978.0
951.663,3973.8
952.742,3980.5
953.822,3956.4
954.901,3962.0
955.98,3957.2
957.059,3945.1
958.137,3932.5
959.216,3934.1
960.294,3925.1
961.373,3921.0
962.451,3917.0
963.529,3914.9
964.607,3905.6
965.684,3907.2
966.762,3907.5
967.839,3906.7
968.917,3899.6
969.994,3899.1
971.071,3890.3
972.147,3897.6
973.224,3883.7
974.3,3873.8
975.377,3868.2
976.453,3873.7
977.529,3862.0
978.605,3861.3
979.68,3858.8
980.756,3858.4
981.831,3858.7
982.907,3853.6
983.982,3850.1
985.057,3843.8
986.131,3848.0
987.206,3847.1
988.28,3842.4
989.355,3841.2
990.429,3838.2
991.503,3832.1
992.576,3832.4
993.65,3829.6
994.723,3829.5
995.797,3824.4
996.87,3823.0
997.943,3821.5
999.016,3816.8
1000.09,3815.7
1001.16,3812.7
1002.23,3812.8
1003.31,3810.2
1004.38,3807.3
1005.45,3806.8
1006.52,3802.2
1007.59,3798.5
1008.66,3798.6
1009.73,3796.0
1010.81,3795.3
1011.88,3794.2
1012.95,3790.7
1014.02,3792.4
1015.09,3787.5
1016.16,3791.9
1017.23,3788.0
1018.3,3783.9
1019.37,3785.0
1020.44,3780.2
1021.51,3783.3
1022.58,3780.2
1023.64,3778.9
1024.71,3778.5
1025.78,3779.3
1026.85,3775.9
1027.92,3774.6
1028.99,3770.6
1030.05,3771.8
1031.12,3771.5
1032.19,3772.4
1033.26,3772.1
1034.32,3769.5
1035.39,3770.8
1036.46,3768.3
1037.52,3766.0
1038.59,3770.2
1039.66,3766.4
1040.72,3764.9
1041.79,3763.4
1042.86,3765.2
1043.92,3762.1
1044.99,3762.0
1046.05,3762.4
1047.12,3761.7
1048.18,3761.0
1049.25,3763.7
1050.31,3761.8
1051.37,3760.9
1052.44,3761.9
1053.5,3761.9
1054.57,3761.7
1055.63,3760.3
1056.69,3760.0
1057.76,3760.2
1058.82,3760.1
1059.88,3759.8
1060.95,3758.5
1062.01,3757.8
1063.07,3760.8
1064.13,3759.4
1065.19,3757.4
1066.26,3757.6
1067.32,3756.8
1068.11,3758.2

File: VLFR_07-PET_bio_Raman_b24e2c09.csv
nm,Intensity
791.377,16845.6
792.477,15457.5
793.576,14586.5
794.676,14024.0
795.775,13844.0
796.874,13939.6
797.973,13654.8
799.072,13776.5
800.171,13640.2
801.27,13702.3
802.368,13647.4
803.467,13242.9
804.565,13139.3
805.664,13096.8
806.762,12690.6
807.86,12622.6
808.958,12706.4
810.056,12300.7
811.153,12361.8
812.251,12141.1
813.349,12074.2
814.446,12006.0
815.543,11912.1
816.64,11653.9
817.737,11541.0
818.834,11518.7
819.931,11490.6
821.028,11354.7
822.125,11159.9
823.221,11097.9
824.317,10956.1
825.414,11178.8
826.51,10810.4
827.606,10557.6
828.702,10625.6
829.797,10487.1
830.893,10545.6
831.988,10388.2
833.084,10312.3
834.179,10072.5
835.274,10076.8
836.369,9905.02
837.464,10089.0
838.559,9956.32
839.654,10065.8
840.748,9986.44
841.843,10267.0
842.937,9773.84
844.031,9629.58
845.125,9345.54
846.219,9127.28
847.313,9171.66
848.407,8940.9
849.5,9024.54
850.593,8975.44
851.687,8910.02
852.78,8844.52
853.873,8838.82
854.966,8760.62
856.059,8588.64
857.151,8518.14
858.244,8797.0
859.336,8668.76
860.428,8777.26
861.52,8634.38
862.612,8361.1
863.704,8291.76
864.796,8331.32
865.888,8261.04
866.979,8111.8
868.07,8063.68
869.162,8098.76
870.253,8027.62
871.344,8211.62
872.434,8576.78
873.525,8369.08
874.615,8163.8
875.706,7965.22
876.796,7845.28
877.886,7623.32
878.976,7626.0
880.066,7559.44
881.156,7525.38
882.245,7576.6
883.335,7470.6
884.424,7409.88
885.513,7441.6
886.602,7349.22
887.691,7280.42
888.78,7059.16
889.868,7024.56
890.957,7043.4
892.045,7060.64
893.133,7023.46
894.221,6886.2
895.309,6799.4
896.397,6772.28
897.484,7132.46
898.571,7699.08
899.659,7174.06
900.746,6581.72
901.833,6447.02
902.92,6434.48
904.006,6463.3
905.093,6338.16
906.179,6530.5
907.266,6822.7
908.352,6859.18
909.438,6513.18
910.523,6201.86
911.609,6048.16
912.695,5971.98
913.78,5886.98
914.865,5889.52
915.95,5777.62
917.035,5781.04
918.12,5719.2
919.204,5628.54
920.289,5649.56
921.373,5522.14
922.457,5477.74
923.541,5488.38
924.625,5430.92
925.709,5425.46
926.792,5327.9
927.876,5269.9
928.959,5244.94
930.042,5216.92
931.125,5127.9
932.208,5088.52
933.29,5112.16
934.373,5039.24
935.455,4976.22
936.537,4970.88
937.619,4951.32
938.701,4876.5
939.782,4863.52
940.864,4850.68
941.945,4814.78
943.026,4778.5
944.107,4712.04
945.188,4719.32
946.269,4676.16
947.349,4650.22
948.43,4630.46
949.51,4600.74
950.59,4566.22
951.67,4546.7
952.75,4543.2
953.829,4498.62
954.909,4467.16
955.988,4464.9
957.067,4423.92
958.146,4431.48
959.224,4383.2
960.303,4379.44
961.381,4346.12
962.459,4346.88
963.537,4311.32
964.615,4300.3
965.693,4295.12
966.771,4261.96
967.848,4261.02
968.925,4242.18
970.002,4228.02
971.079,4209.52
972.156,4205.24
973.232,4174.16
974.309,4167.92
975.385,4155.3
976.461,4150.8
977.537,4142.5
978.612,4122.08
979.688,4104.82
980.763,4103.3
981.838,4093.72
982.913,4074.98
983.988,4073.08
985.063,4054.06
986.137,4052.88
987.211,4044.34
988.285,4031.16
989.359,4015.88
990.433,4012.28
991.506,3999.76
992.58,3997.66
993.653,3985.98
994.726,3975.8
995.799,3974.06
996.872,3966.12
997.944,3960.76
999.016,3950.7
1000.09,3946.36
1001.16,3936.98
1002.23,3931.48
1003.3,3921.08
1004.38,3920.56
1005.45,3913.28
1006.52,3909.04
1007.59,3902.7
1008.66,3899.02
1009.73,3894.92
1010.8,3885.8
1011.87,3880.82
1012.94,3879.88
1014.01,3877.22
1015.08,3873.38
1016.15,3869.74
1017.22,3867.46
1018.29,3862.26
1019.36,3860.2
1020.42,3856.42
1021.49,3861.22
1022.56,3867.3
1023.63,3864.72
1024.7,3850.32
1025.76,3844.48
1026.83,3843.66
1027.9,3834.76
1028.97,3828.74
1030.03,3825.74
1031.1,3823.18
1032.17,3822.64
1033.23,3822.84
1034.3,3826.86
1035.36,3827.26
1036.43,3823.32
1037.5,3817.6
1038.56,3810.04
1039.63,3808.84
1040.69,3806.32
1041.76,3803.58
1042.82,3802.58
1043.89,3801.38
1044.95,3798.9
1046.01,3797.54
1047.08,3797.74
1048.14,3796.0
1049.2,3794.58
1050.27,3793.94
1051.33,3795.88
1052.39,3794.34
1053.46,3791.88
1054.52,3791.88
1055.58,3791.74
1056.64,3790.54
1057.7,3790.48
1058.77,3789.4
1059.83,3789.72
1060.89,3789.14
1061.95,3788.5
1063.01,3789.06
1064.07,3787.78
1065.13,3787.5
1066.19,3787.18
1067.25,3786.66
1068.05,3786.5

File: VLFR_07-PET_bio_Raman_b401a67c.csv
nm,Intensity
791.75,5614.15
792.846,5540.5
793.942,5527.9
795.037,5546.15
796.133,5487.95
797.228,5481.55
798.324,5518.8
799.419,5488.6
800.514,5476.75
801.61,5467.45
802.705,5451.75
803.8,5400.35
804.894,5441.65
805.989,5416.55
807.084,5368.45
808.178,5334.25
809.273,5330.0
810.367,5288.85
811.461,5272.35
812.556,5241.25
813.65,5196.9
814.744,5169.5
815.837,5122.0
816.931,5129.45
818.025,5074.05
819.118,5063.7
820.212,5082.85
821.305,5039.0
822.398,4995.2
823.491,4980.95
824.585,5021.7
825.677,4990.35
826.77,4976.05
827.863,4909.4
828.956,4897.45
830.048,4895.55
831.14,4863.65
832.233,4834.1
833.325,4820.5
834.417,4806.75
835.509,4812.9
836.601,4783.25
837.692,4786.35
838.784,4785.75
839.876,4760.95
840.967,4770.3
842.058,4755.5
843.149,4714.65
844.24,4689.75
845.331,4694.6
846.422,4683.4
847.513,4658.45
848.604,4645.75
849.694,4604.95
850.784,4627.7
851.875,4651.2
852.965,4611.0
854.055,4564.0
855.145,4556.9
856.235,4552.0
857.324,4550.95
858.414,4543.95
859.503,4561.2
860.593,4544.3
861.682,4517.3
862.771,4503.5
863.86,4518.75
864.949,4488.1
866.038,4473.35
867.126,4461.8
868.215,4459.9
869.303,4439.2
870.391,4453.25
871.479,4454.2
872.567,4462.2
873.655,4444.0
874.743,4421.1
875.831,4407.35
876.918,4408.3
878.006,4402.8
879.093,4375.15
880.18,4371.05
881.267,4354.7
882.354,4378.3
883.441,4362.85
884.527,4348.8
885.614,4328.95
886.7,4316.45
887.786,4311.75
888.872,4317.0
889.958,4282.05
891.044,4277.0
892.13,4266.2
893.216,4240.55
894.301,4237.6
895.386,4215.5
896.472,4188.7
897.557,4213.9
898.642,4217.35
899.726,4179.4
900.811,4146.6
901.896,4129.95
902.98,4153.5
904.064,4153.4
905.148,4139.9
906.232,4136.1
907.316,4137.4
908.4,4121.55
909.484,4100.7
910.567,4089.95
911.65,4074.15
912.734,4059.05
913.817,4052.75
914.9,4041.05
915.982,4026.75
917.065,4034.2
918.147,4024.4
919.23,4024.35
920.312,4012.8
921.394,4011.7
922.476,3993.1
923.558,3988.95
924.639,3977.4
925.721,3983.2
926.802,3963.4
927.884,3952.55
928.965,3938.0
930.046,3925.7
931.126,3920.35
932.207,3912.15
933.288,3906.2
934.368,3899.4
935.448,3894.45
936.528,3888.5
937.608,3885.25
938.688,3884.2
939.767,3879.45
940.847,3873.8
941.926,3864.85
943.005,3868.25
944.084,3861.8
945.163,3858.0
946.242,3852.65
947.321,3850.9
948.399,3844.3
949.477,3839.7
950.556,3837.55
951.634,3837.1
952.711,3836.6
953.789,3832.5
954.867,3826.6
955.944,3823.2
957.021,3823.2
958.098,3818.8
959.175,3815.6
960.252,3815.6
961.328,3813.65
962.405,3812.4
963.481,3810.8
964.557,3808.05
965.633,3809.4
966.709,3807.4
967.785,3804.05
968.86,3804.25
969.936,3802.15
971.011,3800.2
972.086,3800.05
973.161,3796.8
974.235,3790.2
975.31,3791.6
976.384,3790.25
977.459,3791.1
978.533,3786.55
979.607,3786.95
980.68,3784.9
981.754,3785.4
982.827,3783.5
983.901,3782.35
984.974,3780.95
986.047,3782.45
987.119,3782.95
988.192,3777.35
989.264,3776.1
990.337,3776.2
991.409,3774.9
992.481,3774.0
993.553,3773.6
994.624,3772.8
995.696,3773.3
996.767,3771.15
997.838,3769.8
998.909,3771.2
999.98,3768.55
1001.05,3766.7
1002.12,3766.65
1003.19,3763.85
1004.26,3763.95
1005.33,3761.7
1006.4,3761.15
1007.47,3761.0
1008.54,3760.6
1009.61,3761.15
1010.68,3759.65
1011.75,3759.1
1012.82,3758.15
1013.88,3756.95
1014.95,3756.2
1016.02,3757.0
1017.09,3755.25
1018.16,3754.3
1019.22,3754.3
1020.29,3753.8
1021.36,3753.45
1022.43,3752.15
1023.49,3750.15
1024.56,3752.35
1025.63,3752.9
1026.69,3749.4
1027.76,3749.55
1028.83,3748.9
1029.89,3748.7
1030.96,3747.45
1032.02,3748.65
1033.09,3748.25
1034.15,3748.0
1035.22,3748.75
1036.28,3747.75
1037.35,3747.85
1038.41,3746.75
1039.48,3747.2
1040.54,3745.2
1041.6,3746.2
1042.67,3746.5
1043.73,3745.35
1044.79,3744.85
1045.86,3744.25
1046.92,3745.3
1047.98,3744.35
1049.05,3743.45
1050.11,3743.0
1051.17,3743.7
1052.23,3743.4
1053.29,3744.2
1054.36,3742.65
1055.42,3742.75
1056.48,3743.95
1057.54,3742.6
1058.6,3743.1
1059.66,3743.15
1060.72,3742.1
1061.78,3741.25
1062.84,3743.1
1063.9,3743.3
1064.96,3741.9
1066.02,3740.9
1067.08,3741.4
1067.88,3740.35

File: VLFR_07-PET_bio_Raman_b3386f47.csv
nm,Intensity
791.377,14297.0
792.477,12879.3
793.576,12047.9
794.676,11502.8
795.775,11384.4
796.874,11222.9
797.973,11374.1
799.072,11284.8
800.171,11120.7
801.27,11235.5
802.368,11213.3
803.467,10909.0
804.565,10695.4
805.664,10709.6
806.762,10601.6
807.86,10485.6
808.958,10301.2
810.056,10169.5
811.153,10200.6
812.251,9980.8
813.349,9850.16
814.446,9722.86
815.543,9657.96
816.64,9456.86
817.737,9478.06
818.834,9367.6
819.931,9294.68
821.028,9181.22
822.125,9088.86
823.221,9012.12
824.317,8870.72
825.414,9022.4
826.51,9038.54
827.606,8806.28
828.702,8620.3
829.797,8554.78
830.893,8690.26
831.988,8350.94
833.084,8380.12
834.179,8283.26
835.274,8200.12
836.369,8175.08
837.464,8292.84
838.559,8337.02
839.654,8170.76
840.748,8479.8
841.843,8451.42
842.937,8166.42
844.031,7964.82
845.125,7747.94
846.219,7628.0
847.313,7585.96
848.407,7534.96
849.5,7461.16
850.593,7404.74
851.687,7426.06
852.78,7349.16
853.873,7308.88
854.966,7308.2
856.059,7078.22
857.151,7129.44
858.244,7250.9
859.336,7335.08
860.428,7343.34
861.52,7072.02
862.612,6903.52
863.704,6897.74
864.796,6977.34
865.888,6764.42
866.979,6722.06
868.07,6720.98
869.162,6732.1
870.253,6727.46
871.344,6925.9
872.434,7131.06
873.525,7187.5
874.615,6846.98
875.706,6607.66
876.796,6538.3
877.886,6534.74
878.976,6359.9
880.066,6442.74
881.156,6364.26
882.245,6363.6
883.335,6253.68
884.424,6310.12
885.513,6337.16
886.602,6209.78
887.691,6184.34
888.78,6081.4
889.868,6032.74
890.957,6018.62
892.045,6069.22
893.133,6016.1
894.221,5825.6
895.309,5901.3
896.397,5858.4
897.484,6109.84
898.571,6788.54
899.659,6337.8
900.746,5711.82
901.833,5681.62
902.92,5607.44
904.006,5536.8
905.093,5600.44
906.179,5706.94
907.266,6140.44
908.352,6245.4
909.438,5726.94
910.523,5471.36
911.609,5312.6
912.695,5264.3
913.78,5234.96
914.865,5213.08
915.95,5164.1
917.035,5131.52
918.12,5081.46
919.204,5065.5
920.289,5020.88
921.373,4988.24
922.457,4942.64
923.541,4920.86
924.625,4863.7
925.709,4837.14
926.792,4814.34
927.876,4804.52
928.959,4754.08
930.042,4731.08
931.125,4695.94
932.208,4666.14
933.29,4627.92
934.373,4630.38
935.455,4585.78
936.537,4551.06
937.619,4522.58
938.701,4508.1
939.782,4495.78
940.864,4461.74
941.945,4447.78
943.026,4405.3
944.107,4415.28
945.188,4379.5
946.269,4363.06
947.349,4340.34
948.43,4333.1
949.51,4309.32
950.59,4303.24
951.67,4269.82
952.75,4267.54
953.829,4246.08
954.909,4224.5
955.988,4211.98
957.067,4204.84
958.146,4195.42
959.224,4171.14
960.303,4167.92
961.381,4134.02
962.459,4147.6
963.537,4126.4
964.615,4114.14
965.693,4113.74
966.771,4100.9
967.848,4088.34
968.925,4084.78
970.002,4065.46
971.079,4051.86
972.156,4043.96
973.232,4042.52
974.309,4028.96
975.385,4023.54
976.461,4018.1
977.537,4004.44
978.612,4003.28
979.688,3989.72
980.763,3987.22
981.838,3972.9
982.913,3973.94
983.988,3969.42
985.063,3961.98
986.137,3957.02
987.211,3947.68
988.285,3947.6
989.359,3937.02
990.433,3930.32
991.506,3920.84
992.58,3921.5
993.653,3914.44
994.726,3908.62
995.799,3907.62
996.872,3901.44
997.944,3893.22
999.016,3892.5
1000.09,3889.48
1001.16,3880.74
1002.23,3878.9
1003.3,3875.7
1004.38,3872.6
1005.45,3868.14
1006.52,3863.56
1007.59,3861.56
1008.66,3856.28
1009.73,3852.78
1010.8,3850.3
1011.87,3848.36
1012.94,3841.26
1014.01,3844.64
1015.08,3844.36
1016.15,3839.34
1017.22,3836.74
1018.29,3833.16
1019.36,3835.16
1020.42,3834.12
1021.49,3838.6
1022.56,3842.5
1023.63,3838.1
1024.7,3833.52
1025.76,3827.98
1026.83,3819.94
1027.9,3818.04
1028.97,3813.58
1030.03,3811.32
1031.1,3807.22
1032.17,3807.28
1033.23,3809.58
1034.3,3813.7
1035.36,3814.2
1036.43,3811.54
1037.5,3803.96
1038.56,3799.68
1039.63,3798.22
1040.69,3796.7
1041.76,3794.78
1042.82,3794.36
1043.89,3793.02
1044.95,3790.96
1046.01,3789.62
1047.08,3790.64
1048.14,3788.84
1049.2,3788.5
1050.27,3787.72
1051.33,3788.06
1052.39,3788.1
1053.46,3786.88
1054.52,3786.64
1055.58,3786.6
1056.64,3786.7
1057.7,3786.38
1058.77,3784.5
1059.83,3785.6
1060.89,3785.06
1061.95,3784.66
1063.01,3784.34
1064.07,3784.76
1065.13,3784.32
1066.19,3784.76
1067.25,3783.54
1068.05,3782.44