Folder: MPX_specDB/spectra (part 85)

File: VLFR_06-PET_nobio_Raman_9fa2e992.csv
nm,Intensity
526.547,832.3
527.094,832.1
527.641,832.2
528.188,832.6
528.734,832.5
529.281,832.5
529.827,832.4
530.373,833.6
530.92,832.4
531.466,834.0
532.011,838.7
532.557,833.0
533.103,833.3
533.648,847.0
534.193,1704.2
534.738,1455.3
535.283,1236.6
535.828,1102.3
536.373,1020.5
536.917,994.0
537.462,989.7
538.006,979.6
538.55,985.4
539.094,986.8
539.638,997.2
540.182,999.8
540.726,973.5
541.269,968.5
541.812,972.5
542.356,970.6
542.899,971.6
543.442,979.3
543.985,982.2
544.527,982.8
545.07,987.4
545.612,992.2
546.155,994.2
546.697,996.0
547.239,994.3
547.781,999.0
548.323,997.0
548.865,1002.0
549.406,1009.1
549.948,1010.1
550.489,1032.6
551.03,1022.3
551.572,1019.4
552.113,1025.6
552.654,1038.0
553.194,1037.4
553.735,1040.1
554.276,1036.4
554.816,1049.7
555.356,1052.7
555.896,1088.7
556.437,1091.7
556.977,1102.5
557.516,1218.2
558.056,1125.0
558.596,1123.9
559.135,1094.4
559.675,1081.8
560.214,1079.9
560.753,1088.4
561.292,1094.2
561.831,1099.9
562.37,1107.2
562.909,1121.2
563.448,1134.3
563.986,1120.4
564.525,1135.8
565.063,1172.4
565.601,1223.6
566.139,1225.8
566.677,1153.5
567.215,1146.3
567.753,1206.2
568.291,1161.6
568.828,1165.0
569.366,1176.8
569.903,1191.8
570.441,1228.9
570.978,1326.1
571.515,1397.8
572.052,1289.9
572.589,1226.8
573.126,1214.7
573.662,1224.5
574.199,1245.1
574.735,1227.9
575.272,1266.3
575.808,1248.1
576.344,1270.7
576.88,1280.8
577.416,1261.8
577.952,1261.6
578.488,1266.8
579.024,1269.8
579.559,1266.1
580.095,1276.5
580.63,1283.8
581.166,1292.4
581.701,1384.4
582.236,2209.0
582.771,1341.9
583.306,1317.2
583.841,1318.8
584.376,1322.3
584.911,1340.5
585.445,1444.9
585.98,1829.3
586.514,1581.2
587.048,1375.3
587.583,1351.8
588.117,1350.3
588.651,1355.4
589.185,1347.1
589.719,1355.5
590.253,1367.8
590.786,1371.0
591.32,1360.4
591.853,1372.9
592.387,1368.9
592.92,1374.2
593.454,1368.6
593.987,1365.3
594.52,1379.5
595.053,1379.0
595.586,1387.8
596.119,1395.7
596.651,1401.8
597.184,1406.5
597.717,1397.3
598.249,1408.9
598.782,1409.8
599.314,1414.8
599.846,1411.3
600.379,1412.6
600.911,1417.9
601.443,1404.4
601.975,1426.8
602.507,1417.0
603.038,1418.6
603.57,1427.0
604.102,1429.5
604.633,1425.0
605.165,1416.9
605.696,1424.4
606.228,1424.6
606.759,1427.5
607.29,1417.9
607.821,1435.3
608.352,1435.4
608.883,1441.7
609.414,1438.3
609.945,1436.3
610.476,1436.8
611.006,1436.8
611.537,1436.8
612.067,1439.7
612.598,1459.0
613.128,1463.2
613.659,1461.8
614.189,1474.9
614.719,1458.3
615.249,1468.6
615.779,1471.5
616.309,1472.8
616.839,1479.2
617.369,1483.2
617.899,1488.5
618.428,1507.1
618.958,1497.8
619.487,1497.9
620.017,1500.4
620.546,1497.8
621.076,1497.3
621.605,1501.3
622.134,1509.2
622.663,1514.0
623.193,1529.5
623.722,1533.5
624.251,1537.3
624.78,1550.5
625.308,1545.7
625.837,1530.5
626.366,1549.7
626.895,1554.0
627.423,1555.7
627.952,1569.7
628.48,1583.7
629.009,1610.5
629.537,1626.6
630.065,1614.9
630.594,1634.8
631.122,1689.8
631.65,1789.5
632.178,1775.2
632.706,1708.3
633.234,1699.3
633.762,1693.7
634.29,1682.1
634.818,1672.9
635.346,1671.4
635.873,1748.6
636.401,1863.0
636.929,1832.0
637.456,1728.8
637.984,1712.6
638.511,1711.3
639.039,1713.3
639.566,1723.3
640.093,1725.3
640.62,1731.7
641.148,1721.8
641.675,1753.8
642.202,1770.4
642.729,1761.8
643.256,1749.7
643.783,1751.1
644.31,1741.0
644.837,1751.7
645.364,1756.2
645.891,1758.3
646.417,1768.7
646.944,1765.5
647.471,1775.5
647.997,1782.8
648.524,1766.5
649.051,1784.6
649.577,1770.6
650.104,1765.7
650.63,1776.0
651.157,1787.5
651.683,1791.5
652.209,1789.3
652.736,1788.0
653.262,1795.1
653.788,1798.6
654.314,1798.3
654.84,1783.2
655.366,1793.0
655.893,1796.9
656.419,1799.5
656.945,1797.5
657.471,1796.2
657.997,1804.1
658.522,1809.3
659.048,1801.1
659.574,1807.0
660.1,1809.7
660.626,1790.7
661.152,1791.6
661.677,1790.4
662.203,1777.4
662.729,1785.6
663.123,1770.8

File: VLFR_06-PET_nobio_Raman_10fc0e97.csv
nm,Intensity
526.486,829.1
527.033,831.8
527.579,831.1
528.126,830.3
528.672,829.8
529.219,831.6
529.765,830.2
530.311,830.9
530.857,829.4
531.403,829.6
531.948,833.2
532.494,831.1
533.039,830.3
533.585,839.0
534.13,2158.0
534.675,1834.1
535.22,1473.4
535.764,1264.2
536.309,1129.1
536.854,1073.8
537.398,1058.3
537.942,1057.1
538.486,1065.5
539.03,1056.9
539.574,1075.4
540.118,1087.4
540.662,1048.6
541.205,1033.9
541.749,1035.0
542.292,1028.7
542.835,1039.3
543.378,1037.2
543.921,1049.5
544.464,1043.3
545.006,1050.9
545.549,1052.8
546.091,1050.8
546.634,1053.8
547.176,1054.2
547.718,1057.7
548.26,1053.8
548.802,1065.9
549.343,1061.9
549.885,1063.1
550.426,1085.4
550.968,1105.4
551.509,1077.0
552.05,1082.3
552.591,1091.0
553.132,1113.6
553.673,1101.1
554.214,1098.0
554.754,1101.8
555.295,1108.4
555.835,1161.7
556.375,1169.9
556.915,1179.3
557.455,1318.7
557.995,1213.5
558.535,1205.6
559.075,1165.6
559.614,1136.4
560.154,1145.1
560.693,1140.2
561.232,1147.2
561.772,1145.4
562.311,1172.4
562.85,1191.3
563.388,1200.0
563.927,1184.9
564.466,1201.9
565.004,1247.1
565.543,1320.0
566.081,1334.9
566.619,1235.3
567.157,1217.8
567.695,1298.6
568.233,1232.3
568.771,1225.8
569.309,1242.6
569.846,1271.3
570.384,1327.4
570.921,1460.4
571.458,1598.3
571.995,1428.9
572.532,1317.6
573.069,1291.0
573.606,1297.8
574.143,1338.2
574.68,1312.9
575.216,1346.3
575.753,1327.0
576.289,1362.9
576.825,1390.3
577.361,1361.1
577.897,1341.1
578.433,1349.5
578.969,1357.4
579.505,1365.6
580.041,1372.3
580.576,1380.5
581.112,1417.0
581.647,1493.1
582.183,2708.8
582.718,1491.6
583.253,1424.0
583.788,1419.0
584.323,1431.6
584.858,1453.1
585.392,1541.8
585.927,2126.3
586.462,1872.4
586.996,1522.8
587.53,1471.5
588.065,1466.3
588.599,1464.5
589.133,1456.7
589.667,1451.3
590.201,1468.2
590.735,1468.1
591.268,1479.3
591.802,1485.0
592.335,1476.5
592.869,1479.3
593.402,1475.4
593.936,1490.6
594.469,1497.2
595.002,1495.7
595.535,1496.4
596.068,1507.5
596.601,1512.0
597.133,1510.1
597.666,1507.0
598.199,1521.5
598.731,1518.9
599.264,1525.3
599.796,1535.5
600.328,1519.8
600.86,1533.6
601.393,1528.6
601.925,1524.3
602.457,1522.4
602.988,1535.1
603.52,1536.5
604.052,1539.1
604.583,1541.6
605.115,1532.2
605.646,1519.5
606.178,1526.3
606.709,1521.6
607.24,1522.8
607.771,1534.4
608.302,1536.6
608.833,1542.7
609.364,1552.9
609.895,1539.5
610.426,1538.7
610.957,1546.2
611.487,1550.5
612.018,1551.1
612.548,1567.9
613.078,1578.8
613.609,1585.8
614.139,1585.2
614.669,1591.7
615.199,1598.7
615.729,1588.5
616.259,1587.6
616.789,1596.0
617.319,1605.2
617.849,1614.6
618.378,1623.3
618.908,1618.0
619.437,1612.4
619.967,1611.3
620.496,1610.9
621.025,1617.6
621.555,1624.2
622.084,1628.8
622.613,1647.0
623.142,1653.1
623.671,1655.7
624.2,1674.7
624.729,1676.6
625.258,1681.1
625.786,1676.8
626.315,1681.4
626.844,1691.8
627.372,1691.6
627.901,1708.8
628.429,1731.4
628.957,1773.5
629.486,1766.0
630.014,1763.6
630.542,1774.7
631.07,1844.3
631.598,2000.7
632.126,1997.3
632.654,1915.7
633.182,1892.3
633.71,1884.1
634.237,1853.9
634.765,1841.0
635.293,1863.7
635.82,1930.0
636.348,2080.7
636.875,2101.4
637.403,1940.9
637.93,1895.2
638.458,1895.3
638.985,1909.3
639.512,1918.8
640.039,1924.5
640.566,1935.5
641.093,1941.7
641.62,1940.1
642.147,1963.4
642.674,1952.3
643.201,1956.7
643.728,1951.0
644.255,1954.6
644.781,1966.9
645.308,1964.4
645.835,1984.0
646.361,1985.4
646.888,1999.0
647.414,1992.5
647.941,2003.2
648.467,2008.5
648.993,2005.7
649.52,1998.9
650.046,2008.1
650.572,2006.4
651.098,2004.8
651.625,2006.6
652.151,2026.8
652.677,2014.8
653.203,2034.4
653.729,2034.2
654.255,2043.3
654.78,2033.7
655.306,2040.5
655.832,2040.6
656.358,2038.9
656.884,2034.0
657.409,2035.3
657.935,2035.7
658.461,2032.5
658.986,2044.0
659.512,2052.9
660.037,2050.3
660.563,2041.4
661.088,2032.9
661.614,2010.1
662.139,2010.4
662.664,2024.5
663.058,2016.7

File: VLFR_06-PET_nobio_Raman_12d7b5af.csv
nm,Intensity
526.5,830.2
527.047,828.5
527.594,830.9
528.14,829.1
528.687,828.3
529.233,829.6
529.779,828.9
530.325,829.3
530.871,828.3
531.417,828.4
531.962,831.5
532.508,828.1
533.053,830.0
533.599,839.0
534.144,2238.1
534.689,1848.1
535.234,1450.1
535.778,1215.3
536.323,1077.8
536.867,1013.8
537.412,990.5
537.956,979.4
538.5,988.2
539.044,984.7
539.588,1000.7
540.132,1002.3
540.675,965.2
541.219,948.3
541.762,944.2
542.305,943.8
542.848,943.8
543.391,944.4
543.934,954.6
544.477,955.3
545.02,953.8
545.562,958.7
546.105,953.9
546.647,958.1
547.189,963.6
547.731,964.9
548.273,964.5
548.815,972.7
549.356,967.4
549.898,972.8
550.439,991.2
550.981,1003.2
551.522,988.5
552.063,988.4
552.604,999.9
553.145,1019.9
553.686,999.6
554.226,991.9
554.767,1005.6
555.307,1013.2
555.848,1077.3
556.388,1080.5
556.928,1102.8
557.468,1257.6
558.008,1131.0
558.547,1123.7
559.087,1070.4
559.626,1039.2
560.166,1040.2
560.705,1045.8
561.244,1057.3
561.783,1057.5
562.322,1074.2
562.861,1087.5
563.4,1095.9
563.939,1080.2
564.477,1092.9
565.015,1149.1
565.554,1215.0
566.092,1222.6
566.63,1122.0
567.168,1098.6
567.706,1199.4
568.244,1123.9
568.781,1108.7
569.319,1124.1
569.857,1151.4
570.394,1212.3
570.931,1357.3
571.468,1502.5
572.005,1302.8
572.542,1191.3
573.079,1162.4
573.616,1168.4
574.153,1202.7
574.689,1185.4
575.226,1215.2
575.762,1185.8
576.298,1227.6
576.834,1239.4
577.371,1200.8
577.907,1196.4
578.442,1200.9
578.978,1204.3
579.514,1204.1
580.049,1214.4
580.585,1224.2
581.12,1246.3
581.656,1334.3
582.191,2683.3
582.726,1301.8
583.261,1255.2
583.796,1254.8
584.331,1253.5
584.865,1282.1
585.4,1387.5
585.935,1998.6
586.469,1732.1
587.004,1345.2
587.538,1281.7
588.072,1278.2
588.606,1280.1
589.14,1285.3
589.674,1278.0
590.208,1269.0
590.742,1286.0
591.275,1288.3
591.809,1290.5
592.342,1288.3
592.876,1287.4
593.409,1295.6
593.942,1294.4
594.476,1298.6
595.009,1305.0
595.542,1310.4
596.075,1310.7
596.607,1318.2
597.14,1319.6
597.673,1315.8
598.205,1323.8
598.738,1332.7
599.27,1337.7
599.803,1328.9
600.335,1330.1
600.867,1331.9
601.399,1339.8
601.931,1330.9
602.463,1338.9
602.995,1349.6
603.527,1343.5
604.058,1344.5
604.59,1343.7
605.122,1342.6
605.653,1342.6
606.184,1341.9
606.716,1337.8
607.247,1344.5
607.778,1354.2
608.309,1351.3
608.84,1354.6
609.371,1349.6
609.902,1344.5
610.433,1348.3
610.964,1362.3
611.494,1359.1
612.025,1365.9
612.556,1368.7
613.086,1378.8
613.616,1381.5
614.147,1387.8
614.677,1394.0
615.207,1394.1
615.737,1395.4
616.267,1400.7
616.797,1400.8
617.327,1411.3
617.857,1423.6
618.387,1423.0
618.917,1416.5
619.446,1419.6
619.976,1412.1
620.505,1409.8
621.035,1414.7
621.564,1428.8
622.093,1436.2
622.623,1438.7
623.152,1444.9
623.681,1440.0
624.21,1455.0
624.739,1472.5
625.268,1467.1
625.797,1467.8
626.326,1479.4
626.855,1475.3
627.383,1484.1
627.912,1495.7
628.441,1515.1
628.969,1546.8
629.498,1547.2
630.026,1557.4
630.554,1568.6
631.083,1626.2
631.611,1771.6
632.139,1762.2
632.667,1669.5
633.195,1659.5
633.724,1649.5
634.252,1616.8
634.779,1600.2
635.307,1627.0
635.835,1704.8
636.363,1839.1
636.891,1848.5
637.418,1689.5
637.946,1647.1
638.474,1667.8
639.001,1672.9
639.529,1656.6
640.056,1673.7
640.583,1685.3
641.111,1680.9
641.638,1687.5
642.165,1702.2
642.692,1719.9
643.22,1688.1
643.747,1698.1
644.274,1705.1
644.801,1712.6
645.328,1721.9
645.854,1720.7
646.381,1720.8
646.908,1733.7
647.435,1724.7
647.962,1736.0
648.488,1737.7
649.015,1745.3
649.542,1735.5
650.068,1735.0
650.595,1739.3
651.121,1746.3
651.648,1753.5
652.174,1757.7
652.7,1756.9
653.227,1757.8
653.753,1756.2
654.279,1789.2
654.805,1768.3
655.331,1782.7
655.858,1769.0
656.384,1766.7
656.91,1773.8
657.436,1769.9
657.962,1785.4
658.488,1779.6
659.013,1771.2
659.539,1769.3
660.065,1779.5
660.591,1773.9
661.117,1772.4
661.642,1765.8
662.168,1767.6
662.694,1770.2
663.088,1761.1

File: VLFR_06-PET_nobio_Raman_14f9a564.csv
nm,Intensity
526.486,830.9
527.033,829.7
527.579,831.4
528.126,829.4
528.672,829.6
529.219,830.0
529.765,831.3
530.311,829.8
530.857,829.1
531.403,829.7
531.948,832.4
532.494,831.5
533.039,830.4
533.585,839.5
534.13,2283.9
534.675,1900.6
535.22,1509.8
535.764,1265.7
536.309,1111.9
536.854,1059.2
537.398,1029.1
537.942,1023.8
538.486,1033.8
539.03,1026.6
539.574,1045.7
540.118,1056.2
540.662,1010.3
541.205,998.9
541.749,992.4
542.292,994.2
542.835,996.3
543.378,1000.1
543.921,1009.2
544.464,1009.6
545.006,1013.1
545.549,1015.9
546.091,1020.2
546.634,1020.3
547.176,1028.0
547.718,1029.8
548.26,1033.5
548.802,1038.8
549.343,1040.1
549.885,1039.3
550.426,1060.0
550.968,1083.2
551.509,1058.3
552.05,1061.4
552.591,1066.8
553.132,1096.8
553.673,1071.2
554.214,1076.8
554.754,1081.8
555.295,1096.1
555.835,1164.9
556.375,1166.1
556.915,1181.1
557.455,1336.2
557.995,1215.3
558.535,1207.4
559.075,1158.5
559.614,1130.6
560.154,1130.2
560.693,1136.9
561.232,1147.1
561.772,1148.1
562.311,1171.7
562.85,1188.8
563.388,1202.9
563.927,1184.5
564.466,1205.9
565.004,1256.9
565.543,1332.0
566.081,1343.8
566.619,1227.9
567.157,1214.8
567.695,1310.5
568.233,1237.2
568.771,1231.2
569.309,1242.2
569.846,1278.1
570.384,1329.4
570.921,1487.3
571.458,1622.6
571.995,1433.0
572.532,1322.6
573.069,1298.4
573.606,1288.8
574.143,1334.4
574.68,1312.1
575.216,1353.0
575.753,1324.4
576.289,1362.9
576.825,1378.8
577.361,1350.9
577.897,1338.4
578.433,1347.4
578.969,1351.1
579.505,1354.1
580.041,1372.7
580.576,1371.3
581.112,1396.6
581.647,1475.6
582.183,2828.6
582.718,1468.0
583.253,1417.5
583.788,1413.9
584.323,1427.4
584.858,1451.4
585.392,1550.2
585.927,2193.8
586.462,1923.2
586.996,1511.5
587.53,1466.8
588.065,1460.0
588.599,1465.5
589.133,1449.3
589.667,1465.2
590.201,1460.3
590.735,1462.4
591.268,1474.8
591.802,1476.4
592.335,1474.9
592.869,1468.0
593.402,1472.9
593.936,1485.3
594.469,1487.5
595.002,1495.1
595.535,1486.0
596.068,1508.8
596.601,1511.5
597.133,1506.6
597.666,1525.1
598.199,1522.4
598.731,1524.6
599.264,1526.9
599.796,1536.7
600.328,1533.7
600.86,1528.7
601.393,1527.1
601.925,1532.2
602.457,1542.7
602.988,1530.7
603.52,1545.3
604.052,1558.2
604.583,1542.7
605.115,1542.9
605.646,1536.9
606.178,1529.4
606.709,1535.4
607.24,1535.1
607.771,1543.6
608.302,1558.1
608.833,1547.9
609.364,1541.7
609.895,1558.3
610.426,1557.4
610.957,1556.6
611.487,1558.6
612.018,1557.8
612.548,1571.4
613.078,1590.9
613.609,1604.7
614.139,1597.4
614.669,1614.6
615.199,1605.1
615.729,1609.5
616.259,1607.2
616.789,1619.0
617.319,1618.1
617.849,1638.2
618.378,1647.2
618.908,1646.0
619.437,1635.9
619.967,1632.2
620.496,1640.1
621.025,1652.7
621.555,1636.7
622.084,1647.1
622.613,1669.1
623.142,1672.9
623.671,1679.2
624.2,1685.8
624.729,1704.0
625.258,1703.7
625.786,1704.5
626.315,1715.5
626.844,1721.9
627.372,1726.4
627.901,1727.3
628.429,1772.5
628.957,1811.5
629.486,1822.4
630.014,1816.6
630.542,1805.3
631.07,1891.7
631.598,2060.4
632.126,2054.4
632.654,1967.0
633.182,1940.2
633.71,1930.0
634.237,1892.1
634.765,1891.0
635.293,1912.7
635.82,1971.6
636.348,2128.8
636.875,2158.3
637.403,1981.1
637.93,1955.2
638.458,1949.7
638.985,1956.0
639.512,1967.8
640.039,1975.3
640.566,1987.9
641.093,1999.8
641.62,2001.3
642.147,2014.6
642.674,2037.2
643.201,2004.6
643.728,2012.9
644.255,2022.8
644.781,2015.9
645.308,2012.4
645.835,2028.7
646.361,2043.0
646.888,2055.7
647.414,2065.2
647.941,2070.6
648.467,2045.9
648.993,2059.0
649.52,2061.8
650.046,2061.6
650.572,2051.8
651.098,2081.2
651.625,2079.8
652.151,2086.6
652.677,2099.7
653.203,2098.5
653.729,2109.1
654.255,2100.7
654.78,2091.8
655.306,2100.0
655.832,2089.6
656.358,2105.5
656.884,2111.8
657.409,2109.7
657.935,2105.0
658.461,2114.9
658.986,2109.6
659.512,2121.4
660.037,2129.9
660.563,2116.2
661.088,2106.0
661.614,2096.0
662.139,2078.3
662.664,2104.4
663.058,2093.9

File: VLFR_06-PET_nobio_Raman_18f80816.csv
nm,Intensity
526.5,828.7
527.047,828.5
527.594,829.2
528.14,829.7
528.687,828.9
529.233,828.8
529.779,829.6
530.325,828.5
530.871,828.1
531.417,827.9
531.962,838.4
532.508,831.8
533.053,828.8
533.599,829.2
534.144,1005.5
534.689,973.1
535.234,942.9
535.778,931.1
536.323,915.3
536.867,913.7
537.412,912.3
537.956,911.4
538.5,913.0
539.044,912.6
539.588,917.5
540.132,918.6
540.675,921.1
541.219,919.0
541.762,916.8
542.305,917.6
542.848,923.7
543.391,924.8
543.934,927.0
544.477,927.4
545.02,928.9
545.562,930.6
546.105,934.2
546.647,931.3
547.189,937.1
547.731,932.1
548.273,940.3
548.815,939.3
549.356,938.9
549.898,941.1
550.439,946.6
550.981,951.3
551.522,943.5
552.063,946.3
552.604,946.4
553.145,955.1
553.686,951.6
554.226,952.7
554.767,955.3
555.307,956.8
555.848,960.4
556.388,961.3
556.928,963.9
557.468,982.2
558.008,965.3
558.547,973.3
559.087,970.4
559.626,969.5
560.166,969.1
560.705,972.7
561.244,972.7
561.783,968.3
562.322,973.8
562.861,980.8
563.4,985.4
563.939,985.9
564.477,989.4
565.015,1004.4
565.554,1006.8
566.092,1004.3
566.63,993.0
567.168,992.4
567.706,994.6
568.244,993.7
568.781,994.7
569.319,998.9
569.857,1000.3
570.394,1013.3
570.931,1021.9
571.468,1037.5
572.005,1018.7
572.542,1014.4
573.079,1015.9
573.616,1013.7
574.153,1021.3
574.689,1019.2
575.226,1024.8
575.762,1022.3
576.298,1029.4
576.834,1023.6
577.371,1028.0
577.907,1020.1
578.442,1024.6
578.978,1021.3
579.514,1030.4
580.049,1031.0
580.585,1030.3
581.12,1029.4
581.656,1043.3
582.191,1160.4
582.726,1041.2
583.261,1043.1
583.796,1043.5
584.331,1048.7
584.865,1040.6
585.4,1059.2
585.935,1105.4
586.469,1085.5
587.004,1056.8
587.538,1055.0
588.072,1053.6
588.606,1055.0
589.14,1051.6
589.674,1052.1
590.208,1050.3
590.742,1058.2
591.275,1056.8
591.809,1063.2
592.342,1053.1
592.876,1055.8
593.409,1063.1
593.942,1056.0
594.476,1056.5
595.009,1057.3
595.542,1066.3
596.075,1062.6
596.607,1063.4
597.14,1061.9
597.673,1066.8
598.205,1064.8
598.738,1064.2
599.27,1076.0
599.803,1071.2
600.335,1064.7
600.867,1070.5
601.399,1073.1
601.931,1064.6
602.463,1074.0
602.995,1065.8
603.527,1075.6
604.058,1077.9
604.59,1071.0
605.122,1071.5
605.653,1069.2
606.184,1063.5
606.716,1071.0
607.247,1069.9
607.778,1067.0
608.309,1074.9
608.84,1079.8
609.371,1076.1
609.902,1073.7
610.433,1072.2
610.964,1070.7
611.494,1074.0
612.025,1073.8
612.556,1069.8
613.086,1080.7
613.616,1078.2
614.147,1086.2
614.677,1080.5
615.207,1080.4
615.737,1087.9
616.267,1084.9
616.797,1082.0
617.327,1086.3
617.857,1085.9
618.387,1085.2
618.917,1091.8
619.446,1088.6
619.976,1085.9
620.505,1087.4
621.035,1086.2
621.564,1089.8
622.093,1087.4
622.623,1087.6
623.152,1092.1
623.681,1096.9
624.21,1092.7
624.739,1101.5
625.268,1102.7
625.797,1100.7
626.326,1104.2
626.855,1102.3
627.383,1111.0
627.912,1114.6
628.441,1117.0
628.969,1123.3
629.498,1122.6
630.026,1127.5
630.554,1121.4
631.083,1129.3
631.611,1145.1
632.139,1146.2
632.667,1132.5
633.195,1131.8
633.724,1129.4
634.252,1129.1
634.779,1127.8
635.307,1129.0
635.835,1139.5
636.363,1156.4
636.891,1158.8
637.418,1142.1
637.946,1140.2
638.474,1137.2
639.001,1136.7
639.529,1141.6
640.056,1142.0
640.583,1140.3
641.111,1149.6
641.638,1150.6
642.165,1148.8
642.692,1153.1
643.22,1150.7
643.747,1147.8
644.274,1145.0
644.801,1142.5
645.328,1145.6
645.854,1148.9
646.381,1149.8
646.908,1155.6
647.435,1156.5
647.962,1160.2
648.488,1154.2
649.015,1160.2
649.542,1156.7
650.068,1148.7
650.595,1159.7
651.121,1153.9
651.648,1160.8
652.174,1155.4
652.7,1159.3
653.227,1163.4
653.753,1170.0
654.279,1159.3
654.805,1161.1
655.331,1154.8
655.858,1161.8
656.384,1164.2
656.91,1161.4
657.436,1163.6
657.962,1157.5
658.488,1161.5
659.013,1168.3
659.539,1162.9
660.065,1162.7
660.591,1162.6
661.117,1156.7
661.642,1156.7
662.168,1157.8
662.694,1152.7
663.088,1155.3

File: VLFR_06-PET_nobio_Raman_38feb096.csv
nm,Intensity
528.65,1841.17
529.155,1840.83
529.66,1842.67
530.165,1841.63
530.67,1841.63
531.175,1844.27
531.68,1869.2
532.185,3189.37
532.69,1845.0
533.194,1853.1
533.699,3154.73
534.204,6101.1
534.708,5019.47
535.213,4029.07
535.717,3240.17
536.222,2790.33
536.726,2616.5
537.231,2525.43
537.735,2489.7
538.239,2512.13
538.743,2505.03
539.247,2527.6
539.751,2614.97
540.255,2535.33
540.759,2418.73
541.263,2391.4
541.767,2370.53
542.271,2387.17
542.775,2386.47
543.279,2378.2
543.782,2415.03
544.286,2402.8
544.789,2412.13
545.293,2397.47
545.796,2405.03
546.3,2406.23
546.803,2407.6
547.306,2402.17
547.81,2424.23
548.313,2416.2
548.816,2421.7
549.319,2412.5
549.822,2410.93
550.325,2518.33
550.828,2778.27
551.331,2443.3
551.834,2441.2
552.337,2441.67
552.839,2721.0
553.342,2456.93
553.844,2468.53
554.347,2450.5
554.849,2458.13
555.352,2609.43
555.854,2754.63
556.357,2812.07
556.859,2875.73
557.361,3459.77
557.863,3136.03
558.365,2945.3
558.867,2776.97
559.369,2584.73
559.871,2549.83
560.373,2545.07
560.875,2574.9
561.377,2602.23
561.878,2634.93
562.38,2686.2
562.881,2752.17
563.383,2725.0
563.884,2676.23
564.386,2721.7
564.887,2926.47
565.388,3277.0
565.89,3416.43
566.391,2934.67
566.892,2754.03
567.393,2908.73
567.894,3000.43
568.395,2776.9
568.896,2746.73
569.396,2821.43
569.897,2956.43
570.398,3307.83
570.898,3959.03
571.399,4433.57
571.9,3687.0
572.4,3126.93
572.9,2921.87
573.401,2913.1
573.901,3044.87
574.401,2982.03
574.901,3023.07
575.401,3209.47
575.901,3010.13
576.401,3214.2
576.901,3216.6
577.401,3004.4
577.901,3004.17
578.4,2993.17
578.9,2994.57
579.399,3002.93
579.899,3055.97
580.398,3088.0
580.898,3192.6
581.397,3384.23
581.896,6274.83
582.395,5466.3
582.895,3285.4
583.394,3180.77
583.893,3190.6
584.391,3243.47
584.89,3298.67
585.389,4167.7
585.888,6400.83
586.386,4954.67
586.885,3510.53
587.384,3244.8
587.882,3259.63
588.38,3225.8
588.879,3190.03
589.377,3215.7
589.875,3170.57
590.373,3202.8
590.871,3195.63
591.369,3205.63
591.867,3190.2
592.365,3248.83
592.863,3200.6
593.361,3208.97
593.858,3237.03
594.356,3234.17
594.853,3229.77
595.351,3263.53
595.848,3237.77
596.345,3269.13
596.843,3246.5
597.34,3241.03
597.837,3228.1
598.334,3298.5
598.831,3283.37
599.328,3304.5
599.824,3245.6
600.321,3246.27
600.818,3307.07
601.314,3316.47
601.811,3284.67
602.307,3320.83
602.804,3293.3
603.3,3307.43
603.796,3312.33
604.293,3314.53
604.789,3304.77
605.285,3307.27
605.781,3286.9
606.277,3342.17
606.772,3326.53
607.268,3359.77
607.764,3330.03
608.259,3319.43
608.755,3355.17
609.25,3337.87
609.746,3347.77
610.241,3345.8
610.736,3389.77
611.231,3322.43
611.727,3351.13
612.222,3370.27
612.716,3391.1
613.211,3369.57
613.706,3388.23
614.201,3391.87
614.695,3415.8
615.19,3398.17
615.684,3413.0
616.179,3458.9
616.673,3453.13
617.168,3470.33
617.662,3461.7
618.156,3540.63
618.65,3551.87
619.144,3469.87
619.638,3457.73
620.131,3514.2
620.625,3495.03
621.119,3477.27
621.612,3488.47
622.106,3494.43
622.599,3499.17
623.093,3559.47
623.586,3563.67
624.079,3539.07
624.572,3584.0
625.065,3660.43
625.558,3568.53
626.051,3553.07
626.544,3646.23
627.037,3577.53
627.529,3675.6
628.022,3657.97
628.514,3790.1
629.007,3796.77
629.499,3845.33
629.991,3785.27
630.483,3780.53
630.976,4111.43
631.468,4645.4
631.959,4644.43
632.451,4348.03
632.943,4153.9
633.435,4049.83
633.926,4078.37
634.418,3858.13
634.909,3846.2
635.401,3915.07
635.892,4220.03
636.383,4815.37
636.874,4475.33
637.365,4054.83
637.856,3847.83
638.347,3800.0
638.838,3817.87
639.329,3868.4
639.819,3768.03
640.31,3818.23
640.8,3782.13
641.291,3776.57
641.781,3787.6
642.271,3826.47
642.761,3796.37
643.251,3749.53
643.741,3836.4
644.231,3770.1
644.721,3762.9
645.211,3710.47
645.7,3820.23
646.19,3761.1
646.679,3725.8
647.169,3762.23
647.658,3724.57
648.147,3717.87
648.636,3758.5
649.125,3751.03
649.614,3673.4
650.103,3693.67
650.592,3724.87
651.08,3713.17
651.569,3667.1
652.058,3656.03
652.546,3606.17
653.034,3622.17
653.523,3638.23
654.011,3601.2
654.499,3668.2
654.987,3656.7
655.475,3544.8
655.963,3539.63
656.45,3524.77
656.938,3485.57
657.425,3531.4
657.913,3530.3
658.4,3423.0
658.888,3463.23
659.375,3417.23
659.862,3387.7
660.349,3381.77
660.836,3370.77
661.079,3352.13