Folder: MPX_specDB/spectra (part 51)

File: VLFR_02-HDPE_bio_Raman_e0a1680f.csv
nm,Intensity
528.65,1856.05
529.155,1856.8
529.66,1854.75
530.165,1856.75
530.67,1856.55
531.175,1857.9
531.68,1879.05
532.185,2611.55
532.69,1857.25
533.194,1857.05
533.699,1914.3
534.204,2073.4
534.708,2083.55
535.213,2089.7
535.717,2075.95
536.222,2077.3
536.726,2088.05
537.231,2083.15
537.735,2106.0
538.239,2100.05
538.743,2108.6
539.247,2118.0
539.751,2109.35
540.255,2095.3
540.759,2115.4
541.263,2119.25
541.767,2127.0
542.271,2126.05
542.775,2133.0
543.279,2138.05
543.782,2133.15
544.286,2141.1
544.789,2143.65
545.293,2142.5
545.796,2153.4
546.3,2145.7
546.803,2154.85
547.306,2156.7
547.81,2169.95
548.313,2168.0
548.816,2182.1
549.319,2185.7
549.822,2185.05
550.325,2198.6
550.828,2202.4
551.331,2208.0
551.834,2209.0
552.337,2216.2
552.839,2216.4
553.342,2231.65
553.844,2224.05
554.347,2226.3
554.849,2243.8
555.352,2246.75
555.854,2256.35
556.357,2258.4
556.859,2269.55
557.361,2257.4
557.863,2274.25
558.365,2282.4
558.867,2306.85
559.369,2298.8
559.871,2300.85
560.373,2321.85
560.875,2324.55
561.377,2341.8
561.878,2336.45
562.38,2353.15
562.881,2363.5
563.383,2376.8
563.884,2481.35
564.386,2438.8
564.887,2414.6
565.388,2420.15
565.89,2505.3
566.391,2526.55
566.892,2432.2
567.393,2438.0
567.894,2444.25
568.395,2450.65
568.896,2476.85
569.396,2472.35
569.897,2493.85
570.398,2505.5
570.898,2524.65
571.399,2770.95
571.9,2612.1
572.4,2578.6
572.9,2563.1
573.401,2595.75
573.901,2633.05
574.401,2623.35
574.901,2639.3
575.401,2765.9
575.901,2820.35
576.401,2955.3
576.901,2918.45
577.401,2877.95
577.901,2839.15
578.4,2848.0
578.9,2934.45
579.399,2959.8
579.899,3024.3
580.398,3077.7
580.898,3156.05
581.397,3183.65
581.896,3241.65
582.395,3307.65
582.895,3337.0
583.394,3453.7
583.893,3495.45
584.391,3546.0
584.89,3580.95
585.389,3647.0
585.888,3725.3
586.386,3775.2
586.885,3811.65
587.384,3884.5
587.882,4007.1
588.38,4059.95
588.879,4105.9
589.377,4146.3
589.875,4244.15
590.373,4359.15
590.871,4416.5
591.369,4541.05
591.867,4577.1
592.365,4662.6
592.863,4689.7
593.361,4790.75
593.858,4775.85
594.356,4812.55
594.853,4941.2
595.351,5036.15
595.848,5131.15
596.345,5195.5
596.843,5276.3
597.34,5390.5
597.837,5353.6
598.334,5399.45
598.831,5539.9
599.328,5575.7
599.824,5610.7
600.321,5652.05
600.818,5730.15
601.314,5638.1
601.811,5750.7
602.307,5724.7
602.804,5601.0
603.3,5640.25
603.796,5561.35
604.293,5536.5
604.789,5495.4
605.285,5416.9
605.781,5362.3
606.277,5356.65
606.772,5181.45
607.268,5162.15
607.764,5065.95
608.259,5095.5
608.755,5041.25
609.25,4958.25
609.746,4873.05
610.241,4823.4
610.736,4727.5
611.231,4720.65
611.727,4656.45
612.222,4614.4
612.716,4546.9
613.211,4494.45
613.706,4465.7
614.201,4456.0
614.695,4359.3
615.19,4383.45
615.684,4343.8
616.179,4282.15
616.673,4281.9
617.168,4238.15
617.662,4177.7
618.156,4159.2
618.65,4122.15
619.144,4178.8
619.638,4131.0
620.131,4080.0
620.625,4097.0
621.119,4060.05
621.612,4030.05
622.106,4079.8
622.599,4078.25
623.093,3987.65
623.586,3922.4
624.079,3985.7
624.572,3947.95
625.065,3932.7
625.558,3899.9
626.051,3937.4
626.544,4075.15
627.037,5116.45
627.529,4970.9
628.022,4581.8
628.514,5220.95
629.007,4775.45
629.499,4526.45
629.991,4312.25
630.483,4264.85
630.976,4102.2
631.468,3959.4
631.959,3952.5
632.451,3931.3
632.943,3983.35
633.435,3950.4
633.926,3934.8
634.418,3932.8
634.909,3972.7
635.401,3926.6
635.892,3909.5
636.383,3955.9
636.874,3949.9
637.365,3981.5
637.856,4005.95
638.347,4039.4
638.838,4004.7
639.329,4057.2
639.819,4003.3
640.31,4045.0
640.8,3991.3
641.291,4125.05
641.781,4061.6
642.271,4092.35
642.761,4041.3
643.251,4050.05
643.741,4129.5
644.231,4072.25
644.721,4100.25
645.211,4097.65
645.7,4061.5
646.19,4097.05
646.679,4149.75
647.169,4160.7
647.658,4099.0
648.147,4085.35
648.636,4092.85
649.125,4054.95
649.614,4075.55
650.103,4041.05
650.592,4077.5
651.08,4123.05
651.569,4033.1
652.058,4074.15
652.546,4082.0
653.034,4047.85
653.523,3916.95
654.011,3976.85
654.499,3978.45
654.987,3874.35
655.475,3964.55
655.963,3911.2
656.45,3872.55
656.938,3777.75
657.425,3816.25
657.913,3752.3
658.4,3703.7
658.888,3746.4
659.375,3640.15
659.862,3577.25
660.349,3575.0
660.836,3518.85
661.079,3445.1

File: VLFR_02-HDPE_bio_Raman_e0f4c69d.csv
nm,Intensity
528.626,1861.2
529.132,1861.5
529.637,1862.4
530.143,1860.8
530.648,1861.8
531.153,1861.8
531.658,1884.4
532.164,3932.8
532.669,1865.8
533.174,1862.5
533.679,1956.2
534.184,2262.3
534.689,2274.6
535.194,2286.2
535.699,2192.1
536.203,2150.7
536.708,2122.0
537.213,2125.3
537.717,2116.0
538.222,2117.7
538.726,2098.3
539.231,2088.0
539.735,2084.7
540.239,2088.5
540.744,2076.9
541.248,2103.9
541.752,2087.9
542.256,2094.5
542.76,2092.9
543.264,2089.7
543.768,2103.8
544.272,2133.0
544.776,2106.9
545.28,2104.6
545.784,2126.5
546.287,2191.4
546.791,2158.9
547.294,2131.6
547.798,2097.5
548.301,2119.7
548.805,2116.5
549.308,2129.2
549.811,2127.9
550.315,2153.0
550.818,2121.9
551.321,2127.7
551.824,2141.3
552.327,2128.4
552.83,2123.8
553.333,2166.7
553.835,2153.8
554.338,2157.0
554.841,2150.9
555.343,2169.7
555.846,2167.7
556.349,2167.8
556.851,2167.1
557.353,2164.5
557.856,2207.4
558.358,2210.2
558.86,2185.9
559.362,2183.9
559.864,2184.3
560.366,2184.2
560.868,2204.1
561.37,2218.4
561.872,2256.2
562.374,2840.5
562.876,2248.2
563.377,2274.4
563.879,2668.0
564.38,2374.6
564.882,2309.4
565.383,2281.7
565.885,2482.3
566.386,2618.1
566.887,2262.4
567.388,2365.9
567.889,2242.7
568.391,2229.9
568.892,2239.2
569.392,2238.9
569.893,2242.3
570.394,2278.5
570.895,2301.2
571.395,2953.4
571.896,2470.5
572.397,2316.4
572.897,2263.4
573.397,2263.3
573.898,2309.9
574.398,2250.8
574.898,2268.9
575.398,2527.6
575.898,2560.0
576.398,2968.0
576.898,2742.3
577.398,2496.1
577.898,2308.9
578.398,2278.5
578.897,2279.4
579.397,2272.4
579.896,2272.6
580.396,2305.5
580.895,2305.0
581.395,2293.8
581.894,2316.7
582.393,2314.3
582.892,2320.8
583.391,2331.3
583.89,2323.7
584.389,2338.8
584.888,2346.0
585.387,2368.4
585.886,2352.9
586.384,2375.8
586.883,2410.2
587.381,2408.1
587.88,2422.5
588.378,2431.2
588.876,2433.1
589.375,2461.9
589.873,2478.6
590.371,2497.6
590.869,2524.4
591.367,2564.4
591.865,2574.4
592.363,2587.9
592.86,2607.1
593.358,2603.9
593.856,2605.1
594.353,2617.7
594.851,2641.3
595.348,2640.3
595.845,2679.6
596.342,2708.1
596.84,2694.2
597.337,2727.1
597.834,2732.5
598.331,2750.9
598.828,2735.4
599.324,2768.9
599.821,2796.6
600.318,2804.2
600.814,2822.4
601.311,2826.8
601.807,2818.9
602.304,2874.2
602.8,2825.8
603.296,2832.1
603.792,2836.7
604.288,2821.9
604.784,2842.9
605.28,2809.6
605.776,2812.9
606.272,2808.9
606.767,2798.2
607.263,2800.0
607.759,2793.0
608.254,2810.4
608.749,2775.9
609.245,2753.2
609.74,2770.7
610.235,2734.6
610.73,2774.1
611.225,2741.7
611.72,2730.3
612.215,2714.4
612.71,2686.5
613.204,2744.3
613.699,2691.6
614.194,2674.8
614.688,2712.7
615.182,2656.0
615.677,2642.4
616.171,2639.4
616.665,2665.2
617.159,2709.0
617.653,2722.7
618.147,2679.3
618.641,2667.7
619.135,2674.6
619.628,2675.1
620.122,2643.1
620.615,2685.0
621.109,2676.5
621.602,2777.8
622.095,2910.8
622.589,2846.2
623.082,2657.8
623.575,2599.5
624.068,2573.3
624.561,2574.6
625.053,2582.1
625.546,2619.9
626.039,2711.2
626.531,3333.4
627.024,6390.4
627.516,6090.0
628.008,5158.8
628.501,7499.7
628.993,4784.7
629.485,4251.7
629.977,3755.7
630.469,3625.7
630.96,3075.8
631.452,2634.5
631.944,2513.8
632.435,2484.8
632.927,2476.4
633.418,2457.5
633.91,2432.4
634.401,2399.0
634.892,2410.8
635.383,2388.0
635.874,2387.5
636.365,2396.1
636.856,2349.8
637.346,2357.6
637.837,2340.0
638.327,2353.0
638.818,2334.2
639.308,2332.7
639.799,2348.7
640.289,2342.2
640.779,2324.9
641.269,2329.2
641.759,2311.4
642.249,2320.4
642.738,2349.7
643.228,2322.6
643.718,2321.8
644.207,2334.3
644.697,2322.1
645.186,2350.1
645.675,2323.4
646.164,2327.5
646.653,2338.4
647.142,2296.3
647.631,2312.3
648.12,2303.1
648.609,2328.1
649.098,2330.1
649.586,2350.7
650.075,2348.3
650.563,2323.5
651.051,2313.8
651.539,2284.4
652.027,2288.7
652.515,2280.9
653.003,2271.7
653.491,2283.3
653.979,2279.7
654.467,2262.2
654.954,2270.0
655.442,2254.4
655.929,2235.8
656.416,2205.5
656.904,2248.8
657.391,2242.3
657.878,2240.8
658.365,2216.5
658.851,2238.4
659.338,2222.3
659.825,2195.2
660.311,2209.9
660.798,2202.8
661.041,2211.7

File: VLFR_02-HDPE_bio_Raman_e43b2d2b.csv
nm,Intensity
526.547,832.75
527.095,831.8
527.642,832.8
528.189,832.3
528.736,832.0
529.283,832.95
529.829,832.7
530.376,832.05
530.922,831.55
531.468,832.1
532.014,841.0
532.56,833.05
533.106,832.0
533.651,832.75
534.196,888.65
534.742,887.75
535.287,882.1
535.832,866.35
536.376,860.25
536.921,860.15
537.465,860.15
538.01,860.45
538.554,860.55
539.098,857.65
539.642,857.3
540.186,856.75
540.729,856.95
541.273,855.35
541.816,857.45
542.36,859.65
542.903,858.75
543.446,859.5
543.988,859.2
544.531,860.8
545.074,860.65
545.616,859.35
546.158,861.65
546.701,862.05
547.243,860.7
547.785,861.55
548.326,860.75
548.868,862.55
549.41,862.55
549.951,864.55
550.492,862.8
551.034,862.55
551.575,863.85
552.116,862.95
552.656,864.55
553.197,864.55
553.738,863.25
554.278,865.5
554.819,864.4
555.359,865.2
555.899,866.55
556.439,866.0
556.979,865.45
557.519,868.05
558.058,866.15
558.598,868.55
559.137,868.8
559.677,867.05
560.216,867.0
560.755,869.5
561.294,868.6
561.833,867.35
562.371,871.1
562.91,871.65
563.449,872.0
563.987,941.25
564.525,888.65
565.064,882.05
565.602,879.35
566.14,953.0
566.678,879.6
567.216,878.65
567.753,876.15
568.291,873.5
568.828,871.45
569.366,874.55
569.903,875.6
570.44,877.25
570.977,881.0
571.514,1003.25
572.051,893.1
572.588,880.25
573.125,878.75
573.661,880.7
574.198,885.1
574.734,881.1
575.271,883.45
575.807,913.15
576.343,1012.5
576.879,952.35
577.415,926.75
577.951,895.5
578.486,893.05
579.022,895.5
579.557,898.0
580.093,901.15
580.628,902.35
581.164,903.45
581.699,906.05
582.234,909.5
582.769,913.3
583.304,919.8
583.838,922.6
584.373,925.45
584.908,931.4
585.442,934.35
585.977,943.9
586.511,947.55
587.045,954.25
587.58,962.6
588.114,969.95
588.648,978.1
589.182,987.95
589.715,994.4
590.249,1003.2
590.783,1012.0
591.316,1020.75
591.85,1027.6
592.383,1032.4
592.917,1036.2
593.45,1042.6
593.983,1042.0
594.516,1045.5
595.049,1052.2
595.582,1048.4
596.115,1052.65
596.648,1049.75
597.18,1053.8
597.713,1052.9
598.245,1054.8
598.778,1055.05
599.31,1055.5
599.842,1056.7
600.375,1048.35
600.907,1053.15
601.439,1043.7
601.971,1051.15
602.503,1045.9
603.034,1039.55
603.566,1032.25
604.098,1033.0
604.629,1020.8
605.161,1015.95
605.692,1005.45
606.224,1002.95
606.755,992.45
607.286,984.75
607.817,985.65
608.348,977.0
608.879,977.9
609.41,970.65
609.941,968.9
610.472,966.85
611.002,962.05
611.533,959.15
612.063,956.1
612.594,957.7
613.124,954.1
613.655,952.9
614.185,950.25
614.715,951.5
615.245,946.9
615.775,946.2
616.305,943.35
616.835,941.75
617.365,947.15
617.895,945.6
618.425,945.7
618.954,941.0
619.484,943.3
620.013,942.5
620.543,940.8
621.072,944.95
621.602,957.2
622.131,985.35
622.66,977.5
623.189,944.0
623.718,935.2
624.247,935.7
624.776,935.1
625.305,939.15
625.834,946.15
626.363,979.0
626.891,1292.2
627.42,1694.95
627.949,1363.55
628.477,1731.1
629.006,1396.9
629.534,1280.2
630.062,1169.15
630.591,1142.35
631.119,1014.7
631.647,952.5
632.175,942.75
632.703,941.3
633.231,935.35
633.759,931.0
634.287,926.85
634.815,930.35
635.343,933.6
635.871,930.25
636.398,930.3
636.926,932.75
637.454,930.35
637.981,929.75
638.509,930.1
639.036,936.65
639.564,935.35
640.091,936.05
640.618,939.35
641.146,943.0
641.673,943.9
642.2,945.1
642.727,946.1
643.254,947.45
643.781,946.2
644.308,947.45
644.835,951.85
645.362,953.65
645.889,949.6
646.416,950.3
646.942,951.8
647.469,953.4
647.996,950.25
648.522,950.8
649.049,949.95
649.576,946.35
650.102,949.25
650.629,944.65
651.155,941.85
651.682,943.6
652.208,945.6
652.734,941.25
653.261,940.4
653.787,943.85
654.313,938.3
654.839,938.1
655.365,934.35
655.892,934.35
656.418,933.4
656.944,932.75
657.47,931.3
657.996,927.95
658.522,926.85
659.048,924.5
659.574,922.95
660.099,923.15
660.625,918.75
661.151,916.1
661.677,912.3
662.203,910.95
662.728,906.35
663.123,905.05

File: VLFR_02-HDPE_bio_Raman_e51c0f41.csv
nm,Intensity
526.494,835.0
527.041,834.4
527.588,834.9
528.135,835.3
528.682,834.2
529.229,833.8
529.775,834.9
530.321,833.0
530.868,834.7
531.414,834.4
531.96,847.2
532.506,836.9
533.051,834.2
533.597,835.1
534.142,878.8
534.687,879.7
535.232,876.4
535.777,859.1
536.322,855.1
536.867,852.9
537.411,852.7
537.956,852.9
538.5,851.0
539.044,850.7
539.588,849.8
540.132,849.0
540.676,849.0
541.22,848.2
541.763,847.3
542.306,846.7
542.85,847.3
543.393,846.8
543.936,848.9
544.479,847.0
545.021,849.9
545.564,849.1
546.106,848.2
546.649,849.5
547.191,847.0
547.733,849.7
548.275,848.5
548.817,848.5
549.359,850.3
549.9,849.1
550.442,848.7
550.983,849.4
551.524,849.6
552.066,850.9
552.607,848.8
553.148,850.7
553.688,853.6
554.229,848.7
554.77,850.5
555.31,854.5
555.85,852.6
556.39,852.1
556.931,854.4
557.471,853.4
558.01,854.6
558.55,855.7
559.09,854.2
559.629,852.9
560.169,853.4
560.708,856.4
561.247,855.1
561.786,853.4
562.325,855.1
562.864,857.6
563.403,861.0
563.941,910.8
564.48,870.0
565.018,866.3
565.557,864.2
566.095,903.8
566.633,865.0
567.171,863.2
567.709,866.8
568.247,855.7
568.784,858.6
569.322,862.2
569.859,861.7
570.397,861.1
570.934,867.4
571.471,957.1
572.008,880.8
572.545,865.2
573.082,862.5
573.619,862.2
574.155,866.9
574.692,862.0
575.228,861.4
575.765,891.0
576.301,981.6
576.837,925.3
577.373,909.3
577.909,874.9
578.445,871.0
578.981,868.4
579.516,867.6
580.052,866.5
580.587,869.6
581.123,870.6
581.658,872.3
582.193,872.6
582.728,871.2
583.263,873.0
583.798,878.0
584.333,875.1
584.868,877.8
585.402,873.9
585.937,879.6
586.471,879.8
587.005,881.3
587.54,882.0
588.074,881.5
588.608,879.0
589.142,880.1
589.676,879.7
590.21,879.9
590.743,878.1
591.277,878.1
591.81,878.8
592.344,880.9
592.877,880.6
593.411,880.0
593.944,879.8
594.477,877.6
595.01,880.4
595.543,877.3
596.076,882.6
596.608,883.0
597.141,879.2
597.674,881.8
598.206,885.4
598.739,881.0
599.271,885.1
599.803,883.4
600.335,885.3
600.868,883.7
601.4,882.9
601.931,887.1
602.463,885.6
602.995,881.7
603.527,882.8
604.058,885.7
604.59,882.9
605.121,881.8
605.653,878.2
606.184,882.6
606.715,881.5
607.246,880.2
607.778,880.5
608.309,880.5
608.839,881.7
609.37,879.6
609.901,880.1
610.432,878.3
610.962,881.3
611.493,882.5
612.023,878.8
612.554,879.7
613.084,880.3
613.614,884.1
614.145,881.5
614.675,880.3
615.205,883.2
615.735,882.9
616.265,883.7
616.795,886.9
617.324,896.3
617.854,892.0
618.384,893.7
618.913,895.5
619.443,901.2
619.972,904.6
620.502,900.2
621.031,908.2
621.56,925.8
622.089,956.0
622.618,954.3
623.147,915.9
623.676,912.2
624.205,909.7
624.734,911.2
625.263,912.7
625.792,927.2
626.32,958.4
626.849,1273.7
627.377,1747.8
627.906,1390.8
628.434,1679.1
628.963,1372.3
629.491,1264.3
630.019,1148.1
630.547,1122.5
631.076,1005.6
631.604,933.8
632.132,920.1
632.66,912.7
633.188,911.8
633.715,902.2
634.243,902.8
634.771,900.1
635.299,898.3
635.826,899.7
636.354,893.6
636.881,894.4
637.409,889.4
637.936,890.2
638.464,887.1
638.991,885.8
639.518,885.0
640.045,883.0
640.573,883.9
641.1,881.3
641.627,883.1
642.154,880.9
642.681,877.7
643.208,875.7
643.735,877.0
644.261,874.6
644.788,877.1
645.315,876.3
645.842,874.6
646.368,875.6
646.895,873.6
647.421,874.0
647.948,873.4
648.474,872.3
649.001,875.4
649.527,871.4
650.054,873.8
650.58,873.0
651.106,870.0
651.633,868.1
652.159,869.9
652.685,869.1
653.211,868.1
653.737,867.9
654.263,868.5
654.789,870.4
655.315,867.1
655.841,867.1
656.367,866.3
656.893,866.3
657.419,866.5
657.945,867.1
658.47,868.6
658.996,867.1
659.522,866.0
660.047,867.8
660.573,866.6
661.099,865.9
661.624,863.2
662.15,864.7
662.675,865.8
663.07,863.3

File: VLFR_02-HDPE_bio_Raman_e970700e.csv
nm,Intensity
526.508,830.4
527.055,831.0
527.602,830.4
528.149,830.8
528.695,829.4
529.241,831.1
529.787,831.4
530.334,830.0
530.879,831.8
531.425,829.8
531.971,835.2
532.516,831.7
533.062,831.1
533.607,831.1
534.152,927.2
534.697,911.7
535.242,892.1
535.786,881.7
536.331,877.1
536.876,872.7
537.42,869.9
537.964,872.0
538.508,871.0
539.052,862.2
539.596,862.4
540.14,861.3
540.683,858.2
541.227,858.4
541.77,858.9
542.313,858.8
542.856,857.7
543.399,860.3
543.942,859.8
544.485,862.2
545.027,863.8
545.57,862.3
546.112,862.8
546.654,863.0
547.196,864.8
547.738,862.1
548.28,863.0
548.822,863.8
549.363,865.8
549.905,863.2
550.446,864.6
550.988,862.5
551.529,868.8
552.07,864.9
552.611,865.1
553.152,864.0
553.692,869.1
554.233,866.1
554.773,867.4
555.314,865.1
555.854,865.8
556.394,868.7
556.934,871.8
557.474,871.1
558.014,874.8
558.553,877.1
559.093,872.9
559.632,872.9
560.172,866.8
560.711,869.4
561.25,869.5
561.789,874.9
562.328,873.8
562.867,874.7
563.406,878.9
563.944,985.6
564.483,902.8
565.021,896.8
565.559,898.0
566.098,1115.8
566.636,903.9
567.174,881.1
567.711,878.8
568.249,875.3
568.787,876.8
569.324,879.8
569.862,880.4
570.399,884.3
570.936,889.6
571.474,1057.8
572.011,911.4
572.548,894.4
573.084,879.4
573.621,884.1
574.158,897.2
574.694,887.7
575.231,904.1
575.767,1025.0
576.303,1012.8
576.84,979.4
577.376,944.6
577.912,922.9
578.447,915.8
578.983,924.5
579.519,930.6
580.054,932.4
580.59,943.4
581.125,944.4
581.661,956.5
582.196,957.5
582.731,964.0
583.266,965.3
583.801,969.0
584.336,971.1
584.87,970.6
585.405,962.4
585.94,968.9
586.474,973.4
587.008,971.7
587.543,969.7
588.077,975.1
588.611,977.5
589.145,978.0
589.679,980.8
590.213,985.6
590.747,993.5
591.28,994.9
591.814,1000.2
592.347,1003.2
592.881,999.4
593.414,1003.5
593.947,1008.3
594.48,1001.5
595.014,1007.6
595.547,1007.6
596.079,1007.9
596.612,1009.8
597.145,1008.0
597.678,1010.9
598.21,1014.3
598.743,1019.7
599.275,1021.6
599.807,1021.6
600.34,1019.0
600.872,1016.0
601.404,1013.4
601.936,1019.9
602.468,1012.6
603.0,1007.7
603.532,1002.7
604.063,1004.7
604.595,991.2
605.126,988.6
605.658,978.2
606.189,974.6
606.721,970.8
607.252,963.3
607.783,961.7
608.314,958.7
608.845,957.1
609.376,953.2
609.907,954.6
610.438,951.7
610.968,951.9
611.499,948.0
612.03,946.1
612.56,945.8
613.091,942.9
613.621,940.7
614.151,934.2
614.681,934.1
615.212,933.8
615.742,933.8
616.272,932.8
616.802,934.5
617.332,942.2
617.861,937.9
618.391,933.1
618.921,934.4
619.45,936.3
619.98,934.6
620.509,936.6
621.039,943.0
621.568,943.5
622.097,962.6
622.627,958.2
623.156,943.3
623.685,940.7
624.214,941.9
624.743,937.8
625.272,943.6
625.801,953.7
626.33,972.3
626.858,1158.4
627.387,1580.9
627.916,1296.9
628.444,1415.8
628.973,1409.4
629.501,1316.4
630.029,1204.9
630.558,1183.3
631.086,1070.8
631.614,1001.5
632.142,981.4
632.67,972.6
633.198,973.9
633.726,964.5
634.254,968.9
634.782,957.9
635.31,964.9
635.838,963.2
636.365,958.6
636.893,957.5
637.421,958.3
637.948,960.2
638.476,954.0
639.003,956.4
639.531,953.1
640.058,951.7
640.585,950.4
641.113,951.0
641.64,950.8
642.167,951.1
642.694,953.9
643.221,951.3
643.748,947.0
644.275,953.4
644.802,953.6
645.329,950.8
645.856,949.5
646.382,951.0
646.909,951.3
647.436,946.6
647.962,952.0
648.489,949.6
649.016,953.7
649.542,949.6
650.069,949.8
650.595,947.1
651.121,946.8
651.648,944.8
652.174,947.4
652.7,942.5
653.227,940.5
653.753,944.1
654.279,938.2
654.805,939.3
655.331,935.8
655.857,933.6
656.383,930.3
656.909,931.4
657.435,928.6
657.961,925.5
658.487,923.7
659.013,922.0
659.538,920.1
660.064,920.1
660.59,915.7
661.116,912.0
661.641,907.3
662.167,904.4
662.692,901.1
663.087,903.8

File: VLFR_02-HDPE_bio_Raman_ebeda7c1.csv
nm,Intensity
526.494,833.7
527.041,833.1
527.588,834.5
528.135,834.4
528.682,833.5
529.229,834.5
529.775,834.5
530.321,833.4
530.868,834.0
531.414,834.6
531.96,845.9
532.506,836.7
533.051,833.5
533.597,834.3
534.142,879.6
534.687,876.9
535.232,875.0
535.777,861.5
536.322,859.9
536.867,859.3
537.411,857.9
537.956,857.8
538.5,854.8
539.044,854.1
539.588,853.4
540.132,853.5
540.676,853.2
541.22,851.0
541.763,849.9
542.306,854.7
542.85,853.8
543.393,852.4
543.936,854.0
544.479,850.6
545.021,853.5
545.564,852.0
546.106,853.3
546.649,853.6
547.191,850.1
547.733,855.0
548.275,852.9
548.817,853.7
549.359,855.1
549.9,855.1
550.442,853.0
550.983,853.5
551.524,854.6
552.066,854.0
552.607,853.2
553.148,855.9
553.688,857.3
554.229,857.2
554.77,854.8
555.31,854.7
555.85,857.8
556.39,855.9
556.931,857.1
557.471,858.3
558.01,860.5
558.55,861.1
559.09,860.6
559.629,858.7
560.169,859.7
560.708,859.7
561.247,856.8
561.786,857.7
562.325,860.0
562.864,862.6
563.403,865.3
563.941,915.1
564.48,874.5
565.018,872.9
565.557,867.8
566.095,904.8
566.633,868.7
567.171,867.5
567.709,867.6
568.247,864.1
568.784,863.8
569.322,862.4
569.859,866.0
570.397,867.9
570.934,870.1
571.471,965.2
572.008,879.9
572.545,873.3
573.082,866.0
573.619,870.2
574.155,872.5
574.692,867.9
575.228,875.4
575.765,894.5
576.301,989.1
576.837,937.0
577.373,921.3
577.909,884.9
578.445,876.0
578.981,879.3
579.516,881.1
580.052,882.2
580.587,884.3
581.123,889.1
581.658,886.3
582.193,890.4
582.728,892.4
583.263,893.3
583.798,894.0
584.333,900.8
584.868,896.0
585.402,901.6
585.937,902.6
586.471,903.1
587.005,913.5
587.54,914.2
588.074,914.2
588.608,917.1
589.142,911.8
589.676,921.6
590.21,919.4
590.743,922.2
591.277,924.9
591.81,922.6
592.344,926.4
592.877,925.4
593.411,922.7
593.944,927.3
594.477,926.0
595.01,926.1
595.543,928.2
596.076,929.9
596.608,930.3
597.141,933.8
597.674,938.9
598.206,938.6
598.739,937.5
599.271,936.6
599.803,936.3
600.335,940.8
600.868,939.2
601.4,935.4
601.931,942.0
602.463,939.8
602.995,936.1
603.527,939.2
604.058,931.7
604.59,930.6
605.121,929.9
605.653,924.8
606.184,921.1
606.715,923.2
607.246,920.4
607.778,918.3
608.309,919.2
608.839,919.6
609.37,918.9
609.901,915.9
610.432,914.2
610.962,912.3
611.493,915.0
612.023,908.2
612.554,913.1
613.084,910.1
613.614,912.3
614.145,910.4
614.675,913.7
615.205,912.7
615.735,906.8
616.265,911.0
616.795,910.4
617.324,912.7
617.854,913.8
618.384,912.9
618.913,912.3
619.443,911.7
619.972,912.6
620.502,912.2
621.031,915.6
621.56,930.9
622.089,953.6
622.618,955.2
623.147,920.6
623.676,911.7
624.205,909.3
624.734,910.2
625.263,910.2
625.792,919.1
626.32,946.3
626.849,1183.0
627.377,1546.1
627.906,1249.1
628.434,1436.7
628.963,1306.7
629.491,1202.6
630.019,1102.9
630.547,1082.8
631.076,980.7
631.604,922.2
632.132,908.6
632.66,905.5
633.188,904.9
633.715,901.9
634.243,900.7
634.771,899.4
635.299,896.2
635.826,896.7
636.354,898.7
636.881,892.3
637.409,893.1
637.936,893.2
638.464,890.6
638.991,889.3
639.518,890.5
640.045,889.9
640.573,892.3
641.1,888.9
641.627,888.3
642.154,886.6
642.681,887.2
643.208,888.8
643.735,893.0
644.261,887.3
644.788,888.6
645.315,889.0
645.842,887.2
646.368,890.5
646.895,887.3
647.421,885.3
647.948,885.7
648.474,888.1
649.001,885.5
649.527,884.0
650.054,888.6
650.58,886.6
651.106,886.7
651.633,881.9
652.159,888.7
652.685,886.1
653.211,888.3
653.737,883.6
654.263,886.5
654.789,881.9
655.315,883.8
655.841,880.5
656.367,881.2
656.893,882.0
657.419,880.7
657.945,884.1
658.47,882.7
658.996,883.2
659.522,885.0
660.047,884.0
660.573,881.6
661.099,881.2
661.624,877.0
662.15,878.2
662.675,876.1
663.07,874.8