Folder: MPX_specDB/spectra (part 83)

File: VLFR_06-PET_nobio_Raman_5ab4bb37.csv
nm,Intensity
526.5,829.5
527.047,828.2
527.594,829.8
528.14,829.5
528.687,829.1
529.233,829.6
529.779,830.1
530.325,830.0
530.871,829.2
531.417,828.5
531.962,832.2
532.508,829.0
533.053,827.7
533.599,837.8
534.144,2047.8
534.689,1704.3
535.234,1370.6
535.778,1154.0
536.323,1032.6
536.867,980.4
537.412,957.2
537.956,951.3
538.5,957.9
539.044,951.3
539.588,957.9
540.132,971.2
540.675,932.1
541.219,921.1
541.762,916.2
542.305,915.3
542.848,914.6
543.391,912.7
543.934,924.6
544.477,916.9
545.02,919.3
545.562,920.2
546.105,922.4
546.647,923.5
547.189,928.4
547.731,924.4
548.273,933.3
548.815,934.8
549.356,933.3
549.898,933.8
550.439,953.6
550.981,956.0
551.522,943.0
552.063,943.9
552.604,949.7
553.145,967.5
553.686,956.3
554.226,950.3
554.767,952.5
555.307,968.7
555.848,1020.2
556.388,1022.6
556.928,1034.8
557.468,1172.7
558.008,1059.9
558.547,1059.3
559.087,1007.7
559.626,981.7
560.166,983.2
560.705,985.5
561.244,987.4
561.783,993.8
562.322,1012.8
562.861,1028.4
563.4,1025.6
563.939,1016.1
564.477,1026.6
565.015,1070.6
565.554,1131.0
566.092,1138.3
566.63,1043.8
567.168,1028.9
567.706,1115.4
568.244,1038.1
568.781,1030.8
569.319,1033.7
569.857,1068.4
570.394,1117.0
570.931,1244.5
571.468,1351.4
572.005,1203.6
572.542,1096.0
573.079,1066.3
573.616,1069.1
574.153,1097.4
574.689,1083.9
575.226,1110.6
575.762,1084.2
576.298,1117.2
576.834,1134.3
577.371,1101.0
577.907,1091.5
578.442,1094.7
578.978,1091.1
579.514,1096.3
580.049,1099.1
580.585,1114.3
581.12,1133.2
581.656,1210.8
582.191,2394.7
582.726,1181.5
583.261,1137.1
583.796,1130.8
584.331,1140.3
584.865,1152.9
585.4,1237.5
585.935,1784.9
586.469,1543.5
587.004,1198.5
587.538,1157.4
588.072,1148.9
588.606,1146.3
589.14,1147.2
589.674,1145.4
590.208,1145.0
590.742,1147.8
591.275,1154.2
591.809,1158.3
592.342,1151.6
592.876,1155.4
593.409,1152.2
593.942,1164.9
594.476,1154.8
595.009,1168.3
595.542,1161.3
596.075,1161.1
596.607,1172.6
597.14,1170.2
597.673,1168.1
598.205,1179.9
598.738,1182.8
599.27,1181.8
599.803,1180.5
600.335,1184.6
600.867,1180.3
601.399,1178.2
601.931,1179.4
602.463,1179.3
602.995,1180.4
603.527,1184.8
604.058,1189.8
604.59,1183.7
605.122,1182.5
605.653,1175.8
606.184,1175.6
606.716,1173.7
607.247,1190.3
607.778,1181.7
608.309,1180.2
608.84,1185.6
609.371,1187.0
609.902,1186.1
610.433,1186.2
610.964,1185.1
611.494,1192.4
612.025,1196.4
612.556,1198.2
613.086,1200.8
613.616,1209.0
614.147,1211.2
614.677,1213.5
615.207,1208.8
615.737,1207.0
616.267,1215.5
616.797,1211.7
617.327,1224.3
617.857,1225.7
618.387,1239.7
618.917,1234.2
619.446,1230.4
619.976,1218.0
620.505,1230.0
621.035,1227.0
621.564,1238.2
622.093,1235.8
622.623,1247.9
623.152,1245.3
623.681,1253.1
624.21,1256.9
624.739,1263.2
625.268,1262.6
625.797,1257.5
626.326,1261.5
626.855,1269.9
627.383,1267.2
627.912,1282.2
628.441,1295.8
628.969,1326.5
629.498,1327.3
630.026,1316.9
630.554,1320.0
631.083,1388.6
631.611,1518.7
632.139,1506.9
632.667,1425.0
633.195,1405.7
633.724,1392.1
634.252,1377.4
634.779,1356.2
635.307,1371.2
635.835,1432.5
636.363,1555.9
636.891,1569.5
637.418,1422.4
637.946,1387.1
638.474,1383.4
639.001,1380.9
639.529,1393.5
640.056,1389.4
640.583,1393.6
641.111,1394.9
641.638,1408.6
642.165,1414.4
642.692,1418.0
643.22,1405.5
643.747,1408.7
644.274,1409.1
644.801,1415.6
645.328,1413.2
645.854,1424.1
646.381,1427.6
646.908,1426.2
647.435,1440.9
647.962,1430.5
648.488,1432.7
649.015,1439.4
649.542,1431.6
650.068,1430.9
650.595,1439.0
651.121,1442.2
651.648,1437.7
652.174,1439.7
652.7,1438.9
653.227,1450.7
653.753,1443.9
654.279,1448.8
654.805,1453.2
655.331,1458.1
655.858,1459.0
656.384,1454.3
656.91,1459.5
657.436,1463.2
657.962,1460.5
658.488,1460.0
659.013,1455.1
659.539,1463.0
660.065,1470.7
660.591,1455.8
661.117,1458.1
661.642,1448.6
662.168,1452.3
662.694,1451.4
663.088,1443.0

File: VLFR_06-PET_nobio_Raman_5eefd76b.csv
nm,Intensity
528.65,1841.73
529.155,1842.3
529.66,1842.0
530.165,1843.1
530.67,1843.5
531.175,1843.5
531.68,1869.5
532.185,3578.83
532.69,1846.47
533.194,1852.5
533.699,3185.63
534.204,6229.53
534.708,5080.03
535.213,4125.37
535.717,3305.63
536.222,2823.77
536.726,2630.23
537.231,2567.67
537.735,2530.73
538.239,2560.73
538.743,2543.93
539.247,2581.23
539.751,2686.07
540.255,2577.93
540.759,2465.33
541.263,2423.23
541.767,2407.73
542.271,2427.63
542.775,2430.93
543.279,2417.43
543.782,2446.27
544.286,2444.93
544.789,2439.63
545.293,2438.87
545.796,2453.27
546.3,2443.93
546.803,2449.97
547.306,2440.87
547.81,2451.5
548.313,2453.13
548.816,2467.33
549.319,2457.03
549.822,2449.6
550.325,2546.6
550.828,2822.8
551.331,2485.07
551.834,2464.2
552.337,2483.6
552.839,2757.53
553.342,2477.13
553.844,2494.37
554.347,2462.97
554.849,2492.53
555.352,2615.33
555.854,2799.83
556.357,2830.17
556.859,2913.37
557.361,3518.57
557.863,3142.23
558.365,3012.8
558.867,2798.2
559.369,2606.7
559.871,2562.1
560.373,2563.23
560.875,2575.47
561.377,2623.13
561.878,2665.93
562.38,2717.23
562.881,2775.87
563.383,2744.9
563.884,2694.4
564.386,2724.1
564.887,2953.37
565.388,3299.43
565.89,3451.57
566.391,2941.5
566.892,2763.57
567.393,2960.3
567.894,3045.1
568.395,2795.73
568.896,2765.33
569.396,2838.97
569.897,2980.33
570.398,3315.27
570.898,4071.1
571.399,4523.83
571.9,3705.3
572.4,3155.83
572.9,2934.43
573.401,2927.27
573.901,3053.57
574.401,3018.37
574.901,3055.27
575.401,3236.87
575.901,3039.73
576.401,3263.8
576.901,3268.8
577.401,3037.63
577.901,3033.63
578.4,3038.4
578.9,3041.33
579.399,3054.07
579.899,3096.43
580.398,3116.47
580.898,3218.77
581.397,3429.2
581.896,6216.93
582.395,5548.07
582.895,3304.6
583.394,3213.47
583.893,3178.67
584.391,3250.2
584.89,3327.83
585.389,4213.7
585.888,6467.43
586.386,5140.73
586.885,3531.3
587.384,3301.7
587.882,3246.13
588.38,3232.2
588.879,3244.43
589.377,3250.67
589.875,3216.67
590.373,3232.97
590.871,3223.3
591.369,3214.97
591.867,3226.27
592.365,3258.9
592.863,3221.13
593.361,3237.63
593.858,3253.7
594.356,3251.97
594.853,3257.33
595.351,3277.07
595.848,3263.87
596.345,3315.47
596.843,3287.2
597.34,3271.03
597.837,3255.9
598.334,3292.6
598.831,3314.0
599.328,3298.83
599.824,3285.7
600.321,3273.3
600.818,3322.63
601.314,3352.93
601.811,3302.83
602.307,3309.63
602.804,3313.03
603.3,3304.57
603.796,3323.4
604.293,3289.53
604.789,3314.2
605.285,3345.7
605.781,3322.43
606.277,3351.53
606.772,3364.53
607.268,3366.73
607.764,3337.33
608.259,3353.8
608.755,3354.83
609.25,3380.43
609.746,3363.83
610.241,3345.6
610.736,3400.6
611.231,3384.53
611.727,3382.37
612.222,3401.77
612.716,3415.33
613.211,3356.7
613.706,3400.0
614.201,3413.1
614.695,3431.17
615.19,3440.27
615.684,3446.8
616.179,3452.57
616.673,3485.67
617.168,3502.97
617.662,3510.5
618.156,3521.97
618.65,3562.2
619.144,3495.83
619.638,3485.73
620.131,3488.5
620.625,3505.23
621.119,3489.33
621.612,3507.77
622.106,3482.97
622.599,3520.5
623.093,3540.57
623.586,3566.0
624.079,3564.73
624.572,3572.6
625.065,3659.7
625.558,3586.33
626.051,3542.0
626.544,3626.77
627.037,3569.6
627.529,3678.7
628.022,3664.07
628.514,3773.1
629.007,3800.9
629.499,3867.27
629.991,3786.13
630.483,3809.9
630.976,4103.9
631.468,4623.4
631.959,4647.83
632.451,4392.67
632.943,4208.5
633.435,4092.07
633.926,4027.0
634.418,3910.3
634.909,3878.77
635.401,3981.7
635.892,4243.1
636.383,4888.8
636.874,4521.93
637.365,4062.17
637.856,3926.43
638.347,3848.27
638.838,3842.63
639.329,3900.2
639.819,3840.93
640.31,3818.07
640.8,3803.37
641.291,3840.23
641.781,3779.97
642.271,3883.5
642.761,3843.33
643.251,3817.93
643.741,3871.13
644.231,3815.87
644.721,3813.97
645.211,3810.9
645.7,3886.67
646.19,3870.2
646.679,3773.7
647.169,3827.23
647.658,3799.7
648.147,3762.93
648.636,3830.6
649.125,3802.63
649.614,3668.17
650.103,3754.63
650.592,3755.73
651.08,3774.67
651.569,3706.83
652.058,3725.1
652.546,3676.2
653.034,3694.2
653.523,3689.8
654.011,3689.27
654.499,3673.67
654.987,3642.2
655.475,3603.87
655.963,3599.77
656.45,3591.33
656.938,3487.77
657.425,3601.07
657.913,3573.67
658.4,3472.8
658.888,3494.53
659.375,3407.23
659.862,3456.0
660.349,3422.07
660.836,3364.3
661.079,3381.9

File: VLFR_06-PET_nobio_Raman_7b7ac817.csv
nm,Intensity
526.486,829.7
527.033,830.5
527.579,831.6
528.126,829.9
528.672,829.6
529.219,830.4
529.765,830.4
530.311,829.9
530.857,829.9
531.403,831.0
531.948,832.2
532.494,832.6
533.039,830.4
533.585,838.1
534.13,2074.6
534.675,1758.6
535.22,1428.3
535.764,1220.7
536.309,1100.1
536.854,1046.5
537.398,1026.0
537.942,1022.6
538.486,1027.0
539.03,1019.1
539.574,1038.6
540.118,1052.8
540.662,1014.5
541.205,998.2
541.749,994.1
542.292,995.4
542.835,998.2
543.378,998.7
543.921,1013.4
544.464,1003.8
545.006,1006.4
545.549,1011.1
546.091,1010.0
546.634,1012.4
547.176,1013.1
547.718,1010.5
548.26,1015.4
548.802,1018.4
549.343,1018.7
549.885,1018.2
550.426,1035.7
550.968,1052.8
551.509,1029.7
552.05,1032.7
552.591,1036.6
553.132,1065.6
553.673,1036.6
554.214,1039.4
554.754,1042.1
555.295,1054.6
555.835,1109.9
556.375,1111.8
556.915,1122.4
557.455,1252.6
557.995,1153.8
558.535,1147.3
559.075,1102.3
559.614,1071.0
560.154,1072.2
560.693,1081.7
561.232,1084.2
561.772,1088.0
562.311,1107.4
562.85,1115.9
563.388,1124.2
563.927,1110.4
564.466,1120.3
565.004,1167.7
565.543,1228.9
566.081,1247.9
566.619,1146.1
567.157,1138.3
567.695,1219.3
568.233,1150.4
568.771,1148.4
569.309,1157.3
569.846,1179.9
570.384,1231.1
570.921,1356.4
571.458,1476.4
571.995,1320.4
572.532,1226.5
573.069,1191.7
573.606,1204.9
574.143,1229.5
574.68,1214.4
575.216,1250.9
575.753,1225.8
576.289,1252.6
576.825,1268.2
577.361,1246.7
577.897,1236.7
578.433,1239.3
578.969,1246.8
579.505,1254.5
580.041,1251.5
580.576,1264.0
581.112,1287.0
581.647,1353.8
582.183,2500.5
582.718,1348.0
583.253,1302.9
583.788,1294.3
584.323,1305.0
584.858,1319.0
585.392,1412.7
585.927,1939.7
586.462,1712.9
586.996,1374.4
587.53,1327.6
588.065,1329.1
588.599,1316.1
589.133,1312.1
589.667,1322.9
590.201,1320.0
590.735,1331.2
591.268,1331.0
591.802,1339.5
592.335,1332.2
592.869,1332.9
593.402,1334.7
593.936,1342.3
594.469,1353.6
595.002,1344.3
595.535,1352.5
596.068,1367.2
596.601,1359.3
597.133,1366.6
597.666,1368.6
598.199,1375.0
598.731,1379.5
599.264,1386.3
599.796,1381.3
600.328,1382.8
600.86,1379.8
601.393,1399.1
601.925,1394.7
602.457,1397.8
602.988,1406.1
603.52,1406.9
604.052,1412.2
604.583,1411.8
605.115,1405.5
605.646,1411.4
606.178,1397.5
606.709,1402.8
607.24,1419.7
607.771,1415.3
608.302,1425.8
608.833,1431.3
609.364,1426.1
609.895,1442.1
610.426,1442.9
610.957,1436.6
611.487,1443.3
612.018,1447.9
612.548,1459.4
613.078,1477.2
613.609,1474.2
614.139,1474.9
614.669,1484.0
615.199,1478.6
615.729,1493.1
616.259,1479.8
616.789,1492.6
617.319,1499.7
617.849,1508.3
618.378,1510.0
618.908,1510.0
619.437,1505.8
619.967,1497.1
620.496,1493.8
621.025,1504.8
621.555,1511.1
622.084,1501.7
622.613,1512.3
623.142,1522.8
623.671,1529.8
624.2,1523.3
624.729,1538.4
625.258,1540.6
625.786,1545.4
626.315,1544.8
626.844,1550.3
627.372,1541.9
627.901,1549.2
628.429,1573.1
628.957,1590.0
629.486,1609.1
630.014,1585.6
630.542,1601.3
631.07,1652.7
631.598,1794.1
632.126,1789.4
632.654,1705.2
633.182,1684.9
633.71,1679.5
634.237,1649.0
634.765,1651.1
635.293,1652.7
635.82,1712.3
636.348,1831.5
636.875,1854.0
637.403,1718.5
637.93,1680.0
638.458,1670.2
638.985,1674.4
639.512,1684.9
640.039,1675.6
640.566,1691.0
641.093,1699.6
641.62,1706.2
642.147,1710.8
642.674,1731.4
643.201,1710.9
643.728,1717.8
644.255,1716.6
644.781,1707.7
645.308,1719.5
645.835,1713.7
646.361,1720.7
646.888,1731.0
647.414,1740.9
647.941,1748.9
648.467,1743.9
648.993,1748.8
649.52,1730.6
650.046,1755.7
650.572,1734.4
651.098,1745.6
651.625,1740.9
652.151,1740.3
652.677,1756.0
653.203,1765.9
653.729,1762.4
654.255,1774.0
654.78,1764.4
655.306,1770.3
655.832,1778.1
656.358,1773.0
656.884,1771.7
657.409,1778.8
657.935,1772.9
658.461,1785.2
658.986,1781.8
659.512,1793.3
660.037,1781.1
660.563,1771.8
661.088,1787.7
661.614,1751.4
662.139,1773.0
662.664,1777.7
663.058,1768.3

File: VLFR_06-PET_nobio_Raman_07c84812.csv
nm,Intensity
526.5,827.9
527.047,829.8
527.594,829.1
528.14,829.8
528.687,829.0
529.233,828.6
529.779,829.6
530.325,829.8
530.871,829.7
531.417,828.3
531.962,835.1
532.508,828.9
533.053,828.4
533.599,831.7
534.144,1174.4
534.689,1095.0
535.234,1005.8
535.778,960.1
536.323,921.9
536.867,916.8
537.412,912.9
537.956,908.4
538.5,913.0
539.044,913.6
539.588,918.0
540.132,925.0
540.675,916.0
541.219,914.7
541.762,914.8
542.305,917.9
542.848,919.6
543.391,921.9
543.934,921.5
544.477,926.7
545.02,925.5
545.562,928.5
546.105,928.4
546.647,931.8
547.189,931.7
547.731,938.9
548.273,943.2
548.815,943.3
549.356,945.3
549.898,948.0
550.439,953.0
550.981,958.2
551.522,953.7
552.063,959.9
552.604,963.9
553.145,970.7
553.686,964.7
554.226,969.9
554.767,974.9
555.307,983.2
555.848,990.9
556.388,993.9
556.928,996.5
557.468,1035.0
558.008,1012.4
558.547,1010.1
559.087,999.1
559.626,1002.3
560.166,999.0
560.705,1005.4
561.244,1006.7
561.783,1008.1
562.322,1014.3
562.861,1025.3
563.4,1023.2
563.939,1021.6
564.477,1030.2
565.015,1049.8
565.554,1069.1
566.092,1074.7
566.63,1045.5
567.168,1051.1
567.706,1074.2
568.244,1051.7
568.781,1051.1
569.319,1060.3
569.857,1065.8
570.394,1086.0
570.931,1116.4
571.468,1147.0
572.005,1116.4
572.542,1090.1
573.079,1089.0
573.616,1088.7
574.153,1099.3
574.689,1096.1
575.226,1107.8
575.762,1107.4
576.298,1111.3
576.834,1124.7
577.371,1122.9
577.907,1116.0
578.442,1120.5
578.978,1120.8
579.514,1126.4
580.049,1131.0
580.585,1134.3
581.12,1140.2
581.656,1163.8
582.191,1466.8
582.726,1157.7
583.261,1150.8
583.796,1158.0
584.331,1163.1
584.865,1166.1
585.4,1199.2
585.935,1333.7
586.469,1278.9
587.004,1188.4
587.538,1184.5
588.072,1177.1
588.606,1185.3
589.14,1183.3
589.674,1183.8
590.208,1179.3
590.742,1183.4
591.275,1189.4
591.809,1189.2
592.342,1191.3
592.876,1194.5
593.409,1192.3
593.942,1191.9
594.476,1186.8
595.009,1208.2
595.542,1206.9
596.075,1203.4
596.607,1207.2
597.14,1208.7
597.673,1210.6
598.205,1218.9
598.738,1210.7
599.27,1211.3
599.803,1215.0
600.335,1213.5
600.867,1217.1
601.399,1218.1
601.931,1215.6
602.463,1222.1
602.995,1221.6
603.527,1223.1
604.058,1225.7
604.59,1215.6
605.122,1212.8
605.653,1208.4
606.184,1207.7
606.716,1215.3
607.247,1206.5
607.778,1219.1
608.309,1213.2
608.84,1220.5
609.371,1222.9
609.902,1227.8
610.433,1219.7
610.964,1221.1
611.494,1231.4
612.025,1218.9
612.556,1227.5
613.086,1236.7
613.616,1235.9
614.147,1240.8
614.677,1240.9
615.207,1237.4
615.737,1238.9
616.267,1238.1
616.797,1243.2
617.327,1244.7
617.857,1245.3
618.387,1252.7
618.917,1250.0
619.446,1251.3
619.976,1249.2
620.505,1248.2
621.035,1254.1
621.564,1253.3
622.093,1255.2
622.623,1270.9
623.152,1268.1
623.681,1269.7
624.21,1278.0
624.739,1280.9
625.268,1277.4
625.797,1277.3
626.326,1282.3
626.855,1284.6
627.383,1285.5
627.912,1294.8
628.441,1298.1
628.969,1318.4
629.498,1309.3
630.026,1310.0
630.554,1311.5
631.083,1338.1
631.611,1382.0
632.139,1372.6
632.667,1359.0
633.195,1364.9
633.724,1348.4
634.252,1353.8
634.779,1342.4
635.307,1342.4
635.835,1373.5
636.363,1405.5
636.891,1420.1
637.418,1385.0
637.946,1370.5
638.474,1371.2
639.001,1377.6
639.529,1385.7
640.056,1381.3
640.583,1389.5
641.111,1395.6
641.638,1392.9
642.165,1400.4
642.692,1401.1
643.22,1402.5
643.747,1401.9
644.274,1401.1
644.801,1400.5
645.328,1403.8
645.854,1398.1
646.381,1405.5
646.908,1405.4
647.435,1409.4
647.962,1412.6
648.488,1409.0
649.015,1415.2
649.542,1416.7
650.068,1407.4
650.595,1418.8
651.121,1411.4
651.648,1418.8
652.174,1420.8
652.7,1421.7
653.227,1407.3
653.753,1414.3
654.279,1431.4
654.805,1422.3
655.331,1424.2
655.858,1420.1
656.384,1420.6
656.91,1436.2
657.436,1425.8
657.962,1424.0
658.488,1416.1
659.013,1429.8
659.539,1431.7
660.065,1435.8
660.591,1430.8
661.117,1416.8
661.642,1418.2
662.168,1417.9
662.694,1412.6
663.088,1411.6

File: VLFR_06-PET_nobio_Raman_7cbb7457.csv
nm,Intensity
526.5,827.3
527.047,828.5
527.594,828.5
528.14,826.6
528.687,828.7
529.233,827.1
529.779,827.3
530.325,828.3
530.871,827.1
531.417,826.4
531.962,827.8
532.508,827.9
533.053,827.5
533.599,835.6
534.144,1884.9
534.689,1597.5
535.234,1309.6
535.778,1131.1
536.323,1029.4
536.867,981.8
537.412,969.6
537.956,959.4
538.5,966.2
539.044,959.6
539.588,971.4
540.132,979.3
540.675,953.6
541.219,938.6
541.762,935.5
542.305,934.4
542.848,938.2
543.391,935.9
543.934,944.9
544.477,944.1
545.02,945.8
545.562,944.9
546.105,949.4
546.647,955.3
547.189,955.0
547.731,957.0
548.273,959.2
548.815,961.8
549.356,961.9
549.898,962.4
550.439,980.4
550.981,985.7
551.522,973.9
552.063,984.4
552.604,991.9
553.145,999.4
553.686,989.8
554.226,989.0
554.767,993.5
555.307,1003.8
555.848,1048.9
556.388,1058.5
556.928,1072.1
557.468,1182.5
558.008,1091.7
558.547,1085.5
559.087,1052.7
559.626,1024.8
560.166,1029.0
560.705,1032.6
561.244,1038.9
561.783,1040.1
562.322,1059.9
562.861,1073.9
563.4,1076.3
563.939,1063.8
564.477,1076.5
565.015,1115.0
565.554,1177.0
566.092,1177.2
566.63,1094.6
567.168,1090.6
567.706,1156.1
568.244,1091.6
568.781,1095.5
569.319,1103.5
569.857,1126.4
570.394,1166.4
570.931,1289.9
571.468,1384.2
572.005,1245.7
572.542,1156.2
573.079,1142.8
573.616,1153.6
574.153,1165.9
574.689,1155.5
575.226,1182.3
575.762,1174.0
576.298,1193.0
576.834,1200.6
577.371,1182.6
577.907,1166.4
578.442,1180.1
578.978,1177.1
579.514,1184.1
580.049,1185.0
580.585,1200.0
581.12,1213.6
581.656,1291.0
582.191,2296.1
582.726,1267.7
583.261,1217.4
583.796,1225.4
584.331,1227.8
584.865,1238.1
585.4,1331.1
585.935,1793.2
586.469,1583.9
587.004,1292.1
587.538,1250.6
588.072,1247.0
588.606,1250.5
589.14,1245.8
589.674,1242.5
590.208,1248.2
590.742,1247.5
591.275,1258.8
591.809,1262.7
592.342,1263.5
592.876,1254.0
593.409,1267.7
593.942,1260.3
594.476,1262.2
595.009,1268.0
595.542,1275.0
596.075,1268.2
596.607,1271.5
597.14,1276.6
597.673,1286.2
598.205,1292.0
598.738,1294.7
599.27,1292.0
599.803,1295.1
600.335,1299.1
600.867,1297.7
601.399,1296.1
601.931,1297.7
602.463,1292.3
602.995,1297.9
603.527,1298.8
604.058,1302.3
604.59,1299.9
605.122,1288.7
605.653,1293.8
606.184,1292.5
606.716,1292.9
607.247,1290.6
607.778,1298.5
608.309,1303.6
608.84,1302.1
609.371,1311.0
609.902,1301.3
610.433,1304.4
610.964,1305.6
611.494,1307.7
612.025,1314.5
612.556,1322.8
613.086,1329.7
613.616,1330.8
614.147,1337.1
614.677,1343.6
615.207,1334.5
615.737,1327.3
616.267,1336.4
616.797,1343.1
617.327,1346.2
617.857,1346.7
618.387,1353.5
618.917,1359.7
619.446,1360.3
619.976,1343.0
620.505,1351.5
621.035,1350.3
621.564,1362.2
622.093,1365.3
622.623,1374.4
623.152,1368.7
623.681,1377.1
624.21,1378.8
624.739,1401.3
625.268,1395.9
625.797,1405.5
626.326,1400.8
626.855,1397.4
627.383,1401.4
627.912,1414.1
628.441,1439.7
628.969,1462.3
629.498,1458.2
630.026,1457.2
630.554,1461.3
631.083,1535.0
631.611,1641.2
632.139,1635.8
632.667,1576.4
633.195,1569.2
633.724,1544.4
634.252,1522.7
634.779,1504.6
635.307,1519.6
635.835,1574.4
636.363,1694.6
636.891,1698.6
637.418,1582.0
637.946,1557.2
638.474,1552.0
639.001,1549.8
639.529,1566.2
640.056,1558.6
640.583,1563.2
641.111,1570.0
641.638,1586.5
642.165,1612.3
642.692,1598.9
643.22,1587.5
643.747,1581.1
644.274,1592.4
644.801,1590.6
645.328,1593.1
645.854,1602.3
646.381,1596.4
646.908,1599.8
647.435,1618.3
647.962,1613.1
648.488,1627.2
649.015,1625.9
649.542,1625.2
650.068,1623.4
650.595,1614.6
651.121,1627.6
651.648,1626.5
652.174,1626.3
652.7,1639.3
653.227,1648.8
653.753,1644.4
654.279,1635.0
654.805,1646.1
655.331,1651.8
655.858,1641.6
656.384,1646.3
656.91,1652.7
657.436,1649.8
657.962,1655.7
658.488,1662.8
659.013,1649.0
659.539,1663.8
660.065,1658.4
660.591,1645.3
661.117,1648.2
661.642,1640.3
662.168,1643.6
662.694,1639.6
663.088,1636.5

File: VLFR_06-PET_nobio_Raman_7d1570de.csv
cm-1,Intensity
-123.878,1851.5
-105.821,1851.75
-87.8007,1851.3
-69.8161,1850.8
-51.8675,1853.05
-33.9547,1853.85
-16.0776,1874.15
1.76388,3040.75
19.5698,1853.9
37.3403,1855.9
55.0755,2156.55
72.7754,2838.85
90.4402,2710.7
108.07,2593.7
125.665,2472.8
143.225,2417.0
160.75,2391.15
178.241,2406.85
195.697,2433.8
213.119,2429.35
230.506,2448.85
247.859,2471.45
265.178,2488.35
282.463,2486.05
299.713,2489.75
316.93,2487.15
334.113,2497.55
351.263,2489.8
368.379,2531.05
385.461,2528.0
402.51,2560.6
419.526,2520.65
436.508,2568.75
453.458,2544.15
470.374,2547.35
487.257,2582.4
504.107,2607.55
520.925,2599.15
537.71,2590.45
554.462,2613.65
571.182,2645.2
587.87,2634.8
604.525,2643.9
621.148,2630.3
637.739,2726.35
654.297,2636.4
670.824,2667.2
687.319,2662.45
703.782,2706.35
720.213,2660.65
736.613,2685.3
752.981,2677.95
769.317,2714.95
785.623,2712.6
801.897,2770.4
818.139,2775.9
834.351,2788.2
850.532,2898.75
866.681,2861.75
882.8,2824.15
898.888,2817.75
914.945,2781.45
930.972,2799.25
946.968,2799.9
962.934,2837.95
978.869,2810.2
994.774,2884.65
1010.65,2903.7
1026.49,2937.2
1042.31,2921.7
1058.09,2897.95
1073.85,2944.95
1089.57,3003.85
1105.27,3044.55
1120.93,3159.55
1136.57,3027.0
1152.18,3048.05
1167.75,3035.0
1183.3,3114.0
1198.82,3086.75
1214.31,3129.4
1229.77,3142.7
1245.2,3162.1
1260.6,3264.2
1275.97,3384.05
1291.32,3487.8
1306.63,3368.65
1321.92,3316.45
1337.18,3269.3
1352.41,3286.9
1367.61,3310.3
1382.78,3311.35
1397.93,3371.2
1413.05,3403.4
1428.14,3404.3
1443.2,3453.15
1458.23,3414.05
1473.23,3461.25
1488.21,3466.5
1503.16,3458.95
1518.08,3460.15
1532.97,3523.05
1547.84,3502.0
1562.68,3530.65
1577.49,3584.55
1592.27,3611.05
1607.03,4158.7
1621.76,4034.05
1636.46,3572.5
1651.14,3602.65
1665.78,3640.55
1680.41,3658.0
1695.0,3619.3
1709.57,3819.4
1724.11,4278.05
1738.62,4016.95
1753.11,3700.15
1767.57,3661.5
1782.01,3704.3
1796.41,3676.9
1810.8,3681.75
1825.15,3619.4
1839.48,3741.7
1853.79,3678.9
1868.06,3670.45
1882.31,3760.4
1896.54,3751.55
1910.74,3733.65
1924.91,3724.6
1939.06,3725.55
1953.19,3723.7
1967.28,3748.85
1981.35,3718.1
1995.4,3737.25
2009.42,3780.65
2023.42,3780.15
2037.39,3793.25
2051.33,3794.85
2065.25,3790.3
2079.15,3778.75
2093.01,3764.9
2106.86,3790.4
2120.68,3803.8
2134.47,3777.35
2148.24,3841.65
2161.99,3853.75
2175.71,3740.35
2189.41,3927.2
2203.08,3840.75
2216.73,3841.25
2230.35,3811.3
2243.95,3871.05
2257.52,3813.65
2271.07,3848.55
2284.6,3846.2
2298.1,3839.5
2311.58,3907.7
2325.03,3870.9
2338.46,3903.1
2351.87,3760.0
2365.25,3867.65
2378.61,3843.45
2391.94,3862.65
2405.26,3949.35
2418.54,3909.3
2431.81,3943.6
2445.05,3916.65
2458.27,3909.4
2471.46,3857.95
2484.63,3887.9
2497.78,3921.2
2510.9,3967.85
2524.0,3864.55
2537.08,3919.4
2550.14,3915.65
2563.17,3943.2
2576.18,3886.3
2589.17,3912.9
2602.13,3878.5
2615.07,4012.35
2627.99,3884.7
2640.89,3914.35
2653.76,3974.4
2666.61,3918.65
2679.44,3897.05
2692.25,3982.8
2705.03,4031.55
2717.79,3986.95
2730.53,3943.9
2743.25,3986.75
2755.94,4031.8
2768.61,3936.8
2781.27,4005.25
2793.89,4049.2
2806.5,4058.8
2819.09,4041.9
2831.65,4057.85
2844.19,3995.65
2856.71,4122.2
2869.21,4097.8
2881.69,4107.9
2894.14,4049.25
2906.58,4234.2
2918.99,4125.45
2931.38,4143.5
2943.75,4170.65
2956.1,4408.55
2968.42,4432.85
2980.73,4369.75
2993.01,4304.85
3005.28,4347.25
3017.52,4296.8
3029.74,4282.8
3041.94,4310.6
3054.12,4213.8
3066.28,4310.6
3078.42,4521.55
3090.54,4461.2
3102.63,4283.0
3114.71,4292.2
3126.77,4301.55
3138.8,4221.4
3150.82,4264.7
3162.81,4333.45
3174.78,4263.55
3186.74,4261.15
3198.67,4327.9
3210.58,4316.2
3222.47,4266.8
3234.35,4354.8
3246.2,4241.9
3258.03,4275.5
3269.84,4313.3
3281.64,4250.1
3293.41,4313.35
3305.16,4291.3
3316.89,4239.5
3328.61,4223.05
3340.3,4235.0
3351.97,4296.6
3363.63,4271.25
3375.26,4230.75
3386.88,4150.8
3398.47,4192.45
3410.05,4202.4
3421.6,4206.6
3433.14,4215.25
3444.66,4128.65
3456.15,4233.0
3467.63,4084.25
3479.09,4078.4
3490.53,4101.05
3501.96,4156.6
3513.36,4030.4
3524.74,4047.6
3536.11,4052.9
3547.45,4048.65
3558.78,4024.45
3570.09,3943.05
3581.37,4034.55
3592.64,3960.05
3603.9,3911.5
3615.13,3890.3
3626.34,3864.1
3637.54,3849.6
3648.72,3873.95
3659.87,3861.3
3665.45,3736.9