Folder: MPX_specDB/spectra (part 106)

File: VLFR_07-PET_bio_Raman_d6062487.csv
nm,Intensity
791.75,7909.45
792.846,7802.4
793.942,7706.15
795.037,7640.25
796.133,7603.55
797.228,7608.2
798.324,7501.55
799.419,7531.9
800.514,7541.1
801.61,7510.3
802.705,7492.65
803.8,7414.85
804.894,7335.15
805.989,7333.15
807.084,7327.55
808.178,7244.2
809.273,7211.6
810.367,7206.25
811.461,7080.5
812.556,7154.8
813.65,7020.25
814.744,7033.0
815.837,6890.8
816.931,6899.05
818.025,6777.45
819.118,6866.45
820.212,6752.25
821.305,6756.5
822.398,6743.6
823.491,6618.5
824.585,6633.55
825.677,6644.85
826.77,6642.95
827.863,6520.3
828.956,6457.45
830.048,6456.05
831.14,6405.6
832.233,6361.3
833.325,6306.15
834.417,6301.65
835.509,6200.4
836.601,6252.5
837.692,6295.7
838.784,6207.85
839.876,6219.0
840.967,6243.7
842.058,6197.3
843.149,6142.15
844.24,6077.95
845.331,6022.35
846.422,5980.8
847.513,5965.25
848.604,5926.15
849.694,5920.85
850.784,5898.0
851.875,5871.8
852.965,5873.85
854.055,5841.25
855.145,5808.75
856.235,5802.6
857.324,5782.6
858.414,5809.05
859.503,5793.35
860.593,5824.2
861.682,5697.85
862.771,5699.95
863.86,5711.9
864.949,5722.25
866.038,5643.3
867.126,5598.4
868.215,5583.9
869.303,5605.3
870.391,5636.35
871.479,5659.85
872.567,5688.05
873.655,5644.8
874.743,5576.45
875.831,5520.3
876.918,5497.35
878.006,5469.75
879.093,5437.3
880.18,5401.45
881.267,5397.6
882.354,5434.7
883.441,5377.2
884.527,5346.5
885.614,5296.75
886.7,5292.45
887.786,5258.45
888.872,5207.6
889.958,5227.25
891.044,5195.7
892.13,5139.7
893.216,5138.65
894.301,5084.9
895.386,5062.65
896.472,5060.7
897.557,5178.25
898.642,5209.6
899.726,5090.8
900.811,4929.75
901.896,4889.25
902.98,4911.9
904.064,4904.85
905.148,4881.45
906.232,4910.2
907.316,4984.55
908.4,4953.9
909.484,4847.4
910.567,4744.95
911.65,4738.95
912.734,4686.25
913.817,4638.6
914.9,4619.55
915.982,4630.95
917.065,4613.95
918.147,4583.85
919.23,4572.6
920.312,4553.8
921.394,4535.9
922.476,4501.45
923.558,4481.65
924.639,4468.65
925.721,4455.8
926.802,4412.75
927.884,4410.95
928.965,4373.45
930.046,4368.15
931.126,4336.1
932.207,4315.8
933.288,4290.1
934.368,4298.4
935.448,4280.35
936.528,4235.45
937.608,4234.2
938.688,4225.4
939.767,4209.75
940.847,4199.7
941.926,4187.35
943.005,4163.8
944.084,4162.8
945.163,4148.85
946.242,4133.5
947.321,4132.6
948.399,4106.0
949.477,4102.6
950.556,4092.35
951.634,4078.1
952.711,4064.3
953.789,4059.65
954.867,4052.5
955.944,4047.55
957.021,4033.55
958.098,4028.0
959.175,4008.35
960.252,4009.95
961.328,4003.6
962.405,3997.6
963.481,3981.0
964.557,3979.75
965.633,3977.5
966.709,3967.4
967.785,3962.25
968.86,3954.25
969.936,3948.75
971.011,3948.0
972.086,3930.35
973.161,3926.85
974.235,3923.45
975.31,3915.6
976.384,3912.15
977.459,3900.5
978.533,3904.35
979.607,3898.15
980.68,3891.8
981.754,3885.3
982.827,3881.9
983.901,3877.75
984.974,3870.45
986.047,3871.6
987.119,3871.1
988.192,3869.3
989.264,3859.95
990.337,3852.8
991.409,3849.15
992.481,3846.15
993.553,3843.3
994.624,3835.9
995.696,3835.95
996.767,3833.75
997.838,3823.95
998.909,3826.8
999.98,3823.95
1001.05,3820.3
1002.12,3815.8
1003.19,3817.15
1004.26,3808.95
1005.33,3811.1
1006.4,3806.15
1007.47,3802.0
1008.54,3798.75
1009.61,3796.9
1010.68,3793.45
1011.75,3792.95
1012.82,3790.8
1013.88,3789.75
1014.95,3788.05
1016.02,3786.4
1017.09,3784.6
1018.16,3782.1
1019.22,3780.25
1020.29,3779.5
1021.36,3780.1
1022.43,3781.35
1023.49,3780.65
1024.56,3777.75
1025.63,3773.15
1026.69,3771.7
1027.76,3769.15
1028.83,3766.05
1029.89,3764.05
1030.96,3763.4
1032.02,3762.3
1033.09,3763.85
1034.15,3763.95
1035.22,3762.65
1036.28,3762.1
1037.35,3760.15
1038.41,3758.7
1039.48,3757.95
1040.54,3754.95
1041.6,3753.85
1042.67,3752.1
1043.73,3751.6
1044.79,3751.75
1045.86,3752.6
1046.92,3751.65
1047.98,3750.9
1049.05,3750.35
1050.11,3750.65
1051.17,3748.2
1052.23,3751.05
1053.29,3748.95
1054.36,3749.1
1055.42,3749.1
1056.48,3747.3
1057.54,3748.3
1058.6,3747.25
1059.66,3747.7
1060.72,3747.6
1061.78,3747.35
1062.84,3745.2
1063.9,3746.4
1064.96,3745.5
1066.02,3745.05
1067.08,3745.2
1067.88,3743.85

File: VLFR_07-PET_bio_Raman_dc7a9a36.csv
nm,Intensity
791.75,8751.65
792.846,8327.15
793.942,8169.15
795.037,8038.85
796.133,7990.35
797.228,7907.4
798.324,7912.55
799.419,7950.7
800.514,7813.15
801.61,7875.55
802.705,7799.95
803.8,7721.6
804.894,7652.4
805.989,7677.4
807.084,7631.65
808.178,7520.65
809.273,7435.25
810.367,7427.95
811.461,7427.55
812.556,7359.55
813.65,7274.3
814.744,7237.0
815.837,7157.15
816.931,7121.1
818.025,6983.8
819.118,7080.75
820.212,6991.95
821.305,6989.05
822.398,6888.35
823.491,6806.7
824.585,6759.8
825.677,6906.85
826.77,6754.3
827.863,6691.85
828.956,6558.2
830.048,6612.65
831.14,6654.65
832.233,6509.35
833.325,6464.65
834.417,6488.4
835.509,6370.55
836.601,6454.1
837.692,6471.95
838.784,6467.35
839.876,6334.95
840.967,6504.1
842.058,6424.3
843.149,6275.25
844.24,6311.95
845.331,6195.25
846.422,6118.7
847.513,6119.5
848.604,6055.15
849.694,6026.45
850.784,6021.85
851.875,5995.7
852.965,5942.3
854.055,5993.65
855.145,5909.3
856.235,5902.15
857.324,5890.05
858.414,5924.25
859.503,5948.35
860.593,5838.85
861.682,5812.5
862.771,5780.3
863.86,5776.35
864.949,5684.1
866.038,5690.05
867.126,5663.15
868.215,5641.3
869.303,5616.75
870.391,5666.2
871.479,5724.55
872.567,5771.65
873.655,5733.8
874.743,5615.35
875.831,5537.4
876.918,5524.65
878.006,5460.05
879.093,5414.8
880.18,5431.35
881.267,5396.6
882.354,5382.5
883.441,5351.5
884.527,5361.6
885.614,5350.05
886.7,5283.55
887.786,5264.05
888.872,5237.3
889.958,5194.5
891.044,5215.75
892.13,5165.65
893.216,5140.8
894.301,5095.65
895.386,5095.9
896.472,5063.95
897.557,5225.95
898.642,5314.5
899.726,5163.3
900.811,4976.6
901.896,4902.15
902.98,4910.35
904.064,4920.6
905.148,4885.4
906.232,4958.6
907.316,5079.15
908.4,5041.35
909.484,4885.7
910.567,4794.6
911.65,4754.85
912.734,4703.2
913.817,4675.25
914.9,4637.75
915.982,4609.15
917.065,4621.9
918.147,4583.7
919.23,4554.15
920.312,4529.6
921.394,4528.2
922.476,4525.5
923.558,4488.25
924.639,4467.45
925.721,4437.55
926.802,4419.05
927.884,4405.15
928.965,4369.6
930.046,4347.35
931.126,4321.55
932.207,4307.35
933.288,4319.25
934.368,4263.35
935.448,4251.6
936.528,4230.95
937.608,4223.2
938.688,4226.85
939.767,4212.8
940.847,4192.45
941.926,4167.0
943.005,4152.3
944.084,4137.45
945.163,4121.4
946.242,4116.9
947.321,4097.65
948.399,4104.05
949.477,4074.4
950.556,4065.4
951.634,4055.4
952.711,4047.3
953.789,4041.9
954.867,4033.2
955.944,4016.95
957.021,4012.35
958.098,3996.45
959.175,3987.05
960.252,3990.5
961.328,3976.3
962.405,3974.45
963.481,3958.7
964.557,3953.75
965.633,3947.9
966.709,3943.35
967.785,3935.85
968.86,3933.45
969.936,3919.75
971.011,3917.15
972.086,3911.45
973.161,3906.65
974.235,3892.8
975.31,3889.25
976.384,3880.55
977.459,3880.9
978.533,3875.3
979.607,3873.05
980.68,3861.7
981.754,3865.95
982.827,3859.8
983.901,3856.85
984.974,3847.9
986.047,3854.8
987.119,3851.9
988.192,3842.7
989.264,3834.0
990.337,3829.95
991.409,3826.8
992.481,3824.0
993.553,3824.15
994.624,3820.4
995.696,3814.8
996.767,3812.8
997.838,3814.3
998.909,3808.45
999.98,3804.8
1001.05,3799.35
1002.12,3798.45
1003.19,3799.25
1004.26,3795.7
1005.33,3795.4
1006.4,3789.0
1007.47,3786.35
1008.54,3785.7
1009.61,3782.7
1010.68,3781.65
1011.75,3779.05
1012.82,3776.5
1013.88,3776.05
1014.95,3775.45
1016.02,3772.6
1017.09,3770.3
1018.16,3769.85
1019.22,3769.7
1020.29,3768.6
1021.36,3771.55
1022.43,3770.3
1023.49,3771.1
1024.56,3766.15
1025.63,3764.15
1026.69,3760.85
1027.76,3757.9
1028.83,3756.05
1029.89,3754.8
1030.96,3752.4
1032.02,3753.45
1033.09,3753.55
1034.15,3754.1
1035.22,3753.05
1036.28,3753.1
1037.35,3749.7
1038.41,3749.15
1039.48,3745.65
1040.54,3745.95
1041.6,3746.2
1042.67,3744.15
1043.73,3745.7
1044.79,3744.1
1045.86,3743.4
1046.92,3742.35
1047.98,3742.6
1049.05,3741.6
1050.11,3741.45
1051.17,3741.3
1052.23,3740.1
1053.29,3740.2
1054.36,3739.8
1055.42,3739.7
1056.48,3739.85
1057.54,3739.05
1058.6,3736.7
1059.66,3738.6
1060.72,3738.55
1061.78,3737.95
1062.84,3737.7
1063.9,3737.8
1064.96,3737.9
1066.02,3738.0
1067.08,3737.4
1067.88,3736.7

File: VLFR_07-PET_bio_Raman_dfaab42c.csv
nm,Intensity
791.75,13329.2
792.846,12439.3
793.942,12187.3
795.037,11921.8
796.133,11635.4
797.228,11646.2
798.324,11532.1
799.419,11567.5
800.514,11333.5
801.61,11456.8
802.705,11391.5
803.8,10973.0
804.894,10862.3
805.989,10839.7
807.084,10722.5
808.178,10642.2
809.273,10401.0
810.367,10319.0
811.461,10373.8
812.556,10161.8
813.65,10062.7
814.744,10015.0
815.837,9999.8
816.931,9861.9
818.025,9700.65
819.118,9552.55
820.212,9638.5
821.305,9572.9
822.398,9247.95
823.491,9295.2
824.585,9202.4
825.677,9562.4
826.77,9018.55
827.863,8939.1
828.956,8788.65
830.048,8826.0
831.14,8831.95
832.233,8503.5
833.325,8462.35
834.417,8451.75
835.509,8401.2
836.601,8352.5
837.692,8302.4
838.784,8318.35
839.876,8152.3
840.967,8523.45
842.058,8176.2
843.149,8164.45
844.24,7908.55
845.331,7736.55
846.422,7656.95
847.513,7658.35
848.604,7550.2
849.694,7545.7
850.784,7439.3
851.875,7412.7
852.965,7442.65
854.055,7368.2
855.145,7299.5
856.235,7245.7
857.324,7273.65
858.414,7379.4
859.503,7335.8
860.593,7279.45
861.682,7097.1
862.771,6977.4
863.86,7002.8
864.949,7025.35
866.038,6878.2
867.126,6853.7
868.215,6756.0
869.303,6795.75
870.391,6893.3
871.479,6987.15
872.567,7197.55
873.655,7070.75
874.743,6747.0
875.831,6535.6
876.918,6518.75
878.006,6441.7
879.093,6354.65
880.18,6408.05
881.267,6365.35
882.354,6300.9
883.441,6263.6
884.527,6296.95
885.614,6235.8
886.7,6122.95
887.786,6120.15
888.872,6034.8
889.958,5945.7
891.044,5984.45
892.13,5980.7
893.216,5819.05
894.301,5773.95
895.386,5711.4
896.472,5800.7
897.557,6339.45
898.642,6281.35
899.726,5745.05
900.811,5548.9
901.896,5446.75
902.98,5489.8
904.064,5455.7
905.148,5389.95
906.232,5687.05
907.316,5918.4
908.4,5703.25
909.484,5368.0
910.567,5218.2
911.65,5127.3
912.734,5127.85
913.817,5081.65
914.9,5002.8
915.982,5003.4
917.065,4976.05
918.147,4949.45
919.23,4913.7
920.312,4852.45
921.394,4836.6
922.476,4846.25
923.558,4783.35
924.639,4771.1
925.721,4740.85
926.802,4687.5
927.884,4679.9
928.965,4621.65
930.046,4592.95
931.126,4549.0
932.207,4552.85
933.288,4516.5
934.368,4507.15
935.448,4445.45
936.528,4459.45
937.608,4419.95
938.688,4391.8
939.767,4369.0
940.847,4365.0
941.926,4344.1
943.005,4305.3
944.084,4286.5
945.163,4271.6
946.242,4278.25
947.321,4240.85
948.399,4230.0
949.477,4218.7
950.556,4201.15
951.634,4177.7
952.711,4168.85
953.789,4153.25
954.867,4136.5
955.944,4117.6
957.021,4108.65
958.098,4100.85
959.175,4089.15
960.252,4070.7
961.328,4074.75
962.405,4055.35
963.481,4048.65
964.557,4026.55
965.633,4026.05
966.709,4013.2
967.785,4001.05
968.86,3984.05
969.936,3979.85
971.011,3977.75
972.086,3975.65
973.161,3952.0
974.235,3937.2
975.31,3945.9
976.384,3930.35
977.459,3918.15
978.533,3917.45
979.607,3904.4
980.68,3907.15
981.754,3896.5
982.827,3889.85
983.901,3883.25
984.974,3875.9
986.047,3868.1
987.119,3869.25
988.192,3866.7
989.264,3855.1
990.337,3848.45
991.409,3840.15
992.481,3836.6
993.553,3832.85
994.624,3827.9
995.696,3816.2
996.767,3818.0
997.838,3813.25
998.909,3811.7
999.98,3804.2
1001.05,3802.9
1002.12,3794.95
1003.19,3794.2
1004.26,3788.4
1005.33,3785.95
1006.4,3784.5
1007.47,3777.85
1008.54,3773.15
1009.61,3772.05
1010.68,3768.5
1011.75,3768.6
1012.82,3763.15
1013.88,3763.3
1014.95,3761.45
1016.02,3756.05
1017.09,3755.7
1018.16,3754.05
1019.22,3750.55
1020.29,3757.1
1021.36,3757.4
1022.43,3759.55
1023.49,3753.0
1024.56,3746.4
1025.63,3742.3
1026.69,3739.95
1027.76,3736.7
1028.83,3733.4
1029.89,3731.4
1030.96,3729.0
1032.02,3729.15
1033.09,3730.25
1034.15,3735.25
1035.22,3733.0
1036.28,3729.1
1037.35,3726.2
1038.41,3721.65
1039.48,3721.0
1040.54,3717.95
1041.6,3717.45
1042.67,3717.4
1043.73,3717.4
1044.79,3715.55
1045.86,3712.9
1046.92,3713.1
1047.98,3714.0
1049.05,3713.1
1050.11,3711.95
1051.17,3711.05
1052.23,3711.25
1053.29,3710.95
1054.36,3711.1
1055.42,3712.05
1056.48,3710.2
1057.54,3709.1
1058.6,3708.8
1059.66,3709.4
1060.72,3709.0
1061.78,3708.45
1062.84,3707.7
1063.9,3706.9
1064.96,3707.6
1066.02,3707.2
1067.08,3707.2
1067.88,3707.5

File: VLFR_07-PET_bio_Raman_e2af9574.csv
nm,Intensity
791.377,8018.4
792.477,7705.92
793.576,7481.64
794.676,7415.48
795.775,7266.54
796.874,7329.98
797.973,7279.72
799.072,7236.16
800.171,7135.42
801.27,7129.62
802.368,7161.5
803.467,6975.44
804.565,6943.28
805.664,6932.2
806.762,6832.74
807.86,6754.14
808.958,6742.46
810.056,6717.38
811.153,6638.96
812.251,6631.86
813.349,6525.72
814.446,6502.66
815.543,6469.0
816.64,6421.98
817.737,6321.58
818.834,6336.96
819.931,6279.98
821.028,6231.3
822.125,6239.86
823.221,6107.58
824.317,6092.9
825.414,6125.42
826.51,6085.32
827.606,6000.82
828.702,5919.38
829.797,5903.3
830.893,5957.0
831.988,5790.24
833.084,5770.34
834.179,5768.74
835.274,5702.18
836.369,5731.94
837.464,5698.76
838.559,5692.82
839.654,5667.38
840.748,5646.62
841.843,5710.0
842.937,5616.48
844.031,5578.02
845.125,5465.8
846.219,5466.24
847.313,5372.76
848.407,5391.66
849.5,5413.2
850.593,5356.4
851.687,5362.32
852.78,5292.6
853.873,5267.56
854.966,5259.12
856.059,5273.42
857.151,5236.8
858.244,5256.8
859.336,5251.6
860.428,5249.48
861.52,5224.58
862.612,5153.06
863.704,5161.66
864.796,5133.92
865.888,5098.74
866.979,5055.8
868.07,5040.62
869.162,5057.72
870.253,5063.34
871.344,5071.6
872.434,5122.68
873.525,5102.38
874.615,5079.7
875.706,4964.82
876.796,4954.28
877.886,4924.82
878.976,4890.02
880.066,4892.1
881.156,4868.06
882.245,4875.7
883.335,4828.86
884.424,4808.28
885.513,4809.0
886.602,4785.14
887.691,4743.52
888.78,4793.28
889.868,4732.74
890.957,4710.48
892.045,4715.72
893.133,4676.5
894.221,4608.86
895.309,4637.7
896.397,4597.88
897.484,4664.78
898.571,4810.84
899.659,4660.78
900.746,4534.3
901.833,4512.24
902.92,4513.98
904.006,4470.16
905.093,4472.28
906.179,4494.52
907.266,4601.5
908.352,4566.6
909.438,4485.1
910.523,4412.2
911.609,4375.94
912.695,4375.26
913.78,4321.34
914.865,4334.5
915.95,4331.06
917.035,4286.08
918.12,4277.12
919.204,4282.94
920.289,4284.5
921.373,4245.66
922.457,4221.38
923.541,4232.32
924.625,4212.9
925.709,4209.96
926.792,4183.78
927.876,4170.02
928.959,4155.5
930.042,4129.88
931.125,4125.48
932.208,4103.22
933.29,4090.08
934.373,4083.24
935.455,4070.24
936.537,4061.44
937.619,4060.04
938.701,4043.28
939.782,4055.04
940.864,4041.22
941.945,4032.52
943.026,4018.54
944.107,4013.5
945.188,4000.58
946.269,3994.82
947.349,3992.5
948.43,3985.26
949.51,3971.24
950.59,3968.96
951.67,3968.1
952.75,3954.6
953.829,3950.46
954.909,3947.36
955.988,3947.96
957.067,3940.78
958.146,3931.84
959.224,3933.38
960.303,3923.86
961.381,3915.82
962.459,3912.36
963.537,3910.04
964.615,3908.28
965.693,3899.86
966.771,3894.22
967.848,3902.32
968.925,3893.52
970.002,3887.22
971.079,3885.26
972.156,3882.88
973.232,3873.28
974.309,3874.4
975.385,3870.5
976.461,3867.36
977.537,3864.4
978.612,3860.04
979.688,3860.68
980.763,3857.18
981.838,3854.46
982.913,3852.8
983.988,3852.56
985.063,3846.8
986.137,3845.6
987.211,3846.66
988.285,3839.48
989.359,3839.64
990.433,3838.46
991.506,3832.56
992.58,3833.5
993.653,3829.06
994.726,3826.64
995.799,3826.6
996.872,3824.04
997.944,3821.36
999.016,3820.0
1000.09,3819.88
1001.16,3817.88
1002.23,3818.62
1003.3,3814.58
1004.38,3813.12
1005.45,3812.9
1006.52,3810.38
1007.59,3808.34
1008.66,3807.78
1009.73,3806.58
1010.8,3804.66
1011.87,3804.44
1012.94,3803.64
1014.01,3804.5
1015.08,3800.64
1016.15,3800.78
1017.22,3799.08
1018.29,3798.86
1019.36,3798.14
1020.42,3797.04
1021.49,3797.92
1022.56,3798.94
1023.63,3796.7
1024.7,3796.42
1025.76,3793.2
1026.83,3792.7
1027.9,3791.28
1028.97,3791.2
1030.03,3789.8
1031.1,3788.58
1032.17,3788.72
1033.23,3788.42
1034.3,3788.86
1035.36,3789.82
1036.43,3788.3
1037.5,3787.8
1038.56,3786.6
1039.63,3785.9
1040.69,3785.62
1041.76,3785.4
1042.82,3783.96
1043.89,3784.2
1044.95,3782.92
1046.01,3782.28
1047.08,3783.56
1048.14,3783.18
1049.2,3781.74
1050.27,3783.02
1051.33,3781.76
1052.39,3781.78
1053.46,3781.62
1054.52,3781.42
1055.58,3781.7
1056.64,3781.4
1057.7,3781.26
1058.77,3780.56
1059.83,3781.28
1060.89,3781.14
1061.95,3781.6
1063.01,3780.64
1064.07,3780.86
1065.13,3780.12
1066.19,3780.16
1067.25,3779.7
1068.05,3780.36

File: VLFR_07-PET_bio_Raman_e7fd8492.csv
nm,Intensity
791.377,9219.36
792.477,8612.26
793.576,8265.56
794.676,8073.8
795.775,7912.36
796.874,7939.28
797.973,7908.14
799.072,7939.36
800.171,7888.94
801.27,7867.04
802.368,7885.54
803.467,7807.3
804.565,7693.96
805.664,7654.6
806.762,7548.48
807.86,7541.84
808.958,7477.9
810.056,7471.68
811.153,7431.1
812.251,7365.32
813.349,7275.92
814.446,7222.12
815.543,7132.82
816.64,7176.3
817.737,7099.74
818.834,7014.44
819.931,6956.7
821.028,6952.28
822.125,6871.22
823.221,6843.94
824.317,6788.2
825.414,6820.54
826.51,6897.62
827.606,6635.94
828.702,6668.64
829.797,6604.04
830.893,6676.92
831.988,6519.94
833.084,6538.74
834.179,6514.88
835.274,6407.48
836.369,6430.22
837.464,6485.34
838.559,6410.92
839.654,6406.2
840.748,6522.08
841.843,6585.18
842.937,6412.5
844.031,6350.8
845.125,6176.46
846.219,6139.46
847.313,6117.8
848.407,6052.26
849.5,5974.98
850.593,6055.7
851.687,6069.84
852.78,6144.78
853.873,5976.7
854.966,5943.24
856.059,5887.26
857.151,5809.28
858.244,5911.5
859.336,5991.8
860.428,5960.6
861.52,5914.78
862.612,5766.98
863.704,5788.64
864.796,5762.82
865.888,5724.04
866.979,5637.96
868.07,5654.02
869.162,5611.16
870.253,5684.72
871.344,5760.22
872.434,5857.42
873.525,5900.22
874.615,5736.24
875.706,5640.06
876.796,5551.5
877.886,5507.16
878.976,5481.36
880.066,5466.98
881.156,5490.36
882.245,5398.26
883.335,5456.2
884.424,5461.82
885.513,5378.08
886.602,5407.82
887.691,5347.76
888.78,5320.92
889.868,5266.82
890.957,5276.38
892.045,5227.36
893.133,5253.7
894.221,5168.52
895.309,5162.84
896.397,5164.76
897.484,5293.2
898.571,5719.92
899.659,5464.8
900.746,5084.46
901.833,4999.08
902.92,5005.36
904.006,4997.42
905.093,4947.26
906.179,5059.14
907.266,5284.38
908.352,5370.96
909.438,5105.0
910.523,4893.5
911.609,4807.52
912.695,4780.98
913.78,4776.16
914.865,4710.36
915.95,4731.36
917.035,4674.38
918.12,4659.3
919.204,4650.36
920.289,4622.86
921.373,4575.96
922.457,4564.78
923.541,4546.6
924.625,4522.24
925.709,4494.46
926.792,4492.08
927.876,4463.24
928.959,4426.92
930.042,4424.54
931.125,4400.66
932.208,4366.82
933.29,4365.92
934.373,4342.64
935.455,4313.4
936.537,4320.0
937.619,4299.42
938.701,4281.66
939.782,4256.42
940.864,4250.74
941.945,4242.26
943.026,4221.84
944.107,4193.92
945.188,4182.64
946.269,4176.5
947.349,4157.02
948.43,4145.3
949.51,4147.52
950.59,4126.04
951.67,4109.08
952.75,4103.94
953.829,4096.52
954.909,4088.68
955.988,4079.58
957.067,4055.8
958.146,4057.32
959.224,4056.72
960.303,4038.4
961.381,4026.34
962.459,4026.3
963.537,4015.76
964.615,4002.38
965.693,4000.76
966.771,3991.94
967.848,3984.22
968.925,3987.3
970.002,3978.64
971.079,3964.38
972.156,3957.14
973.232,3962.96
974.309,3949.84
975.385,3943.78
976.461,3943.24
977.537,3936.24
978.612,3928.48
979.688,3924.28
980.763,3926.46
981.838,3916.26
982.913,3910.28
983.988,3906.3
985.063,3904.0
986.137,3896.9
987.211,3900.96
988.285,3892.5
989.359,3891.14
990.433,3885.48
991.506,3880.24
992.58,3875.44
993.653,3872.02
994.726,3869.96
995.799,3868.04
996.872,3863.76
997.944,3861.02
999.016,3856.46
1000.09,3855.64
1001.16,3848.76
1002.23,3853.16
1003.3,3847.56
1004.38,3844.8
1005.45,3842.86
1006.52,3839.42
1007.59,3837.1
1008.66,3834.58
1009.73,3832.54
1010.8,3827.52
1011.87,3828.46
1012.94,3826.76
1014.01,3825.86
1015.08,3824.66
1016.15,3824.1
1017.22,3821.24
1018.29,3818.16
1019.36,3819.24
1020.42,3817.84
1021.49,3823.14
1022.56,3824.88
1023.63,3821.66
1024.7,3820.34
1025.76,3816.4
1026.83,3809.4
1027.9,3807.94
1028.97,3804.92
1030.03,3803.02
1031.1,3800.76
1032.17,3800.96
1033.23,3800.28
1034.3,3805.6
1035.36,3806.94
1036.43,3802.64
1037.5,3800.36
1038.56,3795.42
1039.63,3794.46
1040.69,3793.48
1041.76,3791.26
1042.82,3791.14
1043.89,3789.42
1044.95,3789.24
1046.01,3787.74
1047.08,3789.0
1048.14,3788.38
1049.2,3787.26
1050.27,3787.08
1051.33,3787.48
1052.39,3787.32
1053.46,3786.1
1054.52,3785.52
1055.58,3785.52
1056.64,3785.28
1057.7,3785.02
1058.77,3784.62
1059.83,3784.22
1060.89,3783.84
1061.95,3784.68
1063.01,3784.04
1064.07,3783.54
1065.13,3783.42
1066.19,3782.66
1067.25,3783.5
1068.05,3782.34

File: VLFR_07-PET_bio_Raman_e527f017.csv
nm,Intensity
791.75,11009.4
792.846,10679.8
793.942,10355.8
795.037,10203.3
796.133,10122.2
797.228,10114.5
798.324,9910.65
799.419,9990.65
800.514,10049.0
801.61,10035.0
802.705,9997.9
803.8,9875.15
804.894,9803.4
805.989,9745.1
807.084,9687.7
808.178,9645.6
809.273,9557.15
810.367,9492.3
811.461,9339.9
812.556,9422.75
813.65,9172.35
814.744,9177.1
815.837,8985.4
816.931,9001.95
818.025,8748.3
819.118,8856.6
820.212,8638.55
821.305,8649.15
822.398,8592.75
823.491,8459.7
824.585,8411.55
825.677,8419.8
826.77,8421.6
827.863,8212.55
828.956,8102.35
830.048,8086.15
831.14,8073.1
832.233,7972.2
833.325,7915.65
834.417,7889.3
835.509,7759.9
836.601,7808.25
837.692,7861.9
838.784,7767.45
839.876,7790.75
840.967,7834.45
842.058,7764.05
843.149,7670.5
844.24,7526.05
845.331,7384.6
846.422,7399.95
847.513,7288.85
848.604,7247.0
849.694,7217.35
850.784,7190.75
851.875,7137.2
852.965,7155.9
854.055,7064.7
855.145,7032.45
856.235,6949.95
857.324,6958.95
858.414,6984.35
859.503,7013.0
860.593,7000.5
861.682,6782.75
862.771,6778.35
863.86,6824.2
864.949,6804.15
866.038,6670.6
867.126,6567.7
868.215,6550.35
869.303,6580.1
870.391,6627.95
871.479,6645.0
872.567,6762.3
873.655,6645.1
874.743,6512.05
875.831,6407.2
876.918,6375.4
878.006,6370.95
879.093,6251.85
880.18,6218.85
881.267,6245.2
882.354,6253.05
883.441,6175.4
884.527,6161.85
885.614,6065.55
886.7,6059.65
887.786,5991.85
888.872,5929.95
889.958,5961.95
891.044,5933.9
892.13,5858.8
893.216,5829.45
894.301,5792.15
895.386,5729.95
896.472,5750.25
897.557,5926.3
898.642,6040.0
899.726,5819.6
900.811,5559.05
901.896,5492.3
902.98,5520.65
904.064,5504.5
905.148,5482.1
906.232,5559.85
907.316,5675.6
908.4,5640.85
909.484,5441.25
910.567,5266.55
911.65,5230.95
912.734,5166.8
913.817,5113.25
914.9,5080.7
915.982,5070.65
917.065,5051.25
918.147,5012.5
919.23,4989.95
920.312,4966.35
921.394,4952.7
922.476,4876.4
923.558,4839.95
924.639,4841.7
925.721,4781.05
926.802,4743.2
927.884,4730.75
928.965,4696.75
930.046,4639.9
931.126,4623.45
932.207,4589.25
933.288,4548.3
934.368,4549.85
935.448,4539.1
936.528,4473.85
937.608,4464.1
938.688,4452.0
939.767,4426.75
940.847,4407.75
941.926,4395.05
943.005,4364.95
944.084,4341.7
945.163,4330.85
946.242,4315.75
947.321,4288.25
948.399,4266.2
949.477,4259.0
950.556,4250.0
951.634,4222.75
952.711,4204.1
953.789,4193.05
954.867,4184.35
955.944,4174.25
957.021,4146.4
958.098,4141.6
959.175,4124.9
960.252,4111.3
961.328,4103.6
962.405,4101.35
963.481,4074.1
964.557,4071.3
965.633,4056.85
966.709,4051.25
967.785,4039.15
968.86,4032.25
969.936,4024.55
971.011,4019.8
972.086,3996.6
973.161,3993.75
974.235,3988.0
975.31,3969.7
976.384,3972.45
977.459,3958.8
978.533,3961.7
979.607,3945.6
980.68,3941.25
981.754,3937.35
982.827,3927.6
983.901,3926.0
984.974,3912.25
986.047,3913.2
987.119,3906.7
988.192,3905.1
989.264,3897.05
990.337,3888.1
991.409,3886.2
992.481,3876.4
993.553,3878.7
994.624,3865.85
995.696,3862.2
996.767,3858.9
997.838,3852.0
998.909,3853.0
999.98,3847.75
1001.05,3844.2
1002.12,3839.8
1003.19,3835.5
1004.26,3830.45
1005.33,3830.55
1006.4,3828.0
1007.47,3822.5
1008.54,3814.85
1009.61,3812.75
1010.68,3812.85
1011.75,3807.45
1012.82,3808.7
1013.88,3804.7
1014.95,3801.05
1016.02,3798.95
1017.09,3797.2
1018.16,3791.75
1019.22,3791.45
1020.29,3791.9
1021.36,3792.95
1022.43,3793.45
1023.49,3792.1
1024.56,3789.45
1025.63,3784.45
1026.69,3779.5
1027.76,3776.65
1028.83,3772.65
1029.89,3770.15
1030.96,3769.2
1032.02,3770.45
1033.09,3767.3
1034.15,3771.1
1035.22,3770.8
1036.28,3769.45
1037.35,3766.45
1038.41,3762.15
1039.48,3760.1
1040.54,3760.8
1041.6,3757.6
1042.67,3756.75
1043.73,3755.55
1044.79,3754.8
1045.86,3754.5
1046.92,3754.55
1047.98,3752.85
1049.05,3752.05
1050.11,3752.1
1051.17,3751.65
1052.23,3752.45
1053.29,3750.95
1054.36,3751.45
1055.42,3750.7
1056.48,3748.8
1057.54,3749.2
1058.6,3748.65
1059.66,3748.75
1060.72,3749.65
1061.78,3750.2
1062.84,3747.9
1063.9,3747.25
1064.96,3747.15
1066.02,3746.3
1067.08,3744.8
1067.88,3745.1