Folder: MPX_specDB/spectra (part 41)

File: VLFR_02-HDPE_bio_Raman_0882fc36.csv
nm,Intensity
526.508,832.4
527.055,830.4
527.602,832.0
528.149,830.0
528.695,831.6
529.241,830.6
529.787,831.4
530.334,829.5
530.879,831.5
531.425,830.3
531.971,834.3
532.516,830.7
533.062,830.4
533.607,831.1
534.152,889.6
534.697,878.9
535.242,870.2
535.786,857.6
536.331,855.8
536.876,851.8
537.42,853.8
537.964,851.6
538.508,851.6
539.052,847.9
539.596,845.7
540.14,841.5
540.683,844.1
541.227,842.0
541.77,842.8
542.313,842.3
542.856,841.6
543.399,842.0
543.942,840.7
544.485,842.5
545.027,840.6
545.57,843.2
546.112,839.0
546.654,841.4
547.196,842.3
547.738,842.0
548.28,842.2
548.822,842.5
549.363,840.8
549.905,841.4
550.446,841.0
550.988,842.1
551.529,842.4
552.07,841.5
552.611,840.6
553.152,843.2
553.692,843.0
554.233,842.8
554.773,843.4
555.314,844.9
555.854,847.4
556.394,847.0
556.934,847.1
557.474,852.9
558.014,853.7
558.553,854.8
559.093,851.5
559.632,850.3
560.172,849.8
560.711,847.4
561.25,845.7
561.789,848.4
562.328,850.3
562.867,853.0
563.406,856.9
563.944,936.7
564.483,876.6
565.021,870.3
565.559,863.1
566.098,1004.2
566.636,871.0
567.174,856.9
567.711,859.7
568.249,853.7
568.787,853.3
569.324,853.8
569.862,855.4
570.399,859.3
570.936,867.4
571.474,1010.2
572.011,884.2
572.548,863.8
573.084,856.5
573.621,858.1
574.158,865.8
574.694,856.1
575.231,864.9
575.767,928.2
576.303,982.7
576.84,930.8
577.376,900.6
577.912,868.8
578.447,865.0
578.983,862.3
579.519,863.7
580.054,862.7
580.59,867.1
581.125,864.7
581.661,863.4
582.196,865.7
582.731,870.1
583.266,870.3
583.801,867.9
584.336,868.4
584.87,869.8
585.405,870.3
585.94,870.0
586.474,873.2
587.008,875.3
587.543,873.8
588.077,871.0
588.611,875.1
589.145,875.7
589.679,875.5
590.213,875.5
590.747,876.3
591.28,879.2
591.814,879.9
592.347,879.7
592.881,879.5
593.414,883.6
593.947,882.3
594.48,887.6
595.014,885.0
595.547,889.2
596.079,884.9
596.612,890.2
597.145,889.0
597.678,893.7
598.21,893.6
598.743,896.7
599.275,898.9
599.807,899.5
600.34,896.8
600.872,900.3
601.404,897.1
601.936,900.6
602.468,902.2
603.0,897.9
603.532,896.5
604.063,897.5
604.595,892.3
605.126,892.9
605.658,887.9
606.189,889.9
606.721,889.7
607.252,885.8
607.783,884.7
608.314,885.1
608.845,881.1
609.376,881.4
609.907,883.4
610.438,882.5
610.968,882.7
611.499,881.6
612.03,880.0
612.56,880.3
613.091,879.7
613.621,879.8
614.151,876.2
614.681,877.5
615.212,878.6
615.742,876.7
616.272,879.1
616.802,879.7
617.332,881.9
617.861,883.1
618.391,881.7
618.921,881.4
619.45,880.9
619.98,882.4
620.509,885.5
621.039,888.5
621.568,893.8
622.097,914.7
622.627,913.2
623.156,892.2
623.685,883.6
624.214,881.1
624.743,886.5
625.272,886.1
625.801,896.2
626.33,916.8
626.858,1125.7
627.387,1530.5
627.916,1245.7
628.444,1434.8
628.973,1367.8
629.501,1237.8
630.029,1125.6
630.558,1103.9
631.086,982.1
631.614,913.6
632.142,893.6
632.67,886.7
633.198,883.2
633.726,879.9
634.254,879.5
634.782,875.7
635.31,874.0
635.838,872.4
636.365,874.1
636.893,873.1
637.421,872.1
637.948,868.9
638.476,869.7
639.003,867.0
639.531,868.9
640.058,868.7
640.585,867.1
641.113,869.0
641.64,868.1
642.167,868.5
642.694,869.1
643.221,867.0
643.748,865.3
644.275,865.7
644.802,865.3
645.329,866.6
645.856,864.9
646.382,865.5
646.909,869.7
647.436,867.3
647.962,865.5
648.489,868.8
649.016,866.3
649.542,868.3
650.069,868.3
650.595,864.9
651.121,865.6
651.648,867.0
652.174,866.2
652.7,867.1
653.227,867.4
653.753,867.5
654.279,865.1
654.805,865.8
655.331,867.5
655.857,865.6
656.383,864.2
656.909,866.2
657.435,866.5
657.961,863.2
658.487,864.2
659.013,863.0
659.538,864.0
660.064,863.9
660.59,865.7
661.116,862.2
661.641,860.4
662.167,862.3
662.692,857.9
663.087,857.7

File: VLFR_02-HDPE_bio_Raman_946a2bd7.csv
nm,Intensity
526.547,833.7
527.095,832.4
527.642,832.4
528.189,832.5
528.736,833.7
529.283,831.9
529.829,832.4
530.376,832.2
530.922,832.3
531.468,831.9
532.014,834.2
532.56,831.05
533.106,832.6
533.651,832.95
534.196,884.55
534.742,885.25
535.287,880.5
535.832,859.1
536.376,854.9
536.921,851.45
537.465,849.75
538.01,852.6
538.554,849.2
539.098,848.6
539.642,846.35
540.186,846.6
540.729,846.2
541.273,846.45
541.816,845.5
542.36,845.15
542.903,845.95
543.446,845.3
543.988,846.95
544.531,846.4
545.074,845.15
545.616,846.15
546.158,846.6
546.701,847.6
547.243,847.05
547.785,846.25
548.326,848.35
548.868,846.1
549.41,848.0
549.951,847.1
550.492,847.35
551.034,847.25
551.575,848.65
552.116,848.05
552.656,849.75
553.197,848.25
553.738,849.85
554.278,849.95
554.819,850.65
555.359,849.1
555.899,851.4
556.439,851.5
556.979,852.25
557.519,852.6
558.058,855.6
558.598,855.3
559.137,852.95
559.677,853.3
560.216,854.75
560.755,853.75
561.294,853.05
561.833,851.65
562.371,857.1
562.91,854.6
563.449,858.2
563.987,933.65
564.525,870.1
565.064,865.85
565.602,860.75
566.14,910.3
566.678,862.05
567.216,860.05
567.753,862.5
568.291,856.95
568.828,857.1
569.366,857.0
569.903,857.1
570.44,860.7
570.977,865.9
571.514,989.6
572.051,875.8
572.588,862.55
573.125,859.85
573.661,860.85
574.198,863.9
574.734,859.8
575.271,864.25
575.807,884.15
576.343,984.1
576.879,921.5
577.415,899.35
577.951,869.3
578.486,863.3
579.022,862.45
579.557,863.85
580.093,863.05
580.628,864.25
581.164,863.0
581.699,864.15
582.234,866.7
582.769,865.75
583.304,866.9
583.838,868.2
584.373,868.8
584.908,869.9
585.442,871.95
585.977,876.55
586.511,877.25
587.045,878.35
587.58,881.0
588.114,884.95
588.648,887.9
589.182,888.15
589.715,892.3
590.249,894.0
590.783,896.85
591.316,898.35
591.85,902.55
592.383,900.1
592.917,904.25
593.45,901.0
593.983,902.8
594.516,906.55
595.049,905.4
595.582,908.0
596.115,904.85
596.648,905.8
597.18,903.3
597.713,905.95
598.245,907.1
598.778,905.25
599.31,903.65
599.842,905.45
600.375,903.5
600.907,900.95
601.439,902.05
601.971,904.05
602.503,900.7
603.034,896.5
603.566,899.3
604.098,899.75
604.629,897.15
605.161,893.1
605.692,890.25
606.224,892.15
606.755,889.7
607.286,886.55
607.817,887.9
608.348,886.65
608.879,884.75
609.41,883.9
609.941,883.95
610.472,885.9
611.002,884.05
611.533,884.25
612.063,883.45
612.594,883.95
613.124,883.2
613.655,883.1
614.185,881.95
614.715,882.5
615.245,883.5
615.775,882.8
616.305,884.3
616.835,886.1
617.365,888.55
617.895,892.7
618.425,888.55
618.954,888.1
619.484,890.75
620.013,888.85
620.543,887.35
621.072,894.35
621.602,914.1
622.131,944.25
622.66,932.0
623.189,901.2
623.718,891.6
624.247,886.3
624.776,889.75
625.305,893.35
625.834,899.45
626.363,941.25
626.891,1291.35
627.42,1685.55
627.949,1355.2
628.477,1744.85
629.006,1296.85
629.534,1207.45
630.062,1101.55
630.591,1076.6
631.119,960.2
631.647,903.45
632.175,889.75
632.703,886.05
633.231,882.45
633.759,881.3
634.287,877.65
634.815,877.9
635.343,875.85
635.871,873.7
636.398,876.0
636.926,873.15
637.454,870.8
637.981,870.15
638.509,871.5
639.036,871.45
639.564,871.55
640.091,868.9
640.618,872.15
641.146,873.8
641.673,872.0
642.2,869.85
642.727,870.8
643.254,872.85
643.781,871.25
644.308,871.2
644.835,869.8
645.362,872.2
645.889,869.1
646.416,869.4
646.942,869.8
647.469,870.35
647.996,870.45
648.522,870.8
649.049,869.05
649.576,867.85
650.102,870.85
650.629,868.5
651.155,868.05
651.682,869.1
652.208,869.55
652.734,867.6
653.261,867.45
653.787,865.7
654.313,865.65
654.839,865.05
655.365,866.9
655.892,865.5
656.418,864.6
656.944,865.0
657.47,864.3
657.996,865.55
658.522,864.6
659.048,865.55
659.574,864.05
660.099,864.65
660.625,863.35
661.151,861.55
661.677,861.5
662.203,861.05
662.728,860.5
663.123,857.3

File: VLFR_02-HDPE_bio_Raman_1330eac9.csv
nm,Intensity
528.65,1838.7
529.155,1838.65
529.66,1839.75
530.165,1840.45
530.67,1839.95
531.175,1843.35
531.68,1878.5
532.185,5000.0
532.69,1842.05
533.194,1841.15
533.699,1950.6
534.204,2316.75
534.708,2318.15
535.213,2290.75
535.717,2135.95
536.222,2089.4
536.726,2077.8
537.231,2079.0
537.735,2086.7
538.239,2065.8
538.743,2059.5
539.247,2030.9
539.751,2029.1
540.255,2020.65
540.759,2027.35
541.263,2019.3
541.767,2026.8
542.271,2030.25
542.775,2037.55
543.279,2030.4
543.782,2028.4
544.286,2033.15
544.789,2041.9
545.293,2033.65
545.796,2039.95
546.3,2049.1
546.803,2048.15
547.306,2058.4
547.81,2048.55
548.313,2055.0
548.816,2057.8
549.319,2054.8
549.822,2053.0
550.325,2055.95
550.828,2062.7
551.331,2069.3
551.834,2078.95
552.337,2071.15
552.839,2083.1
553.342,2097.15
553.844,2094.15
554.347,2103.7
554.849,2111.3
555.352,2118.8
555.854,2119.2
556.357,2126.6
556.859,2139.8
557.361,2146.5
557.863,2177.8
558.365,2187.4
558.867,2175.8
559.369,2177.7
559.871,2159.0
560.373,2161.3
560.875,2163.15
561.377,2172.8
561.878,2175.05
562.38,2187.65
562.881,2217.35
563.383,2251.75
563.884,3010.2
564.386,2456.45
564.887,2371.35
565.388,2297.4
565.89,2654.4
566.391,2807.75
566.892,2278.8
567.393,2410.9
567.894,2236.55
568.395,2231.2
568.896,2228.35
569.396,2251.35
569.897,2248.15
570.398,2297.6
570.898,2354.05
571.399,3540.6
571.9,2632.4
572.4,2365.75
572.9,2260.75
573.401,2272.2
573.901,2359.65
574.401,2264.55
574.901,2260.8
575.401,2754.15
575.901,2866.25
576.401,3646.65
576.901,3157.45
577.401,2704.25
577.901,2368.8
578.4,2297.0
578.9,2290.05
579.399,2293.2
579.899,2308.2
580.398,2300.25
580.898,2307.75
581.397,2287.6
581.896,2309.7
582.395,2300.7
582.895,2307.5
583.394,2307.8
583.893,2313.35
584.391,2311.75
584.89,2318.65
585.389,2328.3
585.888,2344.25
586.386,2356.0
586.885,2363.35
587.384,2399.45
587.882,2402.95
588.38,2427.7
588.879,2447.1
589.377,2434.5
589.875,2464.6
590.373,2465.1
590.871,2520.15
591.369,2502.4
591.867,2525.95
592.365,2513.15
592.863,2541.25
593.361,2551.75
593.858,2554.3
594.356,2556.0
594.853,2556.15
595.351,2542.55
595.848,2535.4
596.345,2571.4
596.843,2558.65
597.34,2542.8
597.837,2516.35
598.334,2515.85
598.831,2531.5
599.328,2536.0
599.824,2526.4
600.321,2510.2
600.818,2504.85
601.314,2515.15
601.811,2528.55
602.307,2532.45
602.804,2498.0
603.3,2502.15
603.796,2493.3
604.293,2471.2
604.789,2469.5
605.285,2452.6
605.781,2441.4
606.277,2440.75
606.772,2415.7
607.268,2424.1
607.764,2407.0
608.259,2406.75
608.755,2413.3
609.25,2399.0
609.746,2402.6
610.241,2407.9
610.736,2408.05
611.231,2423.55
611.727,2410.35
612.222,2394.25
612.716,2383.85
613.211,2379.85
613.706,2377.85
614.201,2389.25
614.695,2387.8
615.19,2379.3
615.684,2389.2
616.179,2398.85
616.673,2435.9
617.168,2503.5
617.662,2519.05
618.156,2512.25
618.65,2498.4
619.144,2505.4
619.638,2558.35
620.131,2546.0
620.625,2559.9
621.119,2679.4
621.612,2880.15
622.106,3270.35
622.599,3107.0
623.093,2702.75
623.586,2588.45
624.079,2525.05
624.572,2556.55
625.065,2570.0
625.558,2671.7
626.051,2918.4
626.544,4475.3
627.037,12468.8
627.529,11420.8
628.022,9277.05
628.514,14690.6
629.007,8392.7
629.499,6906.55
629.991,5695.05
630.483,5273.45
630.976,3891.45
631.468,2891.1
631.959,2643.2
632.451,2582.2
632.943,2534.15
633.435,2511.9
633.926,2452.45
634.418,2415.3
634.909,2390.5
635.401,2362.85
635.892,2367.1
636.383,2375.2
636.874,2350.1
637.365,2316.5
637.856,2306.55
638.347,2289.05
638.838,2306.4
639.329,2297.65
639.819,2284.15
640.31,2290.5
640.8,2286.2
641.291,2285.35
641.781,2301.6
642.271,2289.7
642.761,2287.8
643.251,2276.15
643.741,2305.3
644.231,2287.95
644.721,2291.1
645.211,2281.1
645.7,2288.95
646.19,2282.55
646.679,2289.7
647.169,2283.6
647.658,2275.7
648.147,2273.35
648.636,2263.6
649.125,2244.6
649.614,2243.8
650.103,2230.95
650.592,2227.85
651.08,2216.3
651.569,2220.05
652.058,2215.95
652.546,2194.55
653.034,2190.1
653.523,2180.05
654.011,2186.35
654.499,2171.15
654.987,2156.4
655.475,2162.2
655.963,2151.85
656.45,2128.45
656.938,2147.95
657.425,2142.85
657.913,2131.2
658.4,2128.35
658.888,2119.15
659.375,2099.5
659.862,2128.6
660.349,2115.05
660.836,2101.5
661.079,2100.35

File: VLFR_02-HDPE_bio_Raman_02080e68.csv
nm,Intensity
526.508,829.4
527.055,830.0
527.602,830.8
528.149,829.0
528.695,830.2
529.241,830.9
529.787,830.7
530.334,829.1
530.879,829.8
531.425,830.4
531.971,838.5
532.516,831.1
533.062,830.4
533.607,829.4
534.152,869.8
534.697,862.9
535.242,855.4
535.786,848.6
536.331,848.4
536.876,846.1
537.42,846.3
537.964,847.2
538.508,844.3
539.052,846.6
539.596,844.1
540.14,841.2
540.683,842.0
541.227,840.6
541.77,841.0
542.313,840.2
542.856,842.7
543.399,841.2
543.942,842.4
544.485,841.1
545.027,840.5
545.57,841.7
546.112,841.6
546.654,840.7
547.196,841.6
547.738,841.8
548.28,842.6
548.822,841.3
549.363,842.6
549.905,841.7
550.446,840.9
550.988,842.1
551.529,842.7
552.07,841.1
552.611,841.2
553.152,842.9
553.692,843.3
554.233,844.7
554.773,845.7
555.314,846.5
555.854,845.8
556.394,845.7
556.934,846.9
557.474,849.3
558.014,848.9
558.553,855.4
559.093,849.0
559.632,851.1
560.172,849.0
560.711,846.9
561.25,848.1
561.789,851.1
562.328,850.5
562.867,854.1
563.406,856.0
563.944,911.5
564.483,871.8
565.021,867.7
565.559,867.5
566.098,967.5
566.636,871.0
567.174,862.3
567.711,862.6
568.249,862.4
568.787,865.3
569.324,865.2
569.862,870.2
570.399,875.9
570.936,880.0
571.474,969.0
572.011,897.1
572.548,888.9
573.084,889.1
573.621,894.5
574.158,905.5
574.694,904.4
575.231,919.1
575.767,979.7
576.303,982.3
576.84,957.3
577.376,948.4
577.912,934.7
578.447,929.7
578.983,938.2
579.519,935.2
580.054,934.3
580.59,933.8
581.125,938.2
581.661,940.3
582.196,941.8
582.731,944.4
583.266,947.6
583.801,949.8
584.336,951.0
584.87,956.5
585.405,959.7
585.94,966.0
586.474,968.6
587.008,974.8
587.543,979.8
588.077,986.0
588.611,992.4
589.145,987.2
589.679,999.9
590.213,1002.1
590.747,1004.7
591.28,1009.9
591.814,1008.1
592.347,1015.6
592.881,1015.8
593.414,1007.3
593.947,1012.8
594.48,1016.6
595.014,1012.5
595.547,1014.2
596.079,1013.2
596.612,1013.2
597.145,1005.1
597.678,1008.0
598.21,1006.8
598.743,1007.2
599.275,1006.4
599.807,1003.3
600.34,996.4
600.872,987.9
601.404,987.0
601.936,984.8
602.468,985.3
603.0,977.8
603.532,971.9
604.063,975.4
604.595,968.9
605.126,962.0
605.658,954.0
606.189,947.0
606.721,948.2
607.252,943.5
607.783,947.0
608.314,937.9
608.845,939.2
609.376,937.8
609.907,934.3
610.438,934.3
610.968,934.6
611.499,932.0
612.03,926.5
612.56,923.5
613.091,926.2
613.621,925.2
614.151,920.2
614.681,921.7
615.212,919.6
615.742,921.5
616.272,918.5
616.802,914.8
617.332,915.9
617.861,917.4
618.391,915.7
618.921,918.7
619.45,917.2
619.98,918.6
620.509,917.7
621.039,919.1
621.568,924.0
622.097,933.4
622.627,930.9
623.156,920.5
623.685,922.1
624.214,918.5
624.743,918.6
625.272,924.0
625.801,928.6
626.33,938.5
626.858,1038.6
627.387,1269.6
627.916,1115.5
628.444,1177.1
628.973,1166.5
629.501,1117.8
630.029,1064.5
630.558,1047.3
631.086,983.9
631.614,946.0
632.142,935.3
632.67,930.5
633.198,926.4
633.726,927.0
634.254,927.1
634.782,924.5
635.31,922.0
635.838,925.2
636.365,926.7
636.893,921.5
637.421,927.0
637.948,927.5
638.476,924.9
639.003,923.2
639.531,928.2
640.058,927.3
640.585,929.8
641.113,930.6
641.64,929.1
642.167,930.8
642.694,930.7
643.221,929.4
643.748,933.1
644.275,927.5
644.802,925.8
645.329,926.4
645.856,925.9
646.382,926.3
646.909,927.1
647.436,919.8
647.962,924.1
648.489,922.6
649.016,918.3
649.542,923.0
650.069,918.4
650.595,914.7
651.121,912.4
651.648,909.5
652.174,911.9
652.7,911.6
653.227,909.8
653.753,910.7
654.279,906.1
654.805,906.8
655.331,904.3
655.857,903.4
656.383,902.9
656.909,900.6
657.435,899.4
657.961,897.1
658.487,897.0
659.013,897.4
659.538,896.0
660.064,894.6
660.59,891.6
661.116,890.5
661.641,887.5
662.167,885.9
662.692,886.2
663.087,884.6

File: VLFR_02-HDPE_bio_Raman_5169e534.csv
nm,Intensity
526.494,834.42
527.041,835.12
527.588,834.84
528.135,834.66
528.682,834.52
529.229,835.24
529.775,834.36
530.321,834.1
530.868,834.38
531.414,834.86
531.96,847.36
532.506,836.48
533.051,834.98
533.597,835.06
534.142,905.5
534.687,907.58
535.232,905.0
535.777,872.2
536.322,859.94
536.867,856.76
537.411,856.8
537.956,855.76
538.5,852.92
539.044,850.16
539.588,848.38
540.132,847.68
540.676,846.5
541.22,846.18
541.763,846.86
542.306,846.88
542.85,845.96
543.393,845.1
543.936,846.24
544.479,845.54
545.021,844.88
545.564,844.94
546.106,845.36
546.649,844.84
547.191,845.58
547.733,845.04
548.275,843.86
548.817,844.18
549.359,843.82
549.9,844.18
550.442,845.16
550.983,844.6
551.524,844.94
552.066,844.46
552.607,844.94
553.148,846.1
553.688,847.2
554.229,846.62
554.77,848.46
555.31,848.46
555.85,849.7
556.39,850.04
556.931,850.96
557.471,853.06
558.01,855.48
558.55,854.48
559.09,853.18
559.629,852.6
560.169,851.22
560.708,851.12
561.247,850.48
561.786,851.56
562.325,853.04
562.864,854.9
563.403,858.48
563.941,953.44
564.48,876.34
565.018,869.06
565.557,862.88
566.095,924.7
566.633,862.34
567.171,860.04
567.709,867.16
568.247,854.78
568.784,855.76
569.322,856.1
569.859,856.28
570.397,859.64
570.934,866.36
571.471,1015.82
572.008,884.64
572.545,863.24
573.082,856.4
573.619,858.6
574.155,866.38
574.692,856.04
575.228,861.0
575.765,900.58
576.301,1040.8
576.837,953.06
577.373,923.08
577.909,870.76
578.445,862.32
578.981,861.8
579.516,860.92
580.052,861.28
580.587,861.86
581.123,862.24
581.658,861.46
582.193,863.84
582.728,864.2
583.263,865.92
583.798,866.26
584.333,866.96
584.868,867.9
585.402,869.74
585.937,872.46
586.471,874.9
587.005,876.64
587.54,880.14
588.074,881.92
588.608,885.88
589.142,888.56
589.676,890.52
590.21,895.48
590.743,898.58
591.277,901.0
591.81,903.76
592.344,908.52
592.877,911.5
593.411,914.7
593.944,916.54
594.477,920.36
595.01,923.14
595.543,927.64
596.076,929.34
596.608,932.3
597.141,935.12
597.674,938.32
598.206,940.38
598.739,942.44
599.271,944.78
599.803,945.66
600.335,943.46
600.868,945.44
601.4,941.74
601.931,946.26
602.463,944.08
602.995,938.66
603.527,936.52
604.058,936.32
604.59,934.86
605.121,928.58
605.653,926.88
606.184,925.2
606.715,922.18
607.246,917.8
607.778,918.16
608.309,916.84
608.839,915.8
609.37,913.36
609.901,913.82
610.432,913.18
610.962,912.78
611.493,911.1
612.023,909.6
612.554,910.52
613.084,908.66
613.614,908.4
614.145,907.12
614.675,906.38
615.205,904.62
615.735,906.16
616.265,907.18
616.795,909.56
617.324,916.46
617.854,920.1
618.384,919.26
618.913,913.5
619.443,919.98
619.972,921.14
620.502,918.82
621.031,925.8
621.56,949.5
622.089,995.88
622.618,988.62
623.147,933.14
623.676,918.4
624.205,915.0
624.734,915.0
625.263,919.08
625.792,935.0
626.32,985.6
626.849,1469.22
627.377,2184.12
627.906,1637.66
628.434,2137.34
628.963,1578.46
629.491,1421.6
630.019,1249.54
630.547,1209.58
631.076,1034.06
631.604,933.7
632.132,914.94
632.66,906.56
633.188,902.5
633.715,896.64
634.243,893.22
634.771,890.24
635.299,888.8
635.826,886.14
636.354,885.78
636.881,885.3
637.409,879.56
637.936,878.02
638.464,877.84
638.991,879.1
639.518,878.02
640.045,876.74
640.573,877.68
641.1,876.08
641.627,876.62
642.154,877.3
642.681,877.18
643.208,877.88
643.735,878.5
644.261,877.86
644.788,878.38
645.315,877.92
645.842,877.88
646.368,878.16
646.895,878.66
647.421,880.36
647.948,879.12
648.474,879.3
649.001,878.52
649.527,878.68
650.054,878.42
650.58,876.96
651.106,879.02
651.633,877.48
652.159,878.52
652.685,877.6
653.211,877.34
653.737,877.52
654.263,877.72
654.789,876.38
655.315,876.28
655.841,875.8
656.367,875.64
656.893,875.84
657.419,875.56
657.945,873.34
658.47,875.7
658.996,874.82
659.522,874.98
660.047,878.34
660.573,874.64
661.099,873.5
661.624,871.48
662.15,870.5
662.675,869.5
663.07,869.08

File: VLFR_02-HDPE_bio_Raman_5252f225.csv
nm,Intensity
526.495,829.0
527.042,829.7
527.589,830.1
528.136,829.9
528.682,829.3
529.229,830.0
529.775,829.7
530.321,829.3
530.867,829.0
531.413,829.0
531.959,830.8
532.505,829.2
533.051,829.9
533.596,830.1
534.141,891.4
534.687,886.5
535.232,881.9
535.777,864.7
536.321,856.1
536.866,853.3
537.41,852.9
537.955,853.0
538.499,851.8
539.043,848.7
539.587,846.5
540.131,848.5
540.675,846.0
541.219,846.9
541.762,845.1
542.305,845.9
542.849,847.3
543.392,845.2
543.935,845.6
544.478,846.8
545.02,845.1
545.563,844.9
546.106,845.9
546.648,843.8
547.19,847.1
547.732,846.8
548.274,847.3
548.816,845.3
549.358,846.3
549.9,844.3
550.441,844.3
550.983,844.6
551.524,845.2
552.065,844.2
552.606,845.9
553.147,847.0
553.688,847.0
554.229,849.9
554.769,849.0
555.31,844.8
555.85,849.7
556.391,851.3
556.931,852.2
557.471,854.6
558.011,855.9
558.551,855.9
559.09,856.5
559.63,851.4
560.169,855.9
560.709,852.8
561.248,852.5
561.787,855.7
562.326,855.8
562.865,855.1
563.404,860.4
563.943,926.3
564.481,873.7
565.02,869.9
565.558,866.3
566.096,947.7
566.634,867.8
567.172,863.6
567.71,864.6
568.248,858.0
568.786,860.2
569.324,859.7
569.861,858.5
570.399,863.0
570.936,865.5
571.473,981.7
572.01,889.6
572.547,865.8
573.084,860.1
573.621,860.2
574.158,865.7
574.694,861.9
575.231,867.8
575.767,908.2
576.303,1012.9
576.84,941.9
577.376,916.3
577.912,872.7
578.448,868.3
578.984,870.4
579.519,869.6
580.055,870.5
580.59,870.2
581.126,874.3
581.661,874.3
582.196,873.6
582.731,877.4
583.267,876.8
583.801,877.8
584.336,881.9
584.871,883.2
585.406,886.7
585.94,891.1
586.475,890.3
587.009,896.4
587.543,894.2
588.078,892.8
588.612,897.0
589.146,901.9
589.68,904.0
590.214,906.2
590.747,907.7
591.281,914.0
591.815,917.8
592.348,917.8
592.881,916.7
593.415,921.6
593.948,923.1
594.481,926.4
595.014,928.8
595.547,931.1
596.08,931.2
596.613,938.7
597.146,939.7
597.678,942.6
598.211,949.0
598.743,946.8
599.276,957.2
599.808,956.0
600.34,956.6
600.872,955.7
601.404,955.1
601.936,960.4
602.468,956.5
603.0,952.8
603.532,954.3
604.064,949.8
604.595,944.2
605.127,941.3
605.658,932.9
606.189,930.7
606.721,928.9
607.252,926.0
607.783,921.2
608.314,919.0
608.845,918.2
609.376,913.8
609.907,914.7
610.438,914.1
610.968,913.1
611.499,912.0
612.029,909.9
612.56,911.7
613.09,907.6
613.621,907.8
614.151,905.8
614.681,908.4
615.211,905.8
615.741,903.6
616.271,909.9
616.801,905.2
617.331,912.8
617.861,911.1
618.39,911.2
618.92,908.5
619.45,914.6
619.979,911.3
620.509,911.5
621.038,914.0
621.567,928.7
622.096,952.2
622.626,953.7
623.155,916.8
623.684,908.4
624.213,909.4
624.742,906.6
625.271,912.3
625.799,917.6
626.328,953.0
626.857,1229.8
627.386,1719.3
627.914,1354.8
628.443,1655.0
628.971,1413.3
629.5,1280.7
630.028,1160.6
630.556,1128.8
631.084,996.8
631.613,929.5
632.141,911.3
632.669,906.5
633.197,900.3
633.725,902.1
634.253,896.6
634.781,893.3
635.308,892.8
635.836,893.6
636.364,896.2
636.891,895.8
637.419,885.4
637.947,890.8
638.474,890.1
639.002,889.8
639.529,889.6
640.056,894.6
640.584,895.3
641.111,892.2
641.638,891.2
642.165,894.0
642.692,891.8
643.219,892.6
643.746,891.4
644.273,897.0
644.8,893.5
645.327,893.6
645.854,900.1
646.381,896.4
646.908,896.2
647.434,896.7
647.961,899.8
648.488,897.6
649.014,894.0
649.541,898.3
650.067,898.3
650.594,896.4
651.12,897.7
651.646,901.7
652.173,896.7
652.699,897.7
653.225,899.6
653.752,895.7
654.278,899.8
654.804,895.7
655.33,900.5
655.856,897.1
656.382,896.0
656.908,899.5
657.434,893.7
657.96,894.4
658.486,892.6
659.012,889.6
659.538,895.9
660.064,892.8
660.589,889.1
661.115,885.3
661.641,885.6
662.166,884.8
662.692,886.7
663.086,880.1