Folder: MPX_specDB/spectra (part 159)

File: VLFR_08-PLA_nobio_Raman_e21059c6.csv
nm,Intensity
526.532,829.567
527.079,829.8
527.625,829.9
528.172,829.433
528.718,830.5
529.265,830.2
529.811,830.3
530.357,830.3
530.903,830.4
531.449,829.967
531.994,834.333
532.54,829.967
533.085,829.967
533.63,832.9
534.176,1051.9
534.721,995.4
535.266,964.867
535.81,943.833
536.355,935.333
536.9,937.467
537.444,921.333
537.988,922.6
538.533,912.5
539.077,906.633
539.621,906.133
540.165,900.6
540.708,921.133
541.252,920.633
541.795,906.267
542.339,902.3
542.882,903.133
543.425,931.3
543.968,945.733
544.511,912.667
545.054,900.5
545.597,896.867
546.139,894.667
546.682,898.133
547.224,901.9
547.766,898.433
548.308,898.567
548.85,900.2
549.392,903.3
549.934,905.167
550.475,903.867
551.017,907.1
551.558,908.233
552.1,912.2
552.641,916.0
553.182,915.3
553.723,913.133
554.264,917.633
554.804,911.767
555.345,906.2
555.885,903.567
556.426,902.9
556.966,906.933
557.506,922.667
558.046,1058.97
558.586,937.633
559.126,920.167
559.665,918.267
560.205,912.767
560.745,910.233
561.284,906.567
561.823,908.633
562.362,907.433
562.901,919.833
563.44,959.533
563.979,930.5
564.518,922.4
565.056,948.433
565.595,938.967
566.133,975.933
566.671,934.367
567.21,916.467
567.748,923.8
568.285,924.067
568.823,922.933
569.361,922.7
569.899,920.467
570.436,920.233
570.974,923.9
571.511,951.0
572.048,942.333
572.585,935.467
573.122,936.767
573.659,942.433
574.196,935.167
574.733,947.867
575.269,926.3
575.806,927.433
576.342,951.467
576.878,1010.63
577.414,945.067
577.951,927.933
578.486,926.333
579.022,926.633
579.558,925.133
580.094,925.433
580.629,923.7
581.165,923.133
581.7,927.4
582.236,926.567
582.771,926.1
583.306,927.067
583.841,926.533
584.376,930.767
584.911,929.567
585.445,927.9
585.98,930.9
586.514,944.933
587.049,984.233
587.583,1012.67
588.117,950.3
588.651,931.167
589.186,927.1
589.72,927.333
590.253,928.233
590.787,926.0
591.321,924.767
591.854,927.1
592.388,924.933
592.921,925.733
593.455,926.2
593.988,925.3
594.521,924.867
595.054,925.433
595.587,926.3
596.12,927.4
596.653,927.0
597.186,929.033
597.718,926.033
598.251,928.267
598.783,929.167
599.316,929.967
599.848,926.933
600.38,927.133
600.912,926.0
601.444,925.533
601.976,927.533
602.508,925.033
603.04,925.567
603.572,925.7
604.103,925.2
604.635,924.3
605.167,922.7
605.698,921.767
606.229,922.467
606.761,920.6
607.292,921.8
607.823,921.567
608.354,923.633
608.885,925.933
609.416,925.967
609.947,923.033
610.477,922.8
611.008,921.967
611.539,921.0
612.069,924.0
612.6,921.167
613.13,925.833
613.66,923.533
614.19,926.367
614.721,925.267
615.251,924.533
615.781,925.267
616.311,924.133
616.841,926.267
617.37,927.567
617.9,923.733
618.43,924.0
618.96,923.867
619.489,924.733
620.019,921.7
620.548,920.767
621.077,922.567
621.607,923.167
622.136,925.6
622.665,932.067
623.194,938.567
623.723,935.467
624.252,931.533
624.781,925.467
625.31,924.733
625.839,924.433
626.368,921.967
626.896,924.9
627.425,925.533
627.953,936.467
628.482,1017.37
629.01,996.5
629.539,995.7
630.067,1002.53
630.596,1075.27
631.124,1519.47
631.652,1205.6
632.18,1067.87
632.708,1045.5
633.236,1151.07
633.764,1104.27
634.292,995.3
634.82,942.233
635.348,928.967
635.876,922.633
636.403,917.333
636.931,916.0
637.459,915.933
637.986,913.5
638.514,913.833
639.041,911.7
639.568,912.967
640.096,912.233
640.623,913.033
641.15,914.033
641.678,912.067
642.205,912.9
642.732,911.5
643.259,909.233
643.786,907.967
644.313,906.833
644.84,902.8
645.367,902.733
645.894,903.2
646.421,901.767
646.948,904.033
647.474,902.467
648.001,901.533
648.528,900.533
649.054,899.7
649.581,901.2
650.108,900.8
650.634,898.933
651.161,898.067
651.687,898.067
652.214,898.967
652.74,899.4
653.266,898.567
653.793,899.067
654.319,898.733
654.845,899.433
655.371,896.2
655.897,896.1
656.424,896.167
656.95,897.867
657.476,897.367
658.002,896.833
658.528,895.733
659.054,894.7
659.58,895.767
660.106,896.3
660.631,894.433
661.157,893.7
661.683,889.967
662.209,892.4
662.735,892.933
663.129,892.433

File: VLFR_08-PLA_nobio_Raman_ec40a232.csv
nm,Intensity
526.532,832.7
527.079,833.35
527.625,833.55
528.172,833.65
528.718,833.8
529.265,833.85
529.811,833.95
530.357,834.45
530.903,833.55
531.449,833.1
531.994,841.9
532.54,833.25
533.085,834.1
533.63,836.15
534.176,980.35
534.721,960.8
535.266,943.5
535.81,939.6
536.355,935.95
536.9,937.55
537.444,931.25
537.988,931.65
538.533,929.1
539.077,926.7
539.621,927.95
540.165,926.15
540.708,935.15
541.252,936.15
541.795,933.7
542.339,929.15
542.882,933.5
543.425,943.3
543.968,951.95
544.511,940.1
545.054,938.65
545.597,937.6
546.139,936.15
546.682,938.05
547.224,940.95
547.766,938.8
548.308,936.4
548.85,943.75
549.392,945.45
549.934,945.0
550.475,947.9
551.017,949.1
551.558,945.8
552.1,953.05
552.641,954.5
553.182,952.95
553.723,954.8
554.264,956.25
554.804,954.65
555.345,952.9
555.885,950.9
556.426,948.9
556.966,954.1
557.506,964.25
558.046,1023.15
558.586,965.85
559.126,965.15
559.665,963.85
560.205,959.95
560.745,959.0
561.284,962.25
561.823,963.0
562.362,958.4
562.901,966.4
563.44,986.8
563.979,973.0
564.518,974.05
565.056,983.35
565.595,978.85
566.133,996.05
566.671,979.8
567.21,969.75
567.748,977.0
568.285,975.8
568.823,974.6
569.361,976.7
569.899,978.75
570.436,979.45
570.974,979.95
571.511,990.05
572.048,985.95
572.585,984.8
573.122,989.5
573.659,992.65
574.196,989.5
574.733,996.0
575.269,981.95
575.806,988.2
576.342,1000.15
576.878,1025.65
577.414,996.3
577.951,988.0
578.486,987.45
579.022,988.2
579.558,990.05
580.094,990.95
580.629,990.75
581.165,988.85
581.7,989.85
582.236,994.6
582.771,992.0
583.306,995.2
583.841,994.65
584.376,991.7
584.911,992.9
585.445,993.45
585.98,996.9
586.514,1004.2
587.049,1022.9
587.583,1037.55
588.117,1006.65
588.651,997.0
589.186,994.2
589.72,996.35
590.253,989.45
590.787,994.4
591.321,992.8
591.854,993.3
592.388,996.4
592.921,993.35
593.455,994.15
593.988,989.05
594.521,993.15
595.054,992.6
595.587,998.3
596.12,991.55
596.653,994.65
597.186,992.6
597.718,995.2
598.251,994.55
598.783,996.4
599.316,995.55
599.848,992.05
600.38,992.35
600.912,989.95
601.444,990.75
601.976,991.95
602.508,990.1
603.04,991.0
603.572,993.45
604.103,992.3
604.635,989.95
605.167,986.1
605.698,983.3
606.229,986.8
606.761,981.5
607.292,984.45
607.823,983.55
608.354,985.2
608.885,982.45
609.416,981.6
609.947,982.4
610.477,983.25
611.008,982.2
611.539,982.9
612.069,984.75
612.6,982.15
613.13,984.2
613.66,985.75
614.19,985.9
614.721,984.1
615.251,984.45
615.781,980.55
616.311,982.65
616.841,984.9
617.37,982.4
617.9,984.6
618.43,982.25
618.96,978.6
619.489,981.6
620.019,980.5
620.548,979.8
621.077,978.1
621.607,981.15
622.136,978.05
622.665,983.55
623.194,986.3
623.723,985.5
624.252,980.35
624.781,978.35
625.31,982.4
625.839,978.7
626.368,979.5
626.896,977.4
627.425,981.55
627.953,986.55
628.482,1027.65
629.01,1013.6
629.539,1013.6
630.067,1016.7
630.596,1064.4
631.124,1292.0
631.652,1115.95
632.18,1048.55
632.708,1044.35
633.236,1096.7
633.764,1070.35
634.292,1012.15
634.82,979.5
635.348,974.2
635.876,974.35
636.403,970.8
636.931,965.2
637.459,966.25
637.986,962.45
638.514,967.0
639.041,966.95
639.568,963.4
640.096,963.75
640.623,963.75
641.15,961.5
641.678,962.6
642.205,961.15
642.732,959.25
643.259,958.2
643.786,958.45
644.313,956.0
644.84,953.2
645.367,951.3
645.894,953.7
646.421,950.05
646.948,951.1
647.474,954.5
648.001,953.65
648.528,949.8
649.054,948.7
649.581,947.8
650.108,946.7
650.634,947.3
651.161,944.75
651.687,947.65
652.214,947.45
652.74,946.25
653.266,939.05
653.793,944.35
654.319,940.9
654.845,943.6
655.371,942.9
655.897,939.55
656.424,944.3
656.95,941.15
657.476,940.95
658.002,940.5
658.528,944.25
659.054,938.5
659.58,938.7
660.106,938.15
660.631,934.3
661.157,936.65
661.683,937.45
662.209,935.4
662.735,934.95
663.129,934.6

File: VLFR_08-PLA_nobio_Raman_ed74333d.csv
nm,Intensity
526.508,828.8
527.055,828.4
527.602,828.2
528.149,830.7
528.695,827.1
529.241,830.1
529.787,828.6
530.334,827.9
530.879,828.8
531.425,829.2
531.971,832.0
532.516,828.6
533.062,829.1
533.607,829.4
534.152,1050.4
534.697,1007.2
535.242,962.4
535.786,945.1
536.331,935.7
536.876,937.5
537.42,926.4
537.964,929.3
538.508,918.5
539.052,913.0
539.596,910.3
540.14,907.3
540.683,920.6
541.227,926.0
541.77,913.6
542.313,911.9
542.856,909.8
543.399,937.3
543.942,942.5
544.485,919.9
545.027,912.7
545.57,909.1
546.112,906.0
546.654,910.2
547.196,911.9
547.738,908.8
548.28,909.3
548.822,910.8
549.363,914.3
549.905,911.7
550.446,912.9
550.988,916.5
551.529,922.6
552.07,919.9
552.611,924.0
553.152,926.8
553.692,921.3
554.233,932.2
554.773,926.3
555.314,917.0
555.854,913.4
556.394,911.8
556.934,919.4
557.474,934.6
558.014,1059.0
558.553,955.9
559.093,932.8
559.632,931.8
560.172,925.7
560.711,925.4
561.25,919.6
561.789,917.3
562.328,924.4
562.867,934.3
563.406,963.9
563.944,945.2
564.483,939.3
565.021,962.2
565.559,959.1
566.098,994.4
566.636,951.2
567.174,933.6
567.711,934.7
568.249,941.0
568.787,938.4
569.324,942.1
569.862,935.6
570.399,937.6
570.936,941.4
571.474,959.2
572.011,962.4
572.548,950.8
573.084,952.1
573.621,960.2
574.158,956.0
574.694,966.6
575.231,950.4
575.767,946.3
576.303,966.0
576.84,1022.6
577.376,967.8
577.912,944.9
578.447,948.1
578.983,941.3
579.519,943.8
580.054,942.9
580.59,944.1
581.125,936.8
581.661,942.3
582.196,941.8
582.731,947.8
583.266,952.2
583.801,943.5
584.336,944.1
584.87,949.9
585.405,952.9
585.94,947.2
586.474,964.9
587.008,1000.3
587.543,1029.9
588.077,973.4
588.611,946.3
589.145,950.1
589.679,944.3
590.213,948.8
590.747,949.9
591.28,944.8
591.814,947.0
592.347,943.6
592.881,945.4
593.414,942.2
593.947,944.8
594.48,945.5
595.014,948.3
595.547,947.1
596.079,947.9
596.612,947.7
597.145,949.4
597.678,944.0
598.21,948.8
598.743,952.4
599.275,947.2
599.807,952.1
600.34,948.7
600.872,947.4
601.404,947.5
601.936,953.6
602.468,953.1
603.0,948.0
603.532,948.9
604.063,951.9
604.595,950.4
605.126,950.5
605.658,950.2
606.189,949.7
606.721,949.6
607.252,942.5
607.783,948.3
608.314,950.3
608.845,950.6
609.376,948.0
609.907,950.6
610.438,948.5
610.968,949.2
611.499,947.7
612.03,950.6
612.56,951.6
613.091,951.3
613.621,954.0
614.151,957.4
614.681,954.3
615.212,954.5
615.742,957.5
616.272,952.4
616.802,953.8
617.332,955.1
617.861,960.3
618.391,951.8
618.921,954.9
619.45,956.5
619.98,956.0
620.509,953.9
621.039,952.6
621.568,958.2
622.097,954.7
622.627,964.0
623.156,972.1
623.685,964.5
624.214,960.0
624.743,957.0
625.272,953.8
625.801,952.1
626.33,952.4
626.858,953.2
627.387,955.2
627.916,970.1
628.444,1042.4
628.973,1023.4
629.501,1023.7
630.029,1030.5
630.558,1087.5
631.086,1518.2
631.614,1242.3
632.142,1102.4
632.67,1081.6
633.198,1178.1
633.726,1144.0
634.254,1030.4
634.782,972.9
635.31,953.6
635.838,952.7
636.365,948.2
636.893,943.2
637.421,945.1
637.948,942.0
638.476,939.0
639.003,940.9
639.531,939.0
640.058,940.2
640.585,940.2
641.113,938.2
641.64,937.0
642.167,944.5
642.694,938.5
643.221,936.0
643.748,930.9
644.275,931.3
644.802,931.7
645.329,931.0
645.856,928.5
646.382,927.3
646.909,925.1
647.436,928.4
647.962,923.8
648.489,924.2
649.016,922.7
649.542,920.6
650.069,923.4
650.595,923.4
651.121,921.0
651.648,922.1
652.174,922.6
652.7,922.0
653.227,921.4
653.753,919.5
654.279,919.7
654.805,920.5
655.331,917.4
655.857,921.5
656.383,919.3
656.909,920.9
657.435,919.4
657.961,917.7
658.487,917.0
659.013,919.5
659.538,913.1
660.064,917.1
660.59,913.2
661.116,912.4
661.641,914.6
662.167,909.5
662.692,914.4
663.087,911.7

File: VLFR_08-PLA_nobio_Raman_edb0ce1f.csv
nm,Intensity
526.532,829.8
527.079,830.033
527.625,830.567
528.172,830.833
528.718,830.433
529.265,830.333
529.811,829.867
530.357,830.533
530.903,829.767
531.449,830.4
531.994,834.9
532.54,830.833
533.085,830.3
533.63,833.367
534.176,1015.5
534.721,973.3
535.266,937.8
535.81,920.0
536.355,914.333
536.9,914.967
537.444,907.0
537.988,901.533
538.533,892.333
539.077,891.3
539.621,888.333
540.165,881.633
540.708,897.867
541.252,899.667
541.795,889.5
542.339,885.3
542.882,889.367
543.425,907.9
543.968,913.567
544.511,895.267
545.054,884.9
545.597,879.967
546.139,881.133
546.682,880.367
547.224,882.233
547.766,883.733
548.308,883.2
548.85,883.533
549.392,883.1
549.934,884.9
550.475,886.4
551.017,889.7
551.558,890.767
552.1,892.6
552.641,892.133
553.182,893.4
553.723,891.7
554.264,898.133
554.804,891.467
555.345,885.833
555.885,884.767
556.426,884.267
556.966,887.4
557.506,906.967
558.046,1019.93
558.586,916.033
559.126,899.433
559.665,896.067
560.205,892.833
560.745,891.767
561.284,887.167
561.823,888.533
562.362,888.767
562.901,900.367
563.44,926.8
563.979,908.533
564.518,900.767
565.056,919.467
565.595,916.1
566.133,945.567
566.671,911.6
567.21,895.267
567.748,901.533
568.285,900.733
568.823,902.567
569.361,901.667
569.899,898.733
570.436,900.767
570.974,901.0
571.511,917.633
572.048,918.567
572.585,910.733
573.122,913.633
573.659,916.1
574.196,912.333
574.733,919.667
575.269,900.167
575.806,904.033
576.342,924.333
576.878,975.4
577.414,921.233
577.951,903.8
578.486,903.2
579.022,904.267
579.558,901.5
580.094,902.433
580.629,901.967
581.165,901.433
581.7,903.633
582.236,902.6
582.771,903.8
583.306,905.1
583.841,906.233
584.376,905.0
584.911,906.4
585.445,905.6
585.98,907.667
586.514,921.033
587.049,951.833
587.583,972.867
588.117,926.5
588.651,908.4
589.186,907.167
589.72,905.533
590.253,904.267
590.787,906.6
591.321,905.433
591.854,904.1
592.388,906.1
592.921,902.633
593.455,904.5
593.988,903.533
594.521,904.767
595.054,903.967
595.587,904.067
596.12,903.067
596.653,905.967
597.186,906.8
597.718,905.267
598.251,906.0
598.783,907.167
599.316,905.3
599.848,905.1
600.38,906.033
600.912,906.7
601.444,904.633
601.976,903.633
602.508,906.567
603.04,907.133
603.572,904.067
604.103,903.567
604.635,905.333
605.167,905.6
605.698,902.4
606.229,901.667
606.761,900.5
607.292,899.233
607.823,903.967
608.354,903.133
608.885,900.967
609.416,903.533
609.947,903.4
610.477,903.733
611.008,901.033
611.539,902.267
612.069,902.167
612.6,903.967
613.13,905.1
613.66,903.7
614.19,903.233
614.721,906.0
615.251,904.067
615.781,903.7
616.311,907.733
616.841,905.267
617.37,906.367
617.9,906.133
618.43,904.967
618.96,904.633
619.489,904.533
620.019,904.6
620.548,904.767
621.077,902.767
621.607,905.433
622.136,906.833
622.665,915.3
623.194,918.433
623.723,913.833
624.252,910.033
624.781,907.367
625.31,905.433
625.839,906.933
626.368,904.367
626.896,905.233
627.425,909.367
627.953,915.067
628.482,973.833
629.01,958.533
629.539,961.333
630.067,966.0
630.596,1021.13
631.124,1354.63
631.652,1116.67
632.18,1016.17
632.708,1004.13
633.236,1082.03
633.764,1043.7
634.292,962.433
634.82,922.433
635.348,908.0
635.876,904.5
636.403,903.533
636.931,900.667
637.459,899.7
637.986,900.1
638.514,898.0
639.041,899.033
639.568,896.7
640.096,897.5
640.623,899.3
641.15,899.767
641.678,898.267
642.205,898.367
642.732,897.067
643.259,894.333
643.786,894.567
644.313,892.3
644.84,891.567
645.367,890.367
645.894,890.567
646.421,891.7
646.948,891.567
647.474,890.833
648.001,889.633
648.528,889.7
649.054,887.067
649.581,887.0
650.108,888.0
650.634,888.467
651.161,885.7
651.687,887.433
652.214,887.833
652.74,886.467
653.266,884.833
653.793,886.233
654.319,886.667
654.845,886.233
655.371,887.5
655.897,884.4
656.424,885.2
656.95,886.133
657.476,887.767
658.002,884.5
658.528,883.633
659.054,883.367
659.58,884.1
660.106,884.367
660.631,881.7
661.157,883.367
661.683,883.8
662.209,881.9
662.735,883.4
663.129,882.433

File: VLFR_08-PLA_nobio_Raman_f4bff320.csv
nm,Intensity
526.547,833.1
527.094,832.4
527.641,832.6
528.188,833.2
528.734,832.2
529.281,832.1
529.827,832.0
530.373,832.5
530.92,832.4
531.466,831.9
532.011,838.9
532.557,830.3
533.103,831.7
533.648,835.4
534.193,1033.8
534.738,1004.5
535.283,981.3
535.828,966.7
536.373,968.7
536.917,963.9
537.462,964.1
538.006,963.4
538.55,955.7
539.094,956.7
539.638,954.7
540.182,956.2
540.726,962.6
541.269,965.6
541.812,966.3
542.356,964.9
542.899,961.6
543.442,986.1
543.985,989.4
544.527,977.1
545.07,966.0
545.612,962.7
546.155,970.4
546.697,968.9
547.239,975.4
547.781,970.2
548.323,976.2
548.865,974.7
549.406,978.6
549.948,979.7
550.489,982.2
551.03,985.1
551.572,992.5
552.113,991.5
552.654,992.7
553.194,991.1
553.735,989.9
554.276,999.6
554.816,997.4
555.356,984.3
555.896,987.2
556.437,989.4
556.977,991.2
557.516,1001.1
558.056,1099.6
558.596,1012.9
559.135,1010.1
559.675,1008.9
560.214,1000.6
560.753,1001.6
561.292,1000.7
561.831,999.2
562.37,997.5
562.909,1007.7
563.448,1040.1
563.986,1021.6
564.525,1014.7
565.063,1033.5
565.601,1029.0
566.139,1055.3
566.677,1025.7
567.215,1017.5
567.753,1021.0
568.291,1018.1
568.828,1022.0
569.366,1020.2
569.903,1021.6
570.441,1023.6
570.978,1023.1
571.515,1036.0
572.052,1037.0
572.589,1035.7
573.126,1039.6
573.662,1040.8
574.199,1037.6
574.735,1044.7
575.272,1030.7
575.808,1039.5
576.344,1049.9
576.88,1091.7
577.416,1048.7
577.952,1036.7
578.488,1037.2
579.024,1039.0
579.559,1038.9
580.095,1035.2
580.63,1038.1
581.166,1035.5
581.701,1032.2
582.236,1036.7
582.771,1037.4
583.306,1039.6
583.841,1040.6
584.376,1042.2
584.911,1038.5
585.445,1041.4
585.98,1040.2
586.514,1064.2
587.048,1075.2
587.583,1103.5
588.117,1055.1
588.651,1045.2
589.185,1038.6
589.719,1038.5
590.253,1035.9
590.786,1041.2
591.32,1038.5
591.853,1041.8
592.387,1039.7
592.92,1036.3
593.454,1035.4
593.987,1038.9
594.52,1041.4
595.053,1042.0
595.586,1037.0
596.119,1042.1
596.651,1042.4
597.184,1037.6
597.717,1042.5
598.249,1042.6
598.782,1044.1
599.314,1050.1
599.846,1036.3
600.379,1035.2
600.911,1040.2
601.443,1038.8
601.975,1037.2
602.507,1036.6
603.038,1033.3
603.57,1039.5
604.102,1041.9
604.633,1035.2
605.165,1027.8
605.696,1033.8
606.228,1027.4
606.759,1028.5
607.29,1029.6
607.821,1027.5
608.352,1027.9
608.883,1026.8
609.414,1030.4
609.945,1029.5
610.476,1027.6
611.006,1026.7
611.537,1027.9
612.067,1025.7
612.598,1027.7
613.128,1031.8
613.659,1034.0
614.189,1035.2
614.719,1030.2
615.249,1031.1
615.779,1029.3
616.309,1027.4
616.839,1029.7
617.369,1026.7
617.899,1026.9
618.428,1030.6
618.958,1024.8
619.487,1022.2
620.017,1025.9
620.546,1023.9
621.076,1022.7
621.605,1026.2
622.134,1028.2
622.663,1031.6
623.193,1033.3
623.722,1034.8
624.251,1026.8
624.78,1023.2
625.308,1022.5
625.837,1020.7
626.366,1019.0
626.895,1022.4
627.423,1023.6
627.952,1028.9
628.48,1094.3
629.009,1076.0
629.537,1073.6
630.065,1078.3
630.594,1137.6
631.122,1466.9
631.65,1221.3
632.178,1120.2
632.706,1111.3
633.234,1201.0
633.762,1150.3
634.29,1076.1
634.818,1021.5
635.346,1011.9
635.873,1013.9
636.401,1007.1
636.929,1006.5
637.456,1004.6
637.984,1003.0
638.511,1001.4
639.039,1004.6
639.566,1004.2
640.093,1004.7
640.62,1003.9
641.148,1000.7
641.675,1001.1
642.202,1001.9
642.729,994.3
643.256,996.6
643.783,991.1
644.31,992.2
644.837,989.9
645.364,984.5
645.891,987.7
646.417,992.7
646.944,987.8
647.471,992.4
647.997,980.8
648.524,981.0
649.051,981.9
649.577,976.1
650.104,981.1
650.63,977.2
651.157,974.3
651.683,977.7
652.209,976.8
652.736,976.2
653.262,976.8
653.788,974.5
654.314,971.9
654.84,975.9
655.366,974.7
655.893,972.4
656.419,970.4
656.945,971.8
657.471,968.8
657.997,971.2
658.522,967.9
659.048,968.3
659.574,974.7
660.1,972.0
660.626,971.3
661.152,965.1
661.677,959.7
662.203,965.7
662.729,963.9
663.123,963.6

File: VLFR_08-PLA_nobio_Raman_f7f9e741.csv
nm,Intensity
526.5,828.1
527.047,828.4
527.594,829.3
528.14,828.4
528.687,830.6
529.233,829.2
529.779,829.1
530.325,830.0
530.871,828.7
531.417,829.4
531.962,829.4
532.508,829.9
533.053,829.4
533.599,829.2
534.144,906.8
534.689,894.7
535.234,887.9
535.778,880.2
536.323,872.9
536.867,870.9
537.412,867.8
537.956,866.3
538.5,864.6
539.044,864.3
539.588,862.8
540.132,862.9
540.675,865.2
541.219,867.1
541.762,864.7
542.305,864.2
542.848,862.0
543.391,867.1
543.934,873.3
544.477,866.4
545.02,863.8
545.562,864.6
546.105,861.8
546.647,864.8
547.189,867.9
547.731,865.1
548.273,865.0
548.815,868.0
549.356,868.1
549.898,866.3
550.439,869.7
550.981,865.7
551.522,869.0
552.063,871.0
552.604,875.6
553.145,872.3
553.686,873.1
554.226,871.9
554.767,871.5
555.307,873.3
555.848,870.2
556.388,870.9
556.928,873.5
557.468,875.8
558.008,896.2
558.547,875.2
559.087,875.0
559.626,877.5
560.166,878.1
560.705,875.4
561.244,873.5
561.783,875.1
562.322,877.6
562.861,877.6
563.4,884.6
563.939,883.0
564.477,880.4
565.015,884.2
565.554,882.6
566.092,892.1
566.63,886.3
567.168,882.2
567.706,883.1
568.244,882.8
568.781,883.9
569.319,887.0
569.857,885.7
570.394,886.9
570.931,886.0
571.468,892.2
572.005,887.8
572.542,890.7
573.079,893.3
573.616,891.8
574.153,891.9
574.689,894.1
575.226,891.2
575.762,891.7
576.298,895.3
576.834,906.2
577.371,896.4
577.907,889.2
578.442,886.1
578.978,888.3
579.514,884.9
580.049,888.4
580.585,888.5
581.12,886.6
581.656,887.4
582.191,890.8
582.726,889.5
583.261,894.7
583.796,892.2
584.331,890.9
584.865,889.7
585.4,889.9
585.935,886.2
586.469,889.9
587.004,897.0
587.538,902.1
588.072,893.1
588.606,886.7
589.14,887.2
589.674,886.4
590.208,887.2
590.742,887.1
591.275,888.3
591.809,889.2
592.342,885.9
592.876,885.3
593.409,886.4
593.942,885.3
594.476,886.6
595.009,885.8
595.542,887.0
596.075,888.7
596.607,890.4
597.14,888.4
597.673,888.5
598.205,885.6
598.738,890.8
599.27,887.4
599.803,888.0
600.335,890.0
600.867,888.6
601.399,888.4
601.931,886.5
602.463,885.5
602.995,887.3
603.527,886.2
604.058,887.5
604.59,884.9
605.122,884.5
605.653,883.8
606.184,885.9
606.716,885.8
607.247,884.8
607.778,883.6
608.309,884.3
608.84,883.5
609.371,882.7
609.902,883.2
610.433,884.0
610.964,883.2
611.494,883.6
612.025,889.0
612.556,888.6
613.086,886.5
613.616,888.1
614.147,885.1
614.677,884.0
615.207,886.7
615.737,886.9
616.267,884.2
616.797,885.9
617.327,887.6
617.857,887.2
618.387,888.4
618.917,888.1
619.446,887.8
619.976,885.5
620.505,886.3
621.035,885.8
621.564,885.5
622.093,887.2
622.623,886.2
623.152,887.2
623.681,891.2
624.21,889.5
624.739,890.2
625.268,888.8
625.797,886.9
626.326,890.0
626.855,890.9
627.383,893.3
627.912,895.6
628.441,908.5
628.969,914.2
629.498,907.4
630.026,912.8
630.554,921.1
631.083,989.9
631.611,946.9
632.139,918.6
632.667,908.9
633.195,927.1
633.724,919.0
634.252,898.3
634.779,888.5
635.307,889.1
635.835,886.2
636.363,883.1
636.891,883.0
637.418,879.4
637.946,882.5
638.474,882.9
639.001,882.0
639.529,883.9
640.056,882.2
640.583,880.9
641.111,882.5
641.638,880.6
642.165,878.7
642.692,881.3
643.22,881.0
643.747,879.6
644.274,878.7
644.801,878.4
645.328,880.3
645.854,878.0
646.381,880.4
646.908,876.8
647.435,876.9
647.962,877.0
648.488,874.8
649.015,878.8
649.542,877.8
650.068,875.9
650.595,874.0
651.121,873.5
651.648,876.4
652.174,873.6
652.7,874.7
653.227,876.1
653.753,872.5
654.279,875.2
654.805,876.1
655.331,875.5
655.858,873.5
656.384,873.3
656.91,873.8
657.436,875.0
657.962,871.5
658.488,875.5
659.013,873.9
659.539,871.7
660.065,872.1
660.591,872.3
661.117,873.8
661.642,872.7
662.168,870.0
662.694,872.8
663.088,872.6