Folder: MPX_specDB/spectra (part 128)

File: VLFR_08-PLA_bio_Raman_7ab41b86.csv
nm,Intensity
526.495,829.3
527.042,827.8
527.589,829.5
528.136,829.6
528.682,828.5
529.229,829.5
529.775,828.6
530.321,828.7
530.867,829.2
531.413,829.5
531.959,829.2
532.505,830.2
533.051,828.6
533.596,831.4
534.141,1039.7
534.687,995.4
535.232,954.8
535.777,935.0
536.321,923.0
536.866,927.9
537.41,917.9
537.955,918.3
538.499,905.3
539.043,908.3
539.587,898.5
540.131,894.8
540.675,911.0
541.219,912.5
541.762,901.8
542.305,895.9
542.849,899.7
543.392,921.8
543.935,929.8
544.478,910.4
545.02,904.0
545.563,898.8
546.106,894.0
546.648,899.5
547.19,902.1
547.732,896.7
548.274,898.2
548.816,902.2
549.358,903.1
549.9,902.4
550.441,904.1
550.983,906.0
551.524,910.6
552.065,911.9
552.606,913.9
553.147,914.7
553.688,912.5
554.229,919.1
554.769,912.7
555.31,909.2
555.85,906.1
556.391,909.0
556.931,909.3
557.471,926.1
558.011,1044.1
558.551,948.5
559.09,920.7
559.63,923.7
560.169,918.3
560.709,919.4
561.248,914.8
561.787,916.3
562.326,914.6
562.865,928.1
563.404,962.1
563.943,935.3
564.481,935.0
565.02,953.8
565.558,947.1
566.096,970.3
566.634,948.2
567.172,927.2
567.71,931.0
568.248,938.4
568.786,935.2
569.324,938.2
569.861,932.4
570.399,930.6
570.936,934.3
571.473,956.4
572.01,950.1
572.547,949.6
573.084,954.4
573.621,955.6
574.158,946.9
574.694,960.3
575.231,937.5
575.767,937.5
576.303,956.5
576.84,1017.3
577.376,963.0
577.912,941.5
578.448,939.6
578.984,935.1
579.519,938.3
580.055,935.5
580.59,935.6
581.126,938.8
581.661,936.4
582.196,936.1
582.731,940.6
583.267,940.2
583.801,943.6
584.336,936.7
584.871,938.1
585.406,936.4
585.94,945.1
586.475,957.3
587.009,997.3
587.543,1012.6
588.078,967.4
588.612,947.4
589.146,943.5
589.68,944.8
590.214,945.2
590.747,940.9
591.281,944.8
591.815,941.2
592.348,944.3
592.881,944.8
593.415,943.7
593.948,945.7
594.481,948.2
595.014,949.0
595.547,955.8
596.08,951.3
596.613,951.4
597.146,957.9
597.678,958.8
598.211,956.5
598.743,960.8
599.276,963.2
599.808,962.4
600.34,963.6
600.872,965.3
601.404,970.0
601.936,968.6
602.468,976.3
603.0,972.4
603.532,978.3
604.064,978.2
604.595,977.5
605.127,983.3
605.658,978.9
606.189,984.7
606.721,987.5
607.252,986.2
607.783,992.4
608.314,997.7
608.845,995.7
609.376,1002.6
609.907,1005.6
610.438,1005.4
610.968,1011.0
611.499,1004.4
612.029,1011.1
612.56,1013.3
613.09,1018.6
613.621,1018.4
614.151,1027.9
614.681,1025.5
615.211,1026.0
615.741,1029.6
616.271,1032.6
616.801,1035.2
617.331,1038.0
617.861,1046.4
618.39,1037.9
618.92,1037.9
619.45,1041.9
619.979,1038.0
620.509,1046.8
621.038,1045.5
621.567,1038.9
622.096,1046.3
622.626,1051.6
623.155,1063.3
623.684,1062.0
624.213,1057.3
624.742,1048.9
625.271,1048.7
625.799,1047.6
626.328,1052.0
626.857,1046.8
627.386,1050.5
627.914,1058.0
628.443,1125.3
628.971,1107.9
629.5,1108.7
630.028,1105.5
630.556,1166.4
631.084,1535.5
631.613,1296.0
632.141,1164.1
632.669,1144.0
633.197,1234.9
633.725,1201.1
634.253,1105.0
634.781,1052.5
635.308,1037.0
635.836,1028.2
636.364,1032.3
636.891,1021.5
637.419,1021.3
637.947,1019.2
638.474,1018.2
639.002,1012.1
639.529,1010.8
640.056,1014.3
640.584,1006.2
641.111,1007.1
641.638,1003.0
642.165,1005.4
642.692,1002.5
643.219,998.0
643.746,996.2
644.273,991.8
644.8,987.6
645.327,984.6
645.854,980.1
646.381,978.6
646.908,978.7
647.434,979.5
647.961,976.8
648.488,976.6
649.014,971.9
649.541,969.6
650.067,971.2
650.594,964.5
651.12,969.1
651.646,960.8
652.173,965.9
652.699,964.1
653.225,960.9
653.752,957.8
654.278,961.4
654.804,956.0
655.33,955.8
655.856,955.9
656.382,955.4
656.908,953.3
657.434,952.0
657.96,948.3
658.486,946.2
659.012,951.3
659.538,944.5
660.064,946.4
660.589,943.7
661.115,941.0
661.641,942.9
662.166,939.1
662.692,939.1
663.086,934.8

File: VLFR_08-PLA_bio_Raman_7b8cc3c5.csv
nm,Intensity
526.495,828.3
527.042,828.3
527.589,828.3
528.136,830.1
528.682,827.1
529.229,828.4
529.775,828.6
530.321,830.4
530.867,829.5
531.413,828.7
531.959,832.6
532.505,830.4
533.051,829.5
533.596,830.1
534.141,1060.0
534.687,1010.2
535.232,970.5
535.777,950.1
536.321,938.7
536.866,947.8
537.41,932.8
537.955,933.1
538.499,923.1
539.043,916.2
539.587,913.8
540.131,911.1
540.675,929.4
541.219,929.8
541.762,922.4
542.305,914.7
542.849,919.0
543.392,942.7
543.935,951.8
544.478,930.2
545.02,916.9
545.563,916.0
546.106,913.1
546.648,913.6
547.19,919.9
547.732,917.7
548.274,912.9
548.816,919.7
549.358,921.6
549.9,918.7
550.441,920.8
550.983,923.1
551.524,927.4
552.065,932.7
552.606,932.3
553.147,931.5
553.688,924.3
554.229,943.3
554.769,933.3
555.31,924.3
555.85,921.1
556.391,922.7
556.931,927.9
557.471,945.7
558.011,1061.0
558.551,963.0
559.09,944.9
559.63,942.5
560.169,932.1
560.709,931.9
561.248,930.3
561.787,929.4
562.326,927.9
562.865,943.2
563.404,976.1
563.943,956.7
564.481,950.5
565.02,974.4
565.558,962.7
566.096,995.5
566.634,960.2
567.172,940.5
567.71,944.7
568.248,944.7
568.786,946.1
569.324,950.2
569.861,944.1
570.399,945.6
570.936,947.7
571.473,962.3
572.01,966.9
572.547,958.8
573.084,966.6
573.621,966.2
574.158,965.8
574.694,972.6
575.231,947.9
575.767,952.8
576.303,968.3
576.84,1034.2
577.376,976.3
577.912,958.2
578.448,951.6
578.984,954.4
579.519,954.2
580.055,952.8
580.59,954.8
581.126,950.9
581.661,949.9
582.196,955.8
582.731,953.9
583.267,956.7
583.801,956.3
584.336,963.0
584.871,959.1
585.406,957.2
585.94,962.3
586.475,970.7
587.009,1017.0
587.543,1035.7
588.078,984.2
588.612,960.4
589.146,956.3
589.68,955.2
590.214,958.4
590.747,953.6
591.281,958.1
591.815,955.4
592.348,956.9
592.881,958.1
593.415,957.7
593.948,954.7
594.481,955.9
595.014,959.3
595.547,956.4
596.08,957.3
596.613,960.2
597.146,959.8
597.678,953.3
598.211,964.4
598.743,962.8
599.276,954.7
599.808,958.3
600.34,957.3
600.872,957.7
601.404,953.6
601.936,955.9
602.468,955.7
603.0,954.9
603.532,957.2
604.064,955.1
604.595,957.4
605.127,953.4
605.658,952.0
606.189,954.3
606.721,951.9
607.252,948.5
607.783,949.1
608.314,950.1
608.845,949.1
609.376,955.7
609.907,949.1
610.438,954.0
610.968,951.1
611.499,948.5
612.029,954.3
612.56,953.7
613.09,956.1
613.621,958.9
614.151,953.9
614.681,951.5
615.211,953.4
615.741,956.1
616.271,951.4
616.801,952.2
617.331,953.5
617.861,955.5
618.39,951.5
618.92,957.7
619.45,953.9
619.979,956.2
620.509,952.2
621.038,950.4
621.567,952.3
622.096,951.8
622.626,962.2
623.155,966.7
623.684,963.8
624.213,957.3
624.742,954.5
625.271,951.6
625.799,956.0
626.328,948.5
626.857,950.5
627.386,952.3
627.914,960.3
628.443,1031.7
628.971,1025.2
629.5,1022.4
630.028,1028.2
630.556,1086.7
631.084,1505.9
631.613,1243.2
632.141,1099.2
632.669,1070.6
633.197,1169.7
633.725,1126.9
634.253,1027.7
634.781,970.7
635.308,955.7
635.836,953.8
636.364,947.3
636.891,945.6
637.419,943.4
637.947,940.6
638.474,938.1
639.002,939.1
639.529,943.5
640.056,937.1
640.584,941.6
641.111,939.6
641.638,941.3
642.165,938.8
642.692,942.4
643.219,934.4
643.746,934.4
644.273,932.8
644.8,932.1
645.327,929.4
645.854,931.9
646.381,928.6
646.908,928.2
647.434,926.8
647.961,925.7
648.488,926.0
649.014,927.1
649.541,925.3
650.067,925.7
650.594,927.8
651.12,922.0
651.646,924.0
652.173,919.4
652.699,922.5
653.225,918.7
653.752,921.9
654.278,918.5
654.804,921.0
655.33,918.2
655.856,919.9
656.382,917.6
656.908,921.2
657.434,917.3
657.96,919.3
658.486,917.0
659.012,918.1
659.538,919.4
660.064,917.1
660.589,915.7
661.115,915.4
661.641,913.9
662.166,912.8
662.692,913.9
663.086,912.7

File: VLFR_08-PLA_bio_Raman_7bf9304d.csv
nm,Intensity
526.495,829.2
527.042,830.7
527.589,828.8
528.136,828.7
528.682,827.8
529.229,828.9
529.775,828.7
530.321,828.0
530.867,829.4
531.413,829.2
531.959,835.5
532.505,829.8
533.051,828.6
533.596,831.0
534.141,1037.9
534.687,986.8
535.232,944.5
535.777,919.5
536.321,912.5
536.866,912.2
537.41,901.2
537.955,902.0
538.499,887.2
539.043,883.3
539.587,878.8
540.131,872.2
540.675,891.4
541.219,891.1
541.762,884.0
542.305,876.7
542.849,876.8
543.392,899.6
543.935,909.0
544.478,885.4
545.02,873.7
545.563,866.4
546.106,864.3
546.648,869.1
547.19,871.3
547.732,870.7
548.274,869.2
548.816,870.5
549.358,874.5
549.9,869.5
550.441,875.3
550.983,875.4
551.524,877.8
552.065,879.4
552.606,881.0
553.147,880.9
553.688,876.9
554.229,886.0
554.769,875.3
555.31,868.6
555.85,870.1
556.391,867.7
556.931,871.9
557.471,888.6
558.011,1018.8
558.551,910.2
559.09,885.5
559.63,878.0
560.169,873.8
560.709,873.8
561.248,872.7
561.787,868.5
562.326,874.7
562.865,882.8
563.404,917.8
563.943,894.2
564.481,881.4
565.02,907.5
565.558,901.7
566.096,934.7
566.634,898.3
567.172,874.9
567.71,879.7
568.248,884.4
568.786,880.5
569.324,887.3
569.861,877.0
570.399,881.7
570.936,880.9
571.473,897.3
572.01,901.3
572.547,891.8
573.084,894.1
573.621,895.9
574.158,892.5
574.694,905.4
575.231,879.8
575.767,883.9
576.303,903.1
576.84,970.7
577.376,904.0
577.912,886.3
578.448,881.8
578.984,880.9
579.519,881.8
580.055,878.9
580.59,880.4
581.126,879.0
581.661,880.5
582.196,879.9
582.731,879.5
583.267,879.9
583.801,880.7
584.336,882.1
584.871,878.4
585.406,880.7
585.94,885.3
586.475,894.8
587.009,936.5
587.543,961.6
588.078,907.2
588.612,886.0
589.146,880.0
589.68,881.7
590.214,879.5
590.747,880.5
591.281,877.7
591.815,878.7
592.348,881.2
592.881,882.1
593.415,880.6
593.948,880.7
594.481,879.5
595.014,879.2
595.547,881.3
596.08,881.3
596.613,878.9
597.146,878.9
597.678,878.4
598.211,880.5
598.743,881.3
599.276,881.4
599.808,878.8
600.34,881.1
600.872,877.5
601.404,880.0
601.936,878.5
602.468,881.7
603.0,882.6
603.532,879.9
604.064,879.0
604.595,881.1
605.127,879.9
605.658,875.1
606.189,877.5
606.721,875.5
607.252,880.7
607.783,879.8
608.314,877.3
608.845,878.1
609.376,880.5
609.907,879.8
610.438,876.4
610.968,878.4
611.499,878.6
612.029,877.2
612.56,879.0
613.09,879.7
613.621,881.8
614.151,880.9
614.681,880.7
615.211,880.3
615.741,881.4
616.271,882.1
616.801,880.4
617.331,880.2
617.861,881.2
618.39,878.6
618.92,878.6
619.45,878.8
619.979,878.4
620.509,879.0
621.038,880.6
621.567,880.3
622.096,881.9
622.626,890.9
623.155,894.8
623.684,893.1
624.213,884.1
624.742,885.6
625.271,878.6
625.799,878.8
626.328,880.8
626.857,882.4
627.386,885.1
627.914,895.8
628.443,971.3
628.971,953.7
629.5,957.5
630.028,959.0
630.556,1021.2
631.084,1460.5
631.613,1177.3
632.141,1028.4
632.669,1012.5
633.197,1111.2
633.725,1065.7
634.253,960.6
634.781,909.0
635.308,886.9
635.836,882.2
636.364,882.1
636.891,880.1
637.419,877.4
637.947,875.6
638.474,874.1
639.002,876.4
639.529,874.1
640.056,871.4
640.584,876.3
641.111,875.9
641.638,878.4
642.165,876.5
642.692,875.1
643.219,873.1
643.746,872.3
644.273,869.9
644.8,870.3
645.327,868.3
645.854,870.1
646.381,866.9
646.908,867.2
647.434,869.6
647.961,869.4
648.488,869.2
649.014,870.5
649.541,868.2
650.067,866.5
650.594,866.1
651.12,866.1
651.646,866.9
652.173,864.1
652.699,864.7
653.225,866.5
653.752,867.5
654.278,866.4
654.804,866.3
655.33,864.0
655.856,864.5
656.382,864.0
656.908,865.2
657.434,866.5
657.96,863.4
658.486,862.4
659.012,862.7
659.538,863.8
660.064,866.7
660.589,863.4
661.115,865.1
661.641,865.2
662.166,863.0
662.692,863.6
663.086,862.0

File: VLFR_08-PLA_bio_Raman_7e854666.csv
nm,Intensity
526.547,832.75
527.095,831.75
527.642,832.45
528.189,831.7
528.736,832.5
529.283,832.7
529.829,831.6
530.376,831.5
530.922,831.55
531.468,831.6
532.014,834.75
532.56,831.9
533.106,832.25
533.651,834.85
534.196,1019.05
534.742,984.5
535.287,964.8
535.832,945.7
536.376,943.6
536.921,945.15
537.465,933.95
538.01,935.1
538.554,929.3
539.098,928.15
539.642,922.2
540.186,921.5
540.729,938.55
541.273,937.65
541.816,927.2
542.36,926.3
542.903,927.15
543.446,948.95
543.988,958.85
544.531,937.05
545.074,927.65
545.616,928.7
546.158,926.2
546.701,926.65
547.243,929.8
547.785,932.05
548.326,929.25
548.868,930.8
549.41,935.2
549.951,936.4
550.492,938.35
551.034,939.65
551.575,944.0
552.116,944.85
552.656,948.45
553.197,948.8
553.738,945.7
554.278,950.5
554.819,944.55
555.359,941.0
555.899,941.35
556.439,943.7
556.979,944.5
557.519,956.15
558.058,1052.75
558.598,963.95
559.137,952.6
559.677,955.95
560.216,948.0
560.755,950.0
561.294,948.85
561.833,948.4
562.371,949.65
562.91,961.75
563.449,984.5
563.987,968.1
564.525,963.95
565.064,984.15
565.602,976.45
566.14,1007.2
566.678,970.8
567.216,966.75
567.753,970.95
568.291,968.9
568.828,971.6
569.366,974.5
569.903,972.1
570.44,971.9
570.977,976.4
571.514,994.35
572.051,990.4
572.588,989.0
573.125,989.3
573.661,994.9
574.198,993.55
574.734,999.15
575.271,985.95
575.807,983.05
576.343,1002.5
576.879,1041.9
577.415,999.4
577.951,982.0
578.486,987.2
579.022,986.1
579.557,986.4
580.093,988.0
580.628,982.7
581.164,987.95
581.699,990.35
582.234,983.05
582.769,985.5
583.304,981.4
583.838,981.95
584.373,976.8
584.908,975.25
585.442,975.4
585.977,974.75
586.511,988.05
587.045,1008.7
587.58,1032.85
588.114,989.75
588.648,978.8
589.182,972.8
589.715,973.65
590.249,973.15
590.783,970.5
591.316,969.35
591.85,973.9
592.383,969.45
592.917,967.1
593.45,969.95
593.983,968.5
594.516,970.35
595.049,971.1
595.582,970.55
596.115,969.5
596.648,969.45
597.18,967.5
597.713,968.75
598.245,969.1
598.778,972.8
599.31,970.25
599.842,969.7
600.375,968.5
600.907,963.1
601.439,967.2
601.971,967.95
602.503,968.85
603.034,966.2
603.566,964.9
604.098,967.3
604.629,964.55
605.161,961.45
605.692,961.75
606.224,958.4
606.755,958.4
607.286,957.8
607.817,960.0
608.348,959.65
608.879,961.2
609.41,957.75
609.941,958.05
610.472,958.6
611.002,953.3
611.533,955.25
612.063,958.2
612.594,959.2
613.124,960.1
613.655,960.25
614.185,959.8
614.715,960.4
615.245,961.95
615.775,955.9
616.305,960.0
616.835,958.85
617.365,958.45
617.895,957.4
618.425,956.85
618.954,957.4
619.484,956.0
620.013,954.75
620.543,955.45
621.072,956.65
621.602,957.35
622.131,960.05
622.66,958.8
623.189,960.8
623.718,962.55
624.247,954.3
624.776,955.7
625.305,955.4
625.834,952.4
626.363,954.95
626.891,953.4
627.42,953.3
627.949,966.25
628.477,1011.3
629.006,998.75
629.534,997.3
630.062,1003.8
630.591,1052.7
631.119,1332.1
631.647,1135.15
632.175,1043.7
632.703,1030.55
633.231,1095.65
633.759,1060.95
634.287,992.45
634.815,961.2
635.343,946.75
635.871,948.3
636.398,944.55
636.926,938.9
637.454,942.2
637.981,940.05
638.509,939.6
639.036,937.6
639.564,940.75
640.091,939.15
640.618,938.0
641.146,938.65
641.673,936.4
642.2,937.4
642.727,935.0
643.254,933.1
643.781,932.15
644.308,928.35
644.835,929.25
645.362,925.85
645.889,926.3
646.416,926.5
646.942,927.95
647.469,928.55
647.996,924.55
648.522,927.2
649.049,923.45
649.576,920.95
650.102,924.45
650.629,923.25
651.155,919.75
651.682,920.35
652.208,923.55
652.734,920.45
653.261,920.35
653.787,921.6
654.313,919.7
654.839,919.5
655.365,920.9
655.892,918.8
656.418,918.85
656.944,919.65
657.47,918.05
657.996,918.8
658.522,915.8
659.048,918.0
659.574,917.6
660.099,919.25
660.625,916.65
661.151,915.9
661.677,915.45
662.203,913.6
662.728,914.1
663.123,913.55

File: VLFR_08-PLA_bio_Raman_8a362359.csv
nm,Intensity
528.626,1866.3
529.132,1863.7
529.637,1864.9
530.143,1865.1
530.648,1863.8
531.153,1864.6
531.658,1907.6
532.164,4199.9
532.669,1866.8
533.174,1864.4
533.679,1963.9
534.184,2290.4
534.689,2312.3
535.194,2346.9
535.699,2360.8
536.203,2377.0
536.708,2337.6
537.213,2362.8
537.717,2385.2
538.222,2374.0
538.726,2396.5
539.231,2397.4
539.735,2395.6
540.239,2410.0
540.744,2408.9
541.248,2450.6
541.752,2454.8
542.256,2431.9
542.76,2473.9
543.264,2464.7
543.768,2485.4
544.272,2464.1
544.776,2470.6
545.28,2508.6
545.784,2509.5
546.287,2474.8
546.791,2515.1
547.294,2526.4
547.798,2522.7
548.301,2556.7
548.805,2540.4
549.308,2549.6
549.811,2576.4
550.315,2552.2
550.818,2597.4
551.321,2593.9
551.824,2626.8
552.327,2593.2
552.83,2602.1
553.333,2630.3
553.835,2634.1
554.338,2647.4
554.841,2645.5
555.343,2642.6
555.846,2652.2
556.349,2663.5
556.851,2646.0
557.353,2634.4
557.856,2681.5
558.358,2665.3
558.86,2648.1
559.362,2654.9
559.864,2676.5
560.366,2670.3
560.868,2716.5
561.37,2690.0
561.872,2719.7
562.374,2735.0
562.876,2720.2
563.377,2715.6
563.879,2737.0
564.38,2749.4
564.882,2745.6
565.383,2737.9
565.885,2740.3
566.386,2750.5
566.887,2754.0
567.388,2766.5
567.889,2745.1
568.391,2784.9
568.892,2778.4
569.392,2798.2
569.893,2781.5
570.394,2784.6
570.895,2780.6
571.395,2775.7
571.896,2808.5
572.397,2829.5
572.897,2791.2
573.397,2815.8
573.898,2809.6
574.398,2825.7
574.898,2801.9
575.398,2799.9
575.898,2821.9
576.398,2830.9
576.898,2832.9
577.398,2821.6
577.898,2801.8
578.398,2819.1
578.897,2834.0
579.397,2838.2
579.896,2838.5
580.396,2826.4
580.895,2845.9
581.395,2852.5
581.894,2874.8
582.393,2860.3
582.892,2829.4
583.391,2847.8
583.89,2860.4
584.389,2856.8
584.888,2853.6
585.387,2796.0
585.886,2802.0
586.384,2839.3
586.883,2813.0
587.381,2834.8
587.88,2853.1
588.378,2829.9
588.876,2782.0
589.375,2792.7
589.873,2791.8
590.371,2814.0
590.869,2799.7
591.367,2813.1
591.865,2801.6
592.363,2827.0
592.86,2790.0
593.358,2827.6
593.856,2825.0
594.353,2799.6
594.851,2813.7
595.348,2795.5
595.845,2828.2
596.342,2834.5
596.84,2814.5
597.337,2828.9
597.834,2817.7
598.331,2791.4
598.828,2823.2
599.324,2845.3
599.821,2810.5
600.318,2816.1
600.814,2818.9
601.311,2829.0
601.807,2819.4
602.304,2830.3
602.8,2827.5
603.296,2841.0
603.792,2827.6
604.288,2815.2
604.784,2817.5
605.28,2805.8
605.776,2782.2
606.272,2807.5
606.767,2803.0
607.263,2851.7
607.759,2824.6
608.254,2824.0
608.749,2808.2
609.245,2791.9
609.74,2808.6
610.235,2794.5
610.73,2845.5
611.225,2801.4
611.72,2815.6
612.215,2789.0
612.71,2800.3
613.204,2804.0
613.699,2777.4
614.194,2756.5
614.688,2816.0
615.182,2779.8
615.677,2777.1
616.171,2761.2
616.665,2763.0
617.159,2781.1
617.653,2784.6
618.147,2748.5
618.641,2800.5
619.135,2747.9
619.628,2787.7
620.122,2758.4
620.615,2778.6
621.109,2756.6
621.602,2754.7
622.095,2786.2
622.589,2742.8
623.082,2759.0
623.575,2753.7
624.068,2746.9
624.561,2733.1
625.053,2746.7
625.546,2731.9
626.039,2720.9
626.531,2744.7
627.024,2705.3
627.516,2706.4
628.008,2702.8
628.501,2691.8
628.993,2697.5
629.485,2715.6
629.977,2662.0
630.469,2685.9
630.96,2693.7
631.452,2674.4
631.944,2679.9
632.435,2677.3
632.927,2677.0
633.418,2686.8
633.91,2678.0
634.401,2646.2
634.892,2639.4
635.383,2642.8
635.874,2647.1
636.365,2650.5
636.856,2623.5
637.346,2659.0
637.837,2623.8
638.327,2644.5
638.818,2630.9
639.308,2604.9
639.799,2586.9
640.289,2600.4
640.779,2582.5
641.269,2590.1
641.759,2590.2
642.249,2574.3
642.738,2617.4
643.228,2550.7
643.718,2554.9
644.207,2555.2
644.697,2564.7
645.186,2581.8
645.675,2534.1
646.164,2547.5
646.653,2516.9
647.142,2518.3
647.631,2528.2
648.12,2532.4
648.609,2528.4
649.098,2515.1
649.586,2478.9
650.075,2492.8
650.563,2494.1
651.051,2484.4
651.539,2468.6
652.027,2458.5
652.515,2457.1
653.003,2464.4
653.491,2426.4
653.979,2429.9
654.467,2424.6
654.954,2404.7
655.442,2381.2
655.929,2378.4
656.416,2321.4
656.904,2359.5
657.391,2341.7
657.878,2365.9
658.365,2349.1
658.851,2317.2
659.338,2325.6
659.825,2327.0
660.311,2318.1
660.798,2321.1
661.041,2312.4

File: VLFR_08-PLA_bio_Raman_8c1a37a0.csv
nm,Intensity
526.495,829.7
527.042,828.933
527.589,829.1
528.136,829.233
528.682,830.0
529.229,829.467
529.775,829.6
530.321,829.5
530.867,829.567
531.413,829.433
531.959,835.267
532.505,829.933
533.051,828.933
533.596,831.267
534.141,1064.43
534.687,1035.77
535.232,1000.3
535.777,985.833
536.321,979.133
536.866,979.667
537.41,970.933
537.955,969.633
538.499,963.867
539.043,960.6
539.587,959.667
540.131,957.9
540.675,970.133
541.219,969.167
541.762,964.633
542.305,960.6
542.849,966.7
543.392,982.0
543.935,990.367
544.478,974.767
545.02,969.6
545.563,970.233
546.106,968.733
546.648,968.833
547.19,972.367
547.732,975.1
548.274,974.267
548.816,973.967
549.358,979.5
549.9,982.433
550.441,982.733
550.983,983.067
551.524,989.333
552.065,989.0
552.606,991.167
553.147,994.9
553.688,993.967
554.229,998.9
554.769,996.4
555.31,987.967
555.85,988.9
556.391,993.967
556.931,995.7
557.471,1010.97
558.011,1096.7
558.551,1023.0
559.09,1008.3
559.63,1008.37
560.169,1008.1
560.709,1007.17
561.248,1002.73
561.787,1007.43
562.326,1006.57
562.865,1018.3
563.404,1041.17
563.943,1028.0
564.481,1021.2
565.02,1037.37
565.558,1032.93
566.096,1059.77
566.634,1030.5
567.172,1022.0
567.71,1024.67
568.248,1026.77
568.786,1031.4
569.324,1034.17
569.861,1030.67
570.399,1036.57
570.936,1035.77
571.473,1049.83
572.01,1051.83
572.547,1049.63
573.084,1050.8
573.621,1050.67
574.158,1048.97
574.694,1059.37
575.231,1042.73
575.767,1044.57
576.303,1061.93
576.84,1107.53
577.376,1067.9
577.912,1053.6
578.448,1050.3
578.984,1050.83
579.519,1054.37
580.055,1051.17
580.59,1051.13
581.126,1052.87
581.661,1052.1
582.196,1057.13
582.731,1055.07
583.267,1058.13
583.801,1058.7
584.336,1059.9
584.871,1055.67
585.406,1059.33
585.94,1058.3
586.475,1071.13
587.009,1095.13
587.543,1112.67
588.078,1080.33
588.612,1062.4
589.146,1060.3
589.68,1060.5
590.214,1063.43
590.747,1064.1
591.281,1064.1
591.815,1060.77
592.348,1062.6
592.881,1059.97
593.415,1064.03
593.948,1063.57
594.481,1063.53
595.014,1068.33
595.547,1070.0
596.08,1073.5
596.613,1070.5
597.146,1069.63
597.678,1070.0
598.211,1075.1
598.743,1075.1
599.276,1074.1
599.808,1073.43
600.34,1075.4
600.872,1070.6
601.404,1076.4
601.936,1075.97
602.468,1075.27
603.0,1077.93
603.532,1075.1
604.064,1078.83
604.595,1079.53
605.127,1073.27
605.658,1074.0
606.189,1069.47
606.721,1071.5
607.252,1072.07
607.783,1072.87
608.314,1080.37
608.845,1078.2
609.376,1080.17
609.907,1083.07
610.438,1078.0
610.968,1080.4
611.499,1079.83
612.029,1081.53
612.56,1084.8
613.09,1083.87
613.621,1087.7
614.151,1088.83
614.681,1093.33
615.211,1093.37
615.741,1092.53
616.271,1087.5
616.801,1094.3
617.331,1096.9
617.861,1091.83
618.39,1095.9
618.92,1095.13
619.45,1094.43
619.979,1092.2
620.509,1095.4
621.038,1093.23
621.567,1090.93
622.096,1100.4
622.626,1102.93
623.155,1107.77
623.684,1108.7
624.213,1102.8
624.742,1102.1
625.271,1096.0
625.799,1096.6
626.328,1099.97
626.857,1101.43
627.386,1101.07
627.914,1110.8
628.443,1160.7
628.971,1148.83
629.5,1150.6
630.028,1154.6
630.556,1204.53
631.084,1477.4
631.613,1295.07
632.141,1197.8
632.669,1177.4
633.197,1245.2
633.725,1218.6
634.253,1143.3
634.781,1110.73
635.308,1101.23
635.836,1098.8
636.364,1093.97
636.891,1088.6
637.419,1094.1
637.947,1090.7
638.474,1088.53
639.002,1090.6
639.529,1090.17
640.056,1086.2
640.584,1087.17
641.111,1085.27
641.638,1088.83
642.165,1088.3
642.692,1080.97
643.219,1081.1
643.746,1079.37
644.273,1075.37
644.8,1070.9
645.327,1073.43
645.854,1074.13
646.381,1069.53
646.908,1067.73
647.434,1071.63
647.961,1067.17
648.488,1070.03
649.014,1064.13
649.541,1065.7
650.067,1062.13
650.594,1062.17
651.12,1059.6
651.646,1062.53
652.173,1061.63
652.699,1062.07
653.225,1063.23
653.752,1059.3
654.278,1060.73
654.804,1056.53
655.33,1055.03
655.856,1053.57
656.382,1054.2
656.908,1055.9
657.434,1050.63
657.96,1055.97
658.486,1055.3
659.012,1053.1
659.538,1049.37
660.064,1053.07
660.589,1049.9
661.115,1048.97
661.641,1044.63
662.166,1046.93
662.692,1044.53
663.086,1043.77