Folder: MPX_specDB/spectra (part 14)

File: VLFR_01-LDPE_bio_Raman_d81c62ec.csv
nm,Intensity
526.495,829.48
527.042,829.0
527.589,829.54
528.136,829.34
528.682,829.86
529.229,829.1
529.775,829.82
530.321,829.0
530.867,829.18
531.413,828.74
531.959,831.52
532.505,830.4
533.051,829.14
533.596,829.6
534.141,892.72
534.687,889.2
535.232,880.22
535.777,874.1
536.321,867.1
536.866,866.06
537.41,863.96
537.955,862.6
538.499,862.92
539.043,861.24
539.587,860.34
540.131,859.76
540.675,859.44
541.219,861.36
541.762,860.5
542.305,859.22
542.849,859.64
543.392,860.3
543.935,860.36
544.478,861.7
545.02,861.26
545.563,861.26
546.106,861.68
546.648,861.76
547.19,862.7
547.732,863.3
548.274,863.68
548.816,864.22
549.358,863.34
549.9,863.6
550.441,864.42
550.983,863.34
551.524,864.26
552.065,864.6
552.606,864.04
553.147,865.2
553.688,866.1
554.229,866.7
554.769,867.32
555.31,865.86
555.85,867.18
556.391,868.06
556.931,868.62
557.471,869.26
558.011,870.88
558.551,869.74
559.09,869.0
559.63,870.62
560.169,870.98
560.709,871.52
561.248,872.72
561.787,872.78
562.326,873.0
562.865,872.98
563.404,875.44
563.943,882.36
564.481,879.8
565.02,879.26
565.558,878.74
566.096,884.36
566.634,877.9
567.172,877.48
567.71,877.92
568.248,876.86
568.786,879.68
569.324,879.9
569.861,882.22
570.399,882.7
570.936,885.36
571.473,892.94
572.01,890.46
572.547,886.96
573.084,887.88
573.621,888.8
574.158,889.28
574.694,887.72
575.231,887.52
575.767,892.12
576.303,908.18
576.84,902.94
577.376,896.46
577.912,891.72
578.448,893.76
578.984,893.64
579.519,895.94
580.055,896.46
580.59,900.76
581.126,900.64
581.661,902.44
582.196,905.5
582.731,907.06
583.267,908.2
583.801,909.84
584.336,911.52
584.871,911.06
585.406,914.08
585.94,914.82
586.475,919.72
587.009,924.16
587.543,928.66
588.078,927.98
588.612,932.86
589.146,938.64
589.68,939.76
590.214,943.06
590.747,947.56
591.281,953.8
591.815,955.0
592.348,960.62
592.881,961.04
593.415,963.94
593.948,965.96
594.481,972.02
595.014,974.84
595.547,979.14
596.08,982.14
596.613,988.26
597.146,993.3
597.678,996.8
598.211,1004.0
598.743,1007.34
599.276,1012.5
599.808,1012.54
600.34,1014.9
600.872,1011.98
601.404,1009.26
601.936,1011.58
602.468,1010.58
603.0,1008.5
603.532,1005.56
604.064,999.62
604.595,996.6
605.127,988.62
605.658,983.28
606.189,977.92
606.721,971.22
607.252,970.82
607.783,968.64
608.314,966.42
608.845,964.16
609.376,960.32
609.907,957.12
610.438,954.06
610.968,954.32
611.499,952.2
612.029,949.1
612.56,951.08
613.09,947.64
613.621,948.38
614.151,945.3
614.681,946.06
615.211,943.42
615.741,945.02
616.271,941.02
616.801,941.98
617.331,940.54
617.861,938.54
618.39,939.12
618.92,936.3
619.45,937.48
619.979,937.58
620.509,935.14
621.038,934.3
621.567,935.36
622.096,938.34
622.626,936.54
623.155,933.4
623.684,933.38
624.213,930.9
624.742,931.7
625.271,930.58
625.799,931.16
626.328,935.68
626.857,967.38
627.386,1034.0
627.914,999.2
628.443,1027.02
628.971,1008.3
629.5,996.76
630.028,985.7
630.556,985.52
631.084,962.94
631.613,950.46
632.141,942.88
632.669,936.48
633.197,933.26
633.725,931.28
634.253,929.26
634.781,928.8
635.308,929.98
635.836,930.0
636.364,929.14
636.891,929.72
637.419,929.28
637.947,928.2
638.474,931.44
639.002,931.2
639.529,932.62
640.056,933.08
640.584,936.62
641.111,936.38
641.638,939.28
642.165,937.98
642.692,939.2
643.219,939.84
643.746,938.82
644.273,939.96
644.8,941.62
645.327,940.58
645.854,943.56
646.381,942.28
646.908,943.4
647.434,946.02
647.961,947.2
648.488,945.26
649.014,945.64
649.541,947.68
650.067,948.14
650.594,947.26
651.12,948.64
651.646,949.82
652.173,948.5
652.699,952.62
653.225,952.0
653.752,952.24
654.278,952.22
654.804,950.74
655.33,950.84
655.856,951.14
656.382,949.64
656.908,948.54
657.434,949.76
657.96,945.6
658.486,944.14
659.012,944.64
659.538,944.38
660.064,940.78
660.589,937.2
661.115,934.96
661.641,935.64
662.166,930.64
662.692,932.06
663.086,928.86

File: VLFR_01-LDPE_bio_Raman_d6447f85.csv
nm,Intensity
528.65,1854.45
529.155,1854.6
529.66,1856.1
530.165,1854.55
530.67,1854.15
531.175,1856.2
531.68,1890.95
532.185,3008.9
532.69,1855.25
533.194,1854.95
533.699,1939.95
534.204,2158.2
534.708,2145.1
535.213,2137.65
535.717,2110.9
536.222,2090.6
536.726,2070.85
537.231,2092.45
537.735,2074.05
538.239,2069.2
538.743,2074.45
539.247,2068.85
539.751,2048.7
540.255,2042.5
540.759,2050.45
541.263,2052.75
541.767,2044.0
542.271,2039.25
542.775,2056.2
543.279,2048.95
543.782,2062.1
544.286,2076.7
544.789,2049.4
545.293,2053.05
545.796,2062.4
546.3,2220.5
546.803,2113.9
547.306,2054.2
547.81,2058.7
548.313,2055.9
548.816,2059.85
549.319,2065.0
549.822,2075.5
550.325,2101.2
550.828,2061.9
551.331,2064.8
551.834,2069.15
552.337,2057.35
552.839,2062.55
553.342,2073.95
553.844,2072.7
554.347,2076.1
554.849,2078.35
555.352,2078.2
555.854,2084.75
556.357,2099.5
556.859,2105.8
557.361,2100.05
557.863,2118.65
558.365,2125.8
558.867,2117.05
559.369,2106.2
559.871,2111.3
560.373,2099.8
560.875,2107.45
561.377,2134.8
561.878,2236.6
562.38,3179.1
562.881,2173.1
563.383,2170.25
563.884,2398.7
564.386,2252.2
564.887,2231.65
565.388,2198.2
565.89,2325.15
566.391,2371.5
566.892,2210.3
567.393,2204.35
567.894,2174.75
568.395,2166.75
568.896,2169.1
569.396,2190.55
569.897,2195.85
570.398,2212.4
570.898,2253.6
571.399,2613.6
571.9,2411.0
572.4,2287.15
572.9,2256.4
573.401,2242.7
573.901,2278.5
574.401,2248.0
574.901,2250.8
575.401,2412.6
575.901,2517.9
576.401,2787.25
576.901,2628.9
577.401,2435.8
577.901,2359.9
578.4,2354.3
578.9,2383.8
579.399,2385.95
579.899,2407.8
580.398,2454.35
580.898,2484.05
581.397,2505.85
581.896,2513.4
582.395,2531.45
582.895,2545.75
583.394,2583.75
583.893,2608.75
584.391,2653.45
584.89,2646.35
585.389,2692.45
585.888,2716.7
586.386,2770.25
586.885,2792.95
587.384,2834.2
587.882,2850.35
588.38,2894.4
588.879,2878.4
589.377,2902.3
589.875,2915.65
590.373,2914.4
590.871,2897.15
591.369,2874.2
591.867,2917.9
592.365,2882.85
592.863,2889.85
593.361,2901.55
593.858,2877.0
594.356,2885.15
594.853,2940.3
595.351,2890.4
595.848,2925.95
596.345,2924.15
596.843,2941.65
597.34,2952.15
597.837,2958.45
598.334,2956.7
598.831,2996.65
599.328,2986.75
599.824,2961.15
600.321,2983.65
600.818,2968.0
601.314,2969.9
601.811,2955.95
602.307,2946.9
602.804,2929.55
603.3,2884.45
603.796,2914.95
604.293,2877.25
604.789,2821.8
605.285,2819.95
605.781,2765.55
606.277,2763.55
606.772,2721.85
607.268,2727.0
607.764,2666.25
608.259,2655.55
608.755,2636.3
609.25,2625.5
609.746,2599.3
610.241,2612.7
610.736,2577.05
611.231,2560.5
611.727,2590.55
612.222,2545.3
612.716,2536.8
613.211,2520.75
613.706,2524.75
614.201,2493.15
614.695,2518.6
615.19,2506.95
615.684,2485.5
616.179,2492.55
616.673,2489.0
617.168,2489.5
617.662,2493.3
618.156,2492.85
618.65,2490.95
619.144,2496.8
619.638,2491.5
620.131,2498.9
620.625,2511.2
621.119,2532.0
621.612,2590.85
622.106,2670.7
622.599,2640.6
623.093,2524.6
623.586,2489.3
624.079,2483.95
624.572,2466.05
625.065,2498.3
625.558,2536.1
626.051,2595.25
626.544,2992.2
627.037,5312.6
627.529,5214.25
628.022,4540.25
628.514,5863.85
629.007,4710.3
629.499,4210.15
629.991,3853.9
630.483,3724.8
630.976,3150.6
631.468,2784.6
631.959,2615.5
632.451,2573.0
632.943,2534.45
633.435,2550.9
633.926,2505.7
634.418,2502.5
634.909,2496.25
635.401,2472.9
635.892,2500.9
636.383,2516.6
636.874,2485.2
637.365,2498.0
637.856,2478.95
638.347,2490.6
638.838,2474.0
639.329,2472.25
639.819,2453.5
640.31,2465.3
640.8,2446.85
641.291,2463.7
641.781,2451.5
642.271,2436.35
642.761,2422.7
643.251,2427.4
643.741,2431.3
644.231,2436.5
644.721,2417.3
645.211,2435.05
645.7,2416.05
646.19,2425.4
646.679,2422.3
647.169,2405.2
647.658,2401.9
648.147,2386.2
648.636,2406.0
649.125,2404.4
649.614,2423.75
650.103,2407.05
650.592,2373.95
651.08,2356.8
651.569,2359.8
652.058,2359.4
652.546,2330.45
653.034,2339.75
653.523,2308.3
654.011,2341.3
654.499,2334.15
654.987,2309.1
655.475,2301.65
655.963,2300.4
656.45,2280.6
656.938,2270.45
657.425,2271.0
657.913,2259.7
658.4,2248.4
658.888,2233.0
659.375,2224.8
659.862,2214.7
660.349,2192.15
660.836,2198.55
661.079,2175.1

File: VLFR_01-LDPE_bio_Raman_dbd5b781.csv
nm,Intensity
526.547,832.0
527.095,832.3
527.642,832.75
528.189,831.95
528.736,831.6
529.283,832.15
529.829,832.45
530.376,831.85
530.922,832.65
531.468,832.1
532.014,843.05
532.56,832.8
533.106,833.0
533.651,832.3
534.196,855.25
534.742,854.9
535.287,852.2
535.832,851.1
536.376,850.7
536.921,850.6
537.465,851.9
538.01,852.45
538.554,850.25
539.098,851.45
539.642,851.35
540.186,849.75
540.729,851.05
541.273,851.8
541.816,852.0
542.36,852.05
542.903,850.3
543.446,849.25
543.988,850.25
544.531,851.4
545.074,851.4
545.616,850.55
546.158,850.15
546.701,852.3
547.243,849.65
547.785,850.65
548.326,851.05
548.868,850.4
549.41,850.45
549.951,850.2
550.492,850.8
551.034,851.9
551.575,851.1
552.116,850.95
552.656,850.45
553.197,851.4
553.738,853.4
554.278,854.2
554.819,852.05
555.359,853.55
555.899,853.55
556.439,855.0
556.979,853.5
557.519,853.1
558.058,856.1
558.598,854.6
559.137,855.45
559.677,853.45
560.216,855.6
560.755,854.35
561.294,855.0
561.833,854.75
562.371,856.1
562.91,857.05
563.449,856.3
563.987,865.3
564.525,859.6
565.064,858.2
565.602,859.05
566.14,868.9
566.678,858.6
567.216,858.0
567.753,857.85
568.291,857.95
568.828,859.1
569.366,857.05
569.903,858.6
570.44,860.25
570.977,860.55
571.514,874.3
572.051,863.85
572.588,861.55
573.125,863.1
573.661,861.8
574.198,863.45
574.734,860.65
575.271,864.15
575.807,870.6
576.343,879.1
576.879,875.65
577.415,872.0
577.951,868.45
578.486,867.55
579.022,872.7
579.557,870.35
580.093,873.95
580.628,874.05
581.164,875.25
581.699,876.3
582.234,877.5
582.769,880.2
583.304,882.85
583.838,883.35
584.373,884.05
584.908,883.95
585.442,885.95
585.977,891.7
586.511,891.95
587.045,893.75
587.58,897.75
588.114,900.3
588.648,901.8
589.182,904.05
589.715,906.25
590.249,910.1
590.783,913.3
591.316,915.75
591.85,919.9
592.383,919.9
592.917,923.15
593.45,924.45
593.983,927.85
594.516,931.9
595.049,935.75
595.582,940.45
596.115,942.25
596.648,949.9
597.18,956.25
597.713,959.65
598.245,963.75
598.778,971.5
599.31,973.4
599.842,975.15
600.375,977.25
600.907,981.15
601.439,978.9
601.971,979.5
602.503,974.0
603.034,973.15
603.566,967.6
604.098,964.95
604.629,961.6
605.161,950.85
605.692,945.85
606.224,944.3
606.755,937.3
607.286,932.95
607.817,933.2
608.348,931.45
608.879,926.9
609.41,924.0
609.941,924.95
610.472,917.6
611.002,917.55
611.533,918.8
612.063,913.75
612.594,916.0
613.124,915.0
613.655,915.0
614.185,910.65
614.715,910.8
615.245,907.95
615.775,908.35
616.305,903.4
616.835,905.45
617.365,903.85
617.895,903.35
618.425,901.85
618.954,900.75
619.484,903.25
620.013,898.6
620.543,900.45
621.072,898.1
621.602,899.65
622.131,899.65
622.66,900.7
623.189,893.85
623.718,895.8
624.247,897.15
624.776,895.1
625.305,892.05
625.834,895.65
626.363,897.1
626.891,918.3
627.42,954.05
627.949,929.05
628.477,953.05
629.006,937.95
629.534,928.45
630.062,917.75
630.591,915.4
631.119,902.05
631.647,893.45
632.175,889.15
632.703,892.25
633.231,887.75
633.759,890.15
634.287,888.9
634.815,886.35
635.343,887.6
635.871,889.25
636.398,888.75
636.926,889.75
637.454,886.7
637.981,890.9
638.509,890.8
639.036,890.1
639.564,890.6
640.091,890.25
640.618,890.45
641.146,891.55
641.673,893.0
642.2,894.3
642.727,893.85
643.254,896.95
643.781,893.9
644.308,896.3
644.835,896.1
645.362,896.05
645.889,896.65
646.416,896.8
646.942,897.3
647.469,900.45
647.996,902.8
648.522,899.7
649.049,902.1
649.576,901.95
650.102,899.25
650.629,902.1
651.155,904.25
651.682,901.75
652.208,904.35
652.734,903.55
653.261,904.4
653.787,904.45
654.313,904.95
654.839,903.5
655.365,902.9
655.892,903.4
656.418,902.85
656.944,905.35
657.47,899.9
657.996,900.15
658.522,897.45
659.048,897.35
659.574,898.85
660.099,893.4
660.625,893.0
661.151,890.2
661.677,888.9
662.203,885.0
662.728,884.8
663.123,884.35

File: VLFR_01-LDPE_bio_Raman_dd81ee9b.csv
nm,Intensity
526.508,830.5
527.055,829.7
527.602,830.8
528.149,830.0
528.695,830.1
529.241,830.7
529.787,829.0
530.334,830.0
530.879,830.1
531.425,829.6
531.971,839.1
532.516,832.7
533.062,829.2
533.607,830.7
534.152,851.1
534.697,851.9
535.242,847.6
535.786,849.2
536.331,847.9
536.876,846.5
537.42,845.9
537.964,846.1
538.508,846.8
539.052,846.0
539.596,845.9
540.14,847.4
540.683,845.7
541.227,846.7
541.77,847.3
542.313,846.9
542.856,847.4
543.399,847.2
543.942,846.8
544.485,845.1
545.027,847.8
545.57,846.4
546.112,847.0
546.654,846.9
547.196,846.1
547.738,846.4
548.28,847.0
548.822,848.1
549.363,847.8
549.905,848.0
550.446,848.7
550.988,849.3
551.529,848.5
552.07,849.0
552.611,849.5
553.152,848.6
553.692,848.2
554.233,847.9
554.773,849.8
555.314,848.8
555.854,848.1
556.394,849.5
556.934,847.7
557.474,850.2
558.014,850.0
558.553,851.2
559.093,850.3
559.632,852.0
560.172,848.9
560.711,851.2
561.25,851.7
561.789,851.7
562.328,850.6
562.867,850.7
563.406,850.4
563.944,855.9
564.483,853.6
565.021,854.8
565.559,854.1
566.098,856.0
566.636,854.8
567.174,853.2
567.711,853.6
568.249,854.9
568.787,855.2
569.324,855.7
569.862,856.2
570.399,856.4
570.936,854.5
571.474,859.4
572.011,858.7
572.548,858.1
573.084,859.4
573.621,856.0
574.158,856.8
574.694,857.3
575.231,856.2
575.767,858.9
576.303,864.8
576.84,862.9
577.376,860.9
577.912,861.4
578.447,859.9
578.983,860.2
579.519,859.2
580.054,858.4
580.59,859.6
581.125,858.8
581.661,860.7
582.196,860.1
582.731,859.7
583.266,862.6
583.801,860.3
584.336,862.9
584.87,864.8
585.405,863.7
585.94,863.6
586.474,864.1
587.008,866.5
587.543,864.8
588.077,865.9
588.611,865.0
589.145,865.1
589.679,865.4
590.213,872.4
590.747,869.6
591.28,870.2
591.814,869.1
592.347,871.9
592.881,871.7
593.414,873.2
593.947,875.3
594.48,875.9
595.014,880.9
595.547,881.3
596.079,886.3
596.612,884.3
597.145,890.9
597.678,896.9
598.21,895.2
598.743,897.0
599.275,903.5
599.807,901.0
600.34,906.0
600.872,904.6
601.404,904.9
601.936,905.8
602.468,903.4
603.0,903.4
603.532,902.9
604.063,901.1
604.595,897.0
605.126,893.7
605.658,892.3
606.189,885.3
606.721,888.4
607.252,884.2
607.783,886.1
608.314,883.1
608.845,884.4
609.376,882.0
609.907,880.4
610.438,881.2
610.968,881.4
611.499,881.0
612.03,879.2
612.56,879.7
613.091,878.6
613.621,877.8
614.151,876.5
614.681,878.8
615.212,878.9
615.742,875.2
616.272,875.8
616.802,876.5
617.332,874.9
617.861,873.5
618.391,873.1
618.921,876.5
619.45,873.4
619.98,871.6
620.509,872.3
621.039,875.9
621.568,870.4
622.097,874.2
622.627,876.5
623.156,873.5
623.685,872.9
624.214,871.8
624.743,871.2
625.272,873.0
625.801,870.7
626.33,872.4
626.858,881.9
627.387,904.7
627.916,887.3
628.444,900.4
628.973,889.9
629.501,883.7
630.029,881.9
630.558,878.4
631.086,872.8
631.614,870.7
632.142,869.9
632.67,867.2
633.198,867.9
633.726,867.8
634.254,867.3
634.782,867.2
635.31,868.0
635.838,867.0
636.365,868.6
636.893,867.2
637.421,865.5
637.948,867.9
638.476,868.4
639.003,867.1
639.531,866.0
640.058,866.0
640.585,868.2
641.113,866.6
641.64,868.3
642.167,867.8
642.694,868.1
643.221,865.3
643.748,867.7
644.275,868.3
644.802,870.5
645.329,868.7
645.856,868.2
646.382,870.5
646.909,872.1
647.436,872.9
647.962,872.3
648.489,872.2
649.016,872.5
649.542,873.4
650.069,875.5
650.595,875.8
651.121,874.0
651.648,874.7
652.174,876.0
652.7,878.5
653.227,874.8
653.753,875.5
654.279,876.3
654.805,875.3
655.331,874.0
655.857,877.3
656.383,876.9
656.909,874.0
657.435,875.7
657.961,872.4
658.487,874.2
659.013,872.2
659.538,870.3
660.064,870.2
660.59,869.1
661.116,869.4
661.641,869.4
662.167,867.0
662.692,866.4
663.087,864.4

File: VLFR_01-LDPE_bio_Raman_de2a25bb.csv
nm,Intensity
526.547,832.15
527.095,832.8
527.642,832.7
528.189,833.05
528.736,832.1
529.283,833.25
529.829,831.9
530.376,832.4
530.922,832.4
531.468,833.55
532.014,836.2
532.56,831.9
533.106,832.9
533.651,835.1
534.196,923.3
534.742,907.65
535.287,889.1
535.832,878.9
536.376,874.6
536.921,870.65
537.465,869.8
538.01,869.5
538.554,866.3
539.098,863.3
539.642,864.1
540.186,858.9
540.729,856.9
541.273,855.55
541.816,856.0
542.36,856.55
542.903,855.9
543.446,857.05
543.988,855.85
544.531,853.7
545.074,852.65
545.616,852.75
546.158,854.25
546.701,853.1
547.243,851.75
547.785,853.2
548.326,852.5
548.868,850.9
549.41,850.8
549.951,850.6
550.492,852.0
551.034,853.05
551.575,850.9
552.116,850.65
552.656,851.7
553.197,854.8
553.738,855.7
554.278,857.25
554.819,855.65
555.359,856.3
555.899,859.8
556.439,860.85
556.979,862.65
557.519,865.15
558.058,865.65
558.598,867.9
559.137,866.75
559.677,864.3
560.216,864.45
560.755,862.55
561.294,864.3
561.833,864.85
562.371,867.1
562.91,871.5
563.449,876.35
563.987,949.95
564.525,896.0
565.064,889.45
565.602,884.9
566.14,976.5
566.678,885.5
567.216,880.0
567.753,878.0
568.291,878.25
568.828,875.95
569.366,880.2
569.903,879.7
570.44,886.4
570.977,895.5
571.514,1037.15
572.051,926.35
572.588,904.35
573.125,895.35
573.661,900.65
574.198,909.8
574.734,903.45
575.271,914.95
575.807,958.85
576.343,1064.1
576.879,1014.35
577.415,978.35
577.951,952.6
578.486,955.15
579.022,965.1
579.557,975.05
580.093,984.05
580.628,994.25
581.164,999.85
581.699,1013.2
582.234,1018.85
582.769,1029.8
583.304,1041.35
583.838,1047.9
584.373,1051.95
584.908,1062.55
585.442,1073.6
585.977,1084.05
586.511,1089.95
587.045,1106.6
587.58,1113.65
588.114,1121.1
588.648,1133.9
589.182,1142.7
589.715,1156.0
590.249,1166.8
590.783,1177.6
591.316,1188.95
591.85,1189.1
592.383,1199.35
592.917,1195.2
593.45,1197.4
593.983,1201.5
594.516,1217.25
595.049,1215.05
595.582,1218.7
596.115,1232.05
596.648,1234.15
597.18,1241.0
597.713,1251.9
598.245,1262.15
598.778,1269.35
599.31,1277.05
599.842,1282.6
600.375,1277.5
600.907,1278.2
601.439,1275.9
601.971,1273.95
602.503,1262.35
603.034,1250.8
603.566,1240.6
604.098,1230.5
604.629,1209.1
605.161,1194.65
605.692,1171.1
606.224,1156.8
606.755,1141.55
607.286,1129.45
607.817,1117.55
608.348,1110.45
608.879,1102.95
609.41,1092.45
609.941,1084.1
610.472,1077.85
611.002,1067.3
611.533,1066.95
612.063,1055.85
612.594,1056.8
613.124,1047.75
613.655,1045.15
614.185,1040.4
614.715,1037.3
615.245,1028.65
615.775,1026.1
616.305,1020.85
616.835,1018.35
617.365,1016.75
617.895,1012.0
618.425,1009.9
618.954,1010.35
619.484,1007.5
620.013,1006.9
620.543,1004.2
621.072,1006.95
621.602,1014.35
622.131,1031.2
622.66,1028.45
623.189,1002.85
623.718,995.15
624.247,995.1
624.776,997.65
625.305,995.9
625.834,1002.6
626.363,1029.8
626.891,1249.1
627.42,1592.3
627.949,1355.35
628.477,1636.2
629.006,1469.5
629.534,1354.6
630.062,1261.55
630.591,1229.8
631.119,1100.85
631.647,1038.65
632.175,1015.9
632.703,1001.65
633.231,998.35
633.759,994.15
634.287,995.6
634.815,994.15
635.343,995.0
635.871,995.6
636.398,995.75
636.926,996.05
637.454,995.6
637.981,997.9
638.509,997.85
639.036,998.25
639.564,999.0
640.091,1001.6
640.618,1001.0
641.146,1004.5
641.673,1007.95
642.2,1005.55
642.727,1007.95
643.254,1010.05
643.781,1006.8
644.308,1007.25
644.835,1011.5
645.362,1008.75
645.889,1008.6
646.416,1008.2
646.942,1008.45
647.469,1012.2
647.996,1007.8
648.522,1008.3
649.049,1006.75
649.576,1004.3
650.102,1006.65
650.629,1010.35
651.155,1010.15
651.682,1010.7
652.208,1009.65
652.734,1010.25
653.261,1009.55
653.787,1007.55
654.313,1011.35
654.839,1007.85
655.365,1007.65
655.892,1002.2
656.418,1000.9
656.944,998.5
657.47,996.9
657.996,993.5
658.522,988.0
659.048,984.0
659.574,976.45
660.099,972.8
660.625,969.7
661.151,959.9
661.677,956.65
662.203,951.75
662.728,947.25
663.123,942.25

File: VLFR_01-LDPE_bio_Raman_e0ea7e8c.csv
nm,Intensity
528.629,1852.3
529.134,1852.5
529.639,1851.4
530.145,1852.2
530.65,1851.1
531.155,1856.0
531.66,1895.5
532.165,3444.7
532.67,1855.4
533.175,1852.7
533.68,1921.5
534.185,2083.1
534.69,2065.7
535.195,2048.2
535.699,2028.7
536.204,2019.7
536.709,2006.1
537.213,2015.6
537.718,2014.9
538.222,2015.0
538.727,2032.6
539.231,2038.9
539.735,2008.5
540.239,2013.2
540.744,2005.1
541.248,1998.9
541.752,2002.9
542.256,2008.3
542.76,2014.1
543.264,2014.5
543.768,2012.9
544.271,2004.3
544.775,1998.4
545.279,1999.5
545.783,1998.6
546.286,2002.5
546.79,2005.5
547.293,2013.8
547.797,2013.2
548.3,2016.5
548.803,2007.7
549.306,2005.3
549.81,2008.8
550.313,2014.5
550.816,2022.2
551.319,2021.0
551.822,2025.6
552.325,2019.4
552.828,2018.4
553.33,2032.4
553.833,2026.7
554.336,2032.1
554.838,2035.8
555.341,2033.8
555.843,2048.1
556.346,2041.9
556.848,2057.5
557.35,2061.1
557.853,2064.3
558.355,2075.3
558.857,2062.5
559.359,2056.2
559.861,2056.3
560.363,2053.1
560.865,2048.0
561.367,2050.1
561.869,2066.1
562.37,2070.0
562.872,2082.6
563.374,2099.1
563.875,2298.2
564.376,2178.7
564.878,2149.0
565.379,2111.5
565.881,2244.0
566.382,2212.4
566.883,2117.6
567.384,2117.9
567.885,2083.1
568.386,2091.9
568.887,2096.9
569.388,2108.5
569.888,2107.0
570.389,2121.3
570.89,2156.2
571.39,2449.1
571.891,2283.6
572.391,2173.0
572.892,2134.1
573.392,2135.2
573.892,2158.9
574.393,2128.7
574.893,2115.2
575.393,2222.7
575.893,2342.3
576.393,2514.2
576.893,2408.4
577.392,2232.5
577.892,2149.1
578.392,2123.7
578.891,2120.4
579.391,2113.8
579.89,2129.6
580.39,2121.3
580.889,2127.6
581.388,2131.4
581.888,2129.2
582.387,2126.1
582.886,2126.7
583.385,2151.3
583.884,2145.2
584.383,2161.4
584.881,2158.6
585.38,2153.2
585.879,2165.9
586.377,2172.1
586.876,2200.1
587.374,2194.7
587.873,2204.0
588.371,2228.4
588.869,2244.0
589.368,2262.8
589.866,2267.3
590.364,2283.2
590.862,2270.3
591.36,2304.4
591.857,2327.5
592.355,2330.4
592.853,2363.7
593.35,2396.2
593.848,2355.2
594.345,2409.9
594.843,2409.6
595.34,2464.5
595.837,2447.8
596.335,2499.6
596.832,2520.6
597.329,2536.2
597.826,2557.4
598.323,2539.2
598.819,2567.8
599.316,2573.0
599.813,2600.7
600.309,2613.4
600.806,2626.8
601.302,2632.0
601.799,2629.5
602.295,2640.6
602.791,2613.2
603.288,2622.4
603.784,2581.9
604.28,2542.7
604.776,2550.3
605.272,2533.2
605.767,2498.2
606.263,2468.5
606.759,2467.3
607.254,2441.1
607.75,2456.7
608.245,2445.2
608.74,2412.8
609.236,2389.7
609.731,2407.1
610.226,2404.2
610.721,2402.4
611.216,2396.0
611.711,2363.9
612.206,2355.9
612.7,2324.5
613.195,2365.3
613.69,2342.1
614.184,2357.5
614.679,2331.4
615.173,2315.1
615.667,2327.7
616.161,2331.4
616.656,2320.6
617.15,2330.0
617.644,2330.7
618.137,2335.9
618.631,2323.2
619.125,2327.9
619.619,2330.1
620.112,2314.0
620.606,2329.3
621.099,2378.0
621.592,2414.7
622.086,2501.5
622.579,2438.3
623.072,2355.0
623.565,2299.3
624.058,2301.5
624.551,2287.0
625.043,2292.9
625.536,2339.4
626.029,2412.7
626.521,2780.8
627.014,5017.7
627.506,4686.4
627.998,4228.0
628.49,5717.8
628.983,4434.9
629.475,4029.1
629.966,3544.5
630.458,3409.3
630.95,2850.8
631.442,2474.6
631.933,2350.4
632.425,2295.2
632.916,2239.8
633.408,2227.9
633.899,2227.4
634.39,2203.5
634.881,2210.0
635.372,2199.7
635.863,2196.0
636.354,2185.0
636.845,2175.2
637.336,2166.1
637.826,2165.5
638.317,2178.4
638.807,2166.3
639.298,2173.9
639.788,2169.1
640.278,2170.4
640.768,2162.6
641.258,2170.5
641.748,2161.8
642.238,2159.6
642.728,2176.9
643.217,2184.3
643.707,2176.3
644.197,2195.6
644.686,2169.3
645.175,2175.9
645.664,2181.4
646.154,2175.3
646.643,2198.8
647.132,2187.8
647.621,2175.2
648.109,2194.1
648.598,2196.5
649.087,2190.8
649.575,2190.7
650.064,2182.2
650.552,2179.6
651.04,2206.6
651.528,2191.5
652.017,2193.8
652.505,2195.1
652.992,2183.5
653.48,2179.3
653.968,2195.6
654.456,2183.3
654.943,2167.2
655.431,2169.9
655.918,2162.5
656.405,2157.3
656.893,2144.0
657.38,2137.1
657.867,2147.6
658.354,2148.1
658.84,2126.2
659.327,2114.6
659.814,2127.3
660.3,2104.5
660.787,2091.1
661.03,2099.1