Folder: MPX_specDB/spectra (part 156)

File: VLFR_08-PLA_nobio_Raman_bf9f6ea1.csv
nm,Intensity
526.508,832.4
527.055,830.7
527.602,829.5
528.149,830.0
528.695,830.1
529.241,830.8
529.787,831.2
530.334,829.3
530.879,829.8
531.425,829.4
531.971,833.3
532.516,830.2
533.062,830.7
533.607,831.7
534.152,1015.0
534.697,993.8
535.242,961.5
535.786,953.6
536.331,945.5
536.876,949.9
537.42,936.9
537.964,940.5
538.508,931.5
539.052,929.2
539.596,929.0
540.14,926.3
540.683,938.2
541.227,939.6
541.77,932.9
542.313,931.6
542.856,936.6
543.399,949.1
543.942,955.8
544.485,937.8
545.027,938.6
545.57,935.4
546.112,938.9
546.654,938.7
547.196,937.9
547.738,937.7
548.28,940.2
548.822,945.1
549.363,940.8
549.905,947.9
550.446,944.6
550.988,950.6
551.529,950.9
552.07,951.8
552.611,954.7
553.152,953.1
553.692,955.2
554.233,963.5
554.773,958.7
555.314,952.5
555.854,952.0
556.394,956.4
556.934,957.8
557.474,965.2
558.014,1051.8
558.553,984.6
559.093,967.1
559.632,965.0
560.172,966.3
560.711,963.5
561.25,955.6
561.789,960.7
562.328,964.8
562.867,975.9
563.406,1002.2
563.944,984.0
564.483,977.7
565.021,991.5
565.559,991.5
566.098,1014.8
566.636,995.8
567.174,977.7
567.711,984.2
568.249,982.7
568.787,984.2
569.324,987.6
569.862,987.4
570.399,987.1
570.936,987.0
571.474,1001.4
572.011,1002.7
572.548,998.9
573.084,998.1
573.621,1002.7
574.158,1001.0
574.694,1011.6
575.231,995.7
575.767,996.3
576.303,1012.1
576.84,1063.6
577.376,1012.0
577.912,1001.2
578.447,1001.7
578.983,996.7
579.519,999.4
580.054,996.4
580.59,999.9
581.125,993.0
581.661,998.3
582.196,1002.7
582.731,1000.8
583.266,1001.8
583.801,1004.2
584.336,1001.2
584.87,1000.1
585.405,1004.2
585.94,1002.3
586.474,1018.8
587.008,1047.8
587.543,1062.3
588.077,1018.0
588.611,1009.1
589.145,1004.7
589.679,1002.8
590.213,1007.3
590.747,1004.6
591.28,1012.6
591.814,1006.8
592.347,1006.2
592.881,1006.4
593.414,1007.0
593.947,1008.0
594.48,1005.0
595.014,1010.7
595.547,1011.3
596.079,1008.8
596.612,1013.1
597.145,1012.4
597.678,1006.9
598.21,1017.9
598.743,1017.5
599.275,1015.1
599.807,1015.5
600.34,1011.5
600.872,1017.9
601.404,1008.5
601.936,1014.7
602.468,1012.1
603.0,1016.8
603.532,1014.9
604.063,1017.7
604.595,1020.8
605.126,1015.4
605.658,1016.2
606.189,1015.6
606.721,1011.8
607.252,1012.2
607.783,1014.7
608.314,1018.1
608.845,1018.1
609.376,1024.2
609.907,1020.8
610.438,1020.9
610.968,1014.9
611.499,1020.5
612.03,1022.8
612.56,1022.7
613.091,1027.9
613.621,1027.3
614.151,1031.7
614.681,1027.6
615.212,1025.3
615.742,1029.4
616.272,1030.1
616.802,1030.6
617.332,1030.0
617.861,1030.7
618.391,1033.7
618.921,1031.3
619.45,1029.5
619.98,1032.0
620.509,1027.5
621.039,1032.7
621.568,1033.0
622.097,1027.7
622.627,1031.6
623.156,1044.1
623.685,1039.9
624.214,1033.9
624.743,1026.9
625.272,1028.3
625.801,1035.8
626.33,1027.6
626.858,1038.5
627.387,1029.4
627.916,1040.3
628.444,1096.2
628.973,1085.0
629.501,1087.9
630.029,1083.7
630.558,1135.8
631.086,1440.5
631.614,1238.7
632.142,1138.4
632.67,1113.7
633.198,1189.7
633.726,1161.1
634.254,1084.6
634.782,1048.0
635.31,1026.0
635.838,1025.0
636.365,1024.9
636.893,1021.6
637.421,1015.9
637.948,1017.3
638.476,1016.8
639.003,1011.5
639.531,1017.5
640.058,1004.2
640.585,1017.5
641.113,1013.9
641.64,1008.5
642.167,1014.3
642.694,1009.0
643.221,1006.8
643.748,1007.2
644.275,1001.6
644.802,996.9
645.329,999.3
645.856,998.1
646.382,1000.9
646.909,1001.1
647.436,996.1
647.962,994.9
648.489,993.3
649.016,994.4
649.542,992.9
650.069,987.4
650.595,984.4
651.121,986.3
651.648,987.1
652.174,984.4
652.7,979.7
653.227,986.0
653.753,987.5
654.279,985.4
654.805,981.3
655.331,985.9
655.857,981.9
656.383,981.7
656.909,983.7
657.435,980.9
657.961,978.7
658.487,979.3
659.013,979.8
659.538,977.8
660.064,978.2
660.59,977.3
661.116,977.0
661.641,976.2
662.167,976.7
662.692,972.6
663.087,970.7

File: VLFR_08-PLA_nobio_Raman_c3fd4e2f.csv
cm-1,Intensity
-123.878,1854.5
-105.821,1854.3
-87.8007,1853.3
-69.8161,1854.05
-51.8675,1852.7
-33.9547,1856.2
-16.0776,1891.3
1.76388,3836.5
19.5698,1855.45
37.3403,1855.35
55.0755,2070.1
72.7754,2528.9
90.4402,2407.05
108.07,2377.35
125.665,2313.3
143.225,2282.4
160.75,2300.65
178.241,2252.25
195.697,2277.1
213.119,2256.45
230.506,2230.65
247.859,2263.2
265.178,2180.05
282.463,2216.7
299.713,2282.7
316.93,2265.3
334.113,2214.1
351.263,2209.1
368.379,2222.6
385.461,2313.85
402.51,2411.35
419.526,2287.85
436.508,2213.75
453.458,2202.2
470.374,2196.55
487.257,2202.4
504.107,2226.5
520.925,2235.2
537.71,2228.15
554.462,2228.4
571.182,2239.6
587.87,2249.25
604.525,2250.95
621.148,2264.3
637.739,2292.95
654.297,2298.1
670.824,2310.4
687.319,2304.35
703.782,2331.15
720.213,2307.35
736.613,2356.3
752.981,2308.55
769.317,2298.7
785.623,2276.25
801.897,2270.95
818.139,2273.9
834.351,2289.3
850.532,2334.75
866.681,2844.85
882.8,2632.0
898.888,2381.25
914.945,2351.3
930.972,2344.9
946.968,2309.55
962.934,2324.5
978.869,2311.85
994.774,2315.6
1010.65,2303.1
1026.49,2370.45
1042.31,2566.6
1058.09,2420.15
1073.85,2377.35
1089.57,2501.15
1105.27,2465.95
1120.93,2569.5
1136.57,2539.9
1152.18,2386.95
1167.75,2379.05
1183.3,2427.05
1198.82,2377.0
1214.31,2419.45
1229.77,2419.7
1245.2,2401.85
1260.6,2397.1
1275.97,2405.65
1291.32,2578.85
1306.63,2525.1
1321.92,2494.6
1337.18,2477.2
1352.41,2511.05
1367.61,2501.05
1382.78,2534.0
1397.93,2452.65
1413.05,2410.35
1428.14,2446.5
1443.2,2636.45
1458.23,2759.15
1473.23,2483.85
1488.21,2431.6
1503.16,2433.2
1518.08,2408.25
1532.97,2415.2
1547.84,2405.3
1562.68,2405.4
1577.49,2392.75
1592.27,2409.45
1607.03,2408.6
1621.76,2409.2
1636.46,2388.95
1651.14,2404.7
1665.78,2397.4
1680.41,2411.7
1695.0,2406.3
1709.57,2397.3
1724.11,2391.25
1738.62,2438.9
1753.11,2595.65
1767.57,2772.95
1782.01,2585.9
1796.41,2430.1
1810.8,2405.15
1825.15,2396.7
1839.48,2383.45
1853.79,2407.45
1868.06,2382.55
1882.31,2388.2
1896.54,2393.65
1910.74,2382.65
1924.91,2375.45
1939.06,2383.2
1953.19,2374.7
1967.28,2386.15
1981.35,2391.75
1995.4,2388.35
2009.42,2399.85
2023.42,2381.55
2037.39,2381.85
2051.33,2374.45
2065.25,2401.6
2079.15,2387.5
2093.01,2375.05
2106.86,2377.1
2120.68,2395.35
2134.47,2394.1
2148.24,2387.7
2161.99,2378.7
2175.71,2383.05
2189.41,2389.35
2203.08,2412.5
2216.73,2390.75
2230.35,2382.85
2243.95,2382.3
2257.52,2379.85
2271.07,2373.75
2284.6,2369.85
2298.1,2377.7
2311.58,2377.0
2325.03,2382.05
2338.46,2384.2
2351.87,2390.1
2365.25,2371.15
2378.61,2367.75
2391.94,2382.55
2405.26,2387.05
2418.54,2385.95
2431.81,2381.95
2445.05,2366.8
2458.27,2375.1
2471.46,2370.45
2484.63,2366.85
2497.78,2370.45
2510.9,2378.2
2524.0,2366.6
2537.08,2365.5
2550.14,2378.1
2563.17,2378.9
2576.18,2367.7
2589.17,2384.45
2602.13,2354.9
2615.07,2367.35
2627.99,2357.85
2640.89,2339.35
2653.76,2348.1
2666.61,2366.25
2679.44,2340.7
2692.25,2359.1
2705.03,2357.35
2717.79,2362.75
2730.53,2406.8
2743.25,2419.55
2755.94,2388.45
2768.61,2376.45
2781.27,2352.45
2793.89,2340.85
2806.5,2336.6
2819.09,2349.0
2831.65,2328.9
2844.19,2342.15
2856.71,2365.55
2869.21,2490.85
2881.69,2778.85
2894.14,2669.6
2906.58,2710.7
2918.99,2715.65
2931.38,3079.7
2943.75,5002.95
2956.1,4163.25
2968.42,3162.8
2980.73,2888.35
2993.01,3188.5
3005.28,3397.55
3017.52,2967.75
3029.74,2538.7
3041.94,2399.05
3054.12,2330.0
3066.28,2294.05
3078.42,2282.25
3090.54,2288.4
3102.63,2279.1
3114.71,2263.25
3126.77,2265.95
3138.8,2241.05
3150.82,2242.55
3162.81,2253.45
3174.78,2234.85
3186.74,2225.15
3198.67,2233.7
3210.58,2240.1
3222.47,2237.65
3234.35,2230.6
3246.2,2219.8
3258.03,2216.45
3269.84,2211.35
3281.64,2198.0
3293.41,2199.45
3305.16,2196.0
3316.89,2180.3
3328.61,2170.75
3340.3,2175.25
3351.97,2182.35
3363.63,2173.4
3375.26,2152.85
3386.88,2166.0
3398.47,2156.4
3410.05,2153.0
3421.6,2152.25
3433.14,2147.55
3444.66,2146.2
3456.15,2139.2
3467.63,2134.05
3479.09,2125.45
3490.53,2129.45
3501.96,2135.8
3513.36,2134.75
3524.74,2117.8
3536.11,2125.85
3547.45,2115.2
3558.78,2112.05
3570.09,2111.05
3581.37,2106.75
3592.64,2112.6
3603.9,2106.15
3615.13,2096.9
3626.34,2095.6
3637.54,2087.6
3648.72,2074.25
3659.87,2083.75
3665.45,2079.6

File: VLFR_08-PLA_nobio_Raman_c17bacbe.csv
nm,Intensity
526.486,830.0
527.033,830.7
527.579,830.1
528.126,830.6
528.672,830.4
529.219,829.7
529.765,831.0
530.311,829.5
530.857,828.9
531.403,831.4
531.948,834.5
532.494,832.6
533.039,829.5
533.585,831.4
534.13,1054.3
534.675,1015.7
535.22,983.2
535.764,963.9
536.309,956.4
536.854,959.3
537.398,952.4
537.942,954.3
538.486,940.9
539.03,939.2
539.574,939.0
540.118,933.9
540.662,950.9
541.205,954.6
541.749,947.3
542.292,942.1
542.835,942.5
543.378,963.1
543.921,972.1
544.464,958.9
545.006,949.5
545.549,946.1
546.091,948.3
546.634,944.3
547.176,952.0
547.718,945.3
548.26,950.1
548.802,953.9
549.343,953.4
549.885,951.6
550.426,955.9
550.968,961.1
551.509,961.4
552.05,964.3
552.591,968.7
553.132,971.1
553.673,968.3
554.214,981.4
554.754,967.7
555.295,965.1
555.835,965.9
556.375,963.9
556.915,963.6
557.455,977.4
557.995,1084.0
558.535,1001.1
559.075,980.0
559.614,977.9
560.154,978.7
560.693,978.3
561.232,970.1
561.772,968.7
562.311,977.5
562.85,984.6
563.388,1016.2
563.927,1000.0
564.466,989.0
565.004,1006.7
565.543,1007.5
566.081,1034.1
566.619,1006.1
567.157,984.2
567.695,990.4
568.233,997.5
568.771,1000.5
569.309,1000.4
569.846,994.9
570.384,1002.0
570.921,996.5
571.458,1014.8
571.995,1021.9
572.532,1018.0
573.069,1014.3
573.606,1022.9
574.143,1014.1
574.68,1030.2
575.216,1001.7
575.753,1011.0
576.289,1020.2
576.825,1085.9
577.361,1036.5
577.897,1005.5
578.433,1009.6
578.969,1013.0
579.505,1013.5
580.041,1012.6
580.576,1008.9
581.112,1009.9
581.647,1012.8
582.183,1010.9
582.718,1012.3
583.253,1016.1
583.788,1016.3
584.323,1017.8
584.858,1018.2
585.392,1015.1
585.927,1023.2
586.462,1030.2
586.996,1065.2
587.53,1087.2
588.065,1043.7
588.599,1021.4
589.133,1019.1
589.667,1021.1
590.201,1024.7
590.735,1021.2
591.268,1022.9
591.802,1018.3
592.335,1026.5
592.869,1018.8
593.402,1023.5
593.936,1021.8
594.469,1021.3
595.002,1025.2
595.535,1028.0
596.068,1026.8
596.601,1026.9
597.133,1026.3
597.666,1027.4
598.199,1023.9
598.731,1023.8
599.264,1031.9
599.796,1032.1
600.328,1030.4
600.86,1036.7
601.393,1031.7
601.925,1027.6
602.457,1036.1
602.988,1034.0
603.52,1032.8
604.052,1034.2
604.583,1039.9
605.115,1037.7
605.646,1032.7
606.178,1029.5
606.709,1028.1
607.24,1030.4
607.771,1036.3
608.302,1038.1
608.833,1038.0
609.364,1035.2
609.895,1037.6
610.426,1042.1
610.957,1042.5
611.487,1041.9
612.018,1046.2
612.548,1046.6
613.078,1050.0
613.609,1051.7
614.139,1055.1
614.669,1053.0
615.199,1053.5
615.729,1055.3
616.259,1050.3
616.789,1053.0
617.319,1059.9
617.849,1049.9
618.378,1056.1
618.908,1060.0
619.437,1053.1
619.967,1057.6
620.496,1054.3
621.025,1055.4
621.555,1054.1
622.084,1053.9
622.613,1064.6
623.142,1065.8
623.671,1069.8
624.2,1055.0
624.729,1059.1
625.258,1058.5
625.786,1058.5
626.315,1052.4
626.844,1053.2
627.372,1056.8
627.901,1063.2
628.429,1130.0
628.957,1122.7
629.486,1121.6
630.014,1129.1
630.542,1168.4
631.07,1559.5
631.598,1330.9
632.126,1176.7
632.654,1166.2
633.182,1252.4
633.71,1214.9
634.237,1126.1
634.765,1061.2
635.293,1052.6
635.82,1045.1
636.348,1038.0
636.875,1038.6
637.403,1035.7
637.93,1034.1
638.458,1030.0
638.985,1027.7
639.512,1028.2
640.039,1030.1
640.566,1028.0
641.093,1032.0
641.62,1032.8
642.147,1029.7
642.674,1018.0
643.201,1019.3
643.728,1018.2
644.255,1017.6
644.781,1011.5
645.308,1011.3
645.835,1007.1
646.361,1006.6
646.888,1008.5
647.414,1006.7
647.941,1009.1
648.467,1004.4
648.993,998.8
649.52,997.0
650.046,996.9
650.572,993.6
651.098,993.8
651.625,996.2
652.151,995.9
652.677,993.2
653.203,991.2
653.729,992.1
654.255,989.1
654.78,988.7
655.306,987.9
655.832,983.7
656.358,988.2
656.884,986.4
657.409,989.8
657.935,984.8
658.461,988.4
658.986,978.6
659.512,980.1
660.037,986.6
660.563,980.9
661.088,973.5
661.614,977.0
662.139,971.9
662.664,973.0
663.058,975.0

File: VLFR_08-PLA_nobio_Raman_c34a66cb.csv
nm,Intensity
526.508,830.6
527.055,830.15
527.602,830.5
528.149,829.85
528.695,830.35
529.241,830.8
529.787,831.3
530.334,830.5
530.879,830.15
531.425,831.05
531.971,833.0
532.516,831.5
533.062,831.1
533.607,831.55
534.152,1002.4
534.697,972.4
535.242,937.8
535.786,924.95
536.331,917.8
536.876,919.9
537.42,910.15
537.964,912.65
538.508,904.7
539.052,901.35
539.596,898.95
540.14,894.4
540.683,908.0
541.227,908.45
541.77,905.45
542.313,898.55
542.856,899.45
543.399,915.8
543.942,924.8
544.485,908.8
545.027,898.05
545.57,895.6
546.112,896.45
546.654,896.65
547.196,902.2
547.738,896.05
548.28,900.85
548.822,899.15
549.363,902.3
549.905,901.55
550.446,902.85
550.988,905.0
551.529,905.1
552.07,910.1
552.611,909.6
553.152,907.55
553.692,905.45
554.233,915.0
554.773,909.15
555.314,903.3
555.854,901.7
556.394,900.95
556.934,906.25
557.474,920.55
558.014,1004.35
558.553,933.45
559.093,917.35
559.632,916.55
560.172,911.4
560.711,910.55
561.25,907.1
561.789,908.95
562.328,911.05
562.867,916.35
563.406,941.4
563.944,928.45
564.483,920.8
565.021,940.25
565.559,934.0
566.098,961.05
566.636,930.85
567.174,918.9
567.711,919.3
568.249,924.1
568.787,921.6
569.324,922.0
569.862,924.25
570.399,921.0
570.936,927.95
571.474,934.45
572.011,941.6
572.548,939.25
573.084,935.55
573.621,941.65
574.158,935.75
574.694,943.9
575.231,927.75
575.767,926.65
576.303,940.85
576.84,990.5
577.376,949.6
577.912,929.7
578.447,930.45
578.983,929.45
579.519,927.0
580.054,928.1
580.59,928.6
581.125,928.05
581.661,929.55
582.196,931.65
582.731,930.55
583.266,931.35
583.801,933.4
584.336,935.4
584.87,935.9
585.405,935.15
585.94,932.9
586.474,946.7
587.008,977.15
587.543,993.2
588.077,951.55
588.611,936.0
589.145,935.45
589.679,935.55
590.213,933.7
590.747,936.3
591.28,935.6
591.814,935.1
592.347,930.55
592.881,932.65
593.414,930.55
593.947,930.4
594.48,931.25
595.014,933.4
595.547,934.3
596.079,936.5
596.612,932.95
597.145,933.45
597.678,934.35
598.21,933.05
598.743,936.8
599.275,936.45
599.807,932.9
600.34,936.3
600.872,933.25
601.404,934.25
601.936,932.65
602.468,934.25
603.0,934.9
603.532,933.2
604.063,934.2
604.595,930.9
605.126,930.65
605.658,930.15
606.189,930.4
606.721,927.1
607.252,929.65
607.783,930.7
608.314,931.55
608.845,930.05
609.376,931.7
609.907,929.45
610.438,933.55
610.968,928.0
611.499,930.95
612.03,931.6
612.56,933.9
613.091,931.85
613.621,930.95
614.151,932.35
614.681,932.35
615.212,933.85
615.742,933.7
616.272,930.75
616.802,933.25
617.332,933.6
617.861,934.55
618.391,933.3
618.921,929.5
619.45,932.5
619.98,932.2
620.509,929.5
621.039,929.55
621.568,929.0
622.097,931.75
622.627,938.5
623.156,945.0
623.685,939.35
624.214,938.7
624.743,931.65
625.272,927.3
625.801,931.75
626.33,931.25
626.858,933.6
627.387,934.35
627.916,937.1
628.444,994.0
628.973,987.45
629.501,986.6
630.029,991.85
630.558,1041.15
631.086,1361.2
631.614,1156.4
632.142,1040.2
632.67,1026.6
633.198,1101.0
633.726,1071.3
634.254,994.45
634.782,948.4
635.31,933.5
635.838,934.8
636.365,927.65
636.893,925.9
637.421,923.15
637.948,922.9
638.476,924.8
639.003,925.35
639.531,920.8
640.058,922.9
640.585,923.05
641.113,922.6
641.64,919.1
642.167,926.3
642.694,920.9
643.221,918.5
643.748,918.2
644.275,915.45
644.802,914.75
645.329,914.5
645.856,913.35
646.382,914.0
646.909,914.4
647.436,911.9
647.962,912.2
648.489,910.65
649.016,914.5
649.542,910.5
650.069,908.75
650.595,909.3
651.121,909.5
651.648,909.05
652.174,907.85
652.7,908.5
653.227,908.0
653.753,907.5
654.279,906.95
654.805,908.3
655.331,904.85
655.857,905.2
656.383,907.45
656.909,908.35
657.435,906.1
657.961,906.15
658.487,908.45
659.013,906.1
659.538,905.2
660.064,905.4
660.59,904.9
661.116,904.55
661.641,903.45
662.167,903.0
662.692,901.35
663.087,902.4

File: VLFR_08-PLA_nobio_Raman_c66ba35c.csv
nm,Intensity
526.532,829.82
527.079,830.3
527.625,829.54
528.172,829.02
528.718,828.96
529.265,830.08
529.811,829.52
530.357,829.2
530.903,829.26
531.449,829.4
531.994,836.36
532.54,829.96
533.085,829.44
533.63,829.96
534.176,870.52
534.721,864.18
535.266,856.92
535.81,853.32
536.355,852.4
536.9,853.02
537.444,851.58
537.988,851.34
538.533,849.62
539.077,849.62
539.621,848.48
540.165,850.2
540.708,851.44
541.252,851.92
541.795,852.3
542.339,850.32
542.882,850.98
543.425,854.9
543.968,855.7
544.511,851.72
545.054,852.78
545.597,850.9
546.139,850.24
546.682,852.12
547.224,852.54
547.766,851.52
548.308,851.38
548.85,850.62
549.392,851.86
549.934,851.84
550.475,851.2
551.017,851.3
551.558,852.7
552.1,853.36
552.641,852.14
553.182,852.32
553.723,852.0
554.264,853.76
554.804,852.32
555.345,851.5
555.885,851.32
556.426,851.24
556.966,851.06
557.506,855.22
558.046,871.0
558.586,856.8
559.126,854.32
559.665,853.2
560.205,853.74
560.745,852.68
561.284,852.78
561.823,853.74
562.362,854.24
562.901,856.52
563.44,861.18
563.979,858.16
564.518,858.32
565.056,863.66
565.595,860.14
566.133,866.0
566.671,858.4
567.21,855.76
567.748,855.38
568.285,855.38
568.823,855.32
569.361,855.86
569.899,855.16
570.436,855.32
570.974,856.44
571.511,860.3
572.048,859.88
572.585,859.54
573.122,859.38
573.659,860.1
574.196,860.58
574.733,860.74
575.269,857.6
575.806,857.66
576.342,860.38
576.878,868.38
577.414,861.96
577.951,857.76
578.486,858.06
579.022,857.26
579.558,858.2
580.094,857.1
580.629,856.94
581.165,856.94
581.7,856.4
582.236,857.56
582.771,855.88
583.306,857.74
583.841,858.68
584.376,858.44
584.911,857.2
585.445,858.26
585.98,858.04
586.514,859.52
587.049,866.38
587.583,868.5
588.117,861.22
588.651,858.48
589.186,855.92
589.72,857.02
590.253,857.84
590.787,857.88
591.321,857.7
591.854,856.84
592.388,857.88
592.921,857.84
593.455,857.56
593.988,857.58
594.521,857.7
595.054,857.14
595.587,857.88
596.12,857.72
596.653,858.76
597.186,858.68
597.718,857.68
598.251,858.12
598.783,858.96
599.316,860.0
599.848,857.92
600.38,857.78
600.912,857.22
601.444,857.26
601.976,859.06
602.508,857.52
603.04,858.36
603.572,857.46
604.103,857.94
604.635,857.42
605.167,857.18
605.698,856.36
606.229,857.48
606.761,858.76
607.292,857.66
607.823,858.38
608.354,857.86
608.885,857.54
609.416,857.72
609.947,857.14
610.477,856.56
611.008,857.42
611.539,856.68
612.069,857.28
612.6,857.34
613.13,857.64
613.66,857.74
614.19,859.26
614.721,859.1
615.251,857.18
615.781,857.34
616.311,856.78
616.841,858.52
617.37,858.9
617.9,859.0
618.43,859.22
618.96,858.26
619.489,858.52
620.019,858.46
620.548,857.84
621.077,858.58
621.607,858.5
622.136,858.66
622.665,859.96
623.194,860.74
623.723,860.2
624.252,859.72
624.781,859.56
625.31,859.38
625.839,861.16
626.368,860.14
626.896,860.5
627.425,862.6
627.953,863.94
628.482,875.5
629.01,877.08
629.539,875.16
630.067,874.6
630.596,881.96
631.124,936.8
631.652,895.66
632.18,878.52
632.708,876.08
633.236,888.96
633.764,881.46
634.292,867.44
634.82,860.38
635.348,858.28
635.876,855.54
636.403,856.82
636.931,856.96
637.459,856.22
637.986,857.22
638.514,856.24
639.041,856.58
639.568,856.06
640.096,855.84
640.623,856.12
641.15,856.54
641.678,856.18
642.205,856.14
642.732,855.02
643.259,855.14
643.786,854.68
644.313,855.36
644.84,855.62
645.367,854.4
645.894,853.98
646.421,854.88
646.948,854.48
647.474,854.68
648.001,854.16
648.528,854.26
649.054,854.62
649.581,853.94
650.108,853.76
650.634,855.36
651.161,853.92
651.687,852.84
652.214,853.78
652.74,852.88
653.266,852.76
653.793,852.32
654.319,852.06
654.845,852.28
655.371,852.28
655.897,851.68
656.424,851.54
656.95,852.26
657.476,852.28
658.002,851.98
658.528,852.28
659.054,851.82
659.58,851.66
660.106,851.42
660.631,851.92
661.157,850.92
661.683,850.38
662.209,850.24
662.735,849.7
663.129,849.38

File: VLFR_08-PLA_nobio_Raman_c748b8bf.csv
nm,Intensity
526.532,833.05
527.079,833.35
527.625,833.4
528.172,833.45
528.718,833.2
529.265,834.25
529.811,833.05
530.357,832.4
530.903,832.6
531.449,834.1
531.994,845.25
532.54,833.45
533.085,834.4
533.63,837.45
534.176,1062.15
534.721,1022.15
535.266,983.0
535.81,969.8
536.355,964.05
536.9,968.7
537.444,957.55
537.988,957.35
538.533,944.25
539.077,945.55
539.621,939.75
540.165,937.55
540.708,955.75
541.252,954.05
541.795,944.3
542.339,943.3
542.882,943.15
543.425,968.4
543.968,976.4
544.511,953.7
545.054,945.25
545.597,940.05
546.139,942.75
546.682,942.2
547.224,945.7
547.766,948.25
548.308,952.0
548.85,947.9
549.392,953.15
549.934,951.35
550.475,955.4
551.017,955.25
551.558,959.65
552.1,960.2
552.641,962.6
553.182,965.0
553.723,961.55
554.264,969.2
554.804,961.8
555.345,956.05
555.885,952.7
556.426,956.45
556.966,962.6
557.506,976.85
558.046,1096.9
558.586,990.8
559.126,972.8
559.665,975.7
560.205,969.3
560.745,966.45
561.284,961.95
561.823,965.85
562.362,967.85
562.901,975.5
563.44,1010.15
563.979,987.4
564.518,981.55
565.056,1004.9
565.595,998.15
566.133,1032.75
566.671,993.25
567.21,980.95
567.748,987.25
568.285,986.25
568.823,988.65
569.361,990.1
569.899,986.95
570.436,988.05
570.974,988.15
571.511,1006.1
572.048,1007.5
572.585,1003.2
573.122,1002.0
573.659,1004.05
574.196,1000.4
574.733,1013.2
575.269,993.95
575.806,995.25
576.342,1013.15
576.878,1067.0
577.414,1011.4
577.951,997.3
578.486,999.45
579.022,992.8
579.558,998.6
580.094,995.15
580.629,995.5
581.165,994.75
581.7,995.35
582.236,993.25
582.771,999.2
583.306,997.5
583.841,1002.45
584.376,999.9
584.911,997.2
585.445,1003.15
585.98,999.6
586.514,1016.2
587.049,1047.95
587.583,1071.4
588.117,1016.3
588.651,1000.35
589.186,998.4
589.72,995.75
590.253,997.5
590.787,995.05
591.321,998.1
591.854,998.25
592.388,993.6
592.921,995.2
593.455,992.9
593.988,991.85
594.521,994.05
595.054,993.1
595.587,996.4
596.12,994.45
596.653,995.2
597.186,996.3
597.718,997.05
598.251,999.25
598.783,1000.1
599.316,995.45
599.848,994.0
600.38,995.15
600.912,993.05
601.444,991.3
601.976,994.3
602.508,993.9
603.04,992.6
603.572,992.55
604.103,992.9
604.635,988.55
605.167,988.15
605.698,987.15
606.229,986.4
606.761,987.85
607.292,985.45
607.823,986.85
608.354,989.5
608.885,988.3
609.416,986.85
609.947,985.05
610.477,983.35
611.008,987.25
611.539,985.1
612.069,987.8
612.6,987.25
613.13,988.45
613.66,991.6
614.19,989.1
614.721,985.65
615.251,989.95
615.781,984.35
616.311,987.1
616.841,985.15
617.37,988.0
617.9,988.5
618.43,987.4
618.96,985.1
619.489,983.6
620.019,983.25
620.548,984.45
621.077,984.7
621.607,979.65
622.136,987.65
622.665,991.9
623.194,1001.75
623.723,993.1
624.252,988.5
624.781,985.1
625.31,981.8
625.839,982.75
626.368,983.7
626.896,983.35
627.425,985.0
627.953,994.35
628.482,1066.45
629.01,1044.3
629.539,1046.9
630.067,1050.6
630.596,1127.5
631.124,1519.8
631.652,1229.15
632.18,1106.1
632.708,1094.2
633.236,1193.2
633.764,1140.6
634.292,1045.05
634.82,997.4
635.348,979.55
635.876,975.05
636.403,972.3
636.931,974.2
637.459,967.05
637.986,968.0
638.514,967.05
639.041,967.55
639.568,971.15
640.096,966.45
640.623,964.6
641.15,966.7
641.678,967.75
642.205,963.7
642.732,961.8
643.259,959.05
643.786,957.5
644.313,958.6
644.84,957.15
645.367,955.9
645.894,951.85
646.421,951.9
646.948,952.35
647.474,950.6
648.001,954.75
648.528,950.25
649.054,950.85
649.581,947.95
650.108,946.9
650.634,948.4
651.161,948.1
651.687,948.2
652.214,946.15
652.74,943.9
653.266,945.75
653.793,945.65
654.319,945.55
654.845,944.2
655.371,945.35
655.897,944.9
656.424,943.7
656.95,942.35
657.476,942.55
658.002,941.75
658.528,943.45
659.054,939.85
659.58,940.55
660.106,941.2
660.631,940.25
661.157,936.75
661.683,935.3
662.209,936.75
662.735,936.2
663.129,931.65