Folder: MPX_specDB/spectra (part 154)

File: VLFR_08-PLA_nobio_Raman_adae048e.csv
nm,Intensity
526.508,831.5
527.055,830.1
527.602,829.6
528.149,830.5
528.695,829.0
529.241,832.0
529.787,829.5
530.334,830.5
530.879,830.3
531.425,830.4
531.971,832.7
532.516,830.4
533.062,829.1
533.607,831.6
534.152,1075.6
534.697,1024.7
535.242,984.5
535.786,967.3
536.331,957.8
536.876,960.3
537.42,950.0
537.964,949.3
538.508,940.2
539.052,934.6
539.596,930.7
540.14,927.7
540.683,946.9
541.227,951.1
541.77,938.4
542.313,937.4
542.856,933.9
543.399,959.7
543.942,977.1
544.485,950.1
545.027,939.6
545.57,936.7
546.112,931.6
546.654,935.3
547.196,939.4
547.738,935.6
548.28,940.4
548.822,939.9
549.363,939.7
549.905,945.7
550.446,947.1
550.988,947.2
551.529,952.4
552.07,957.4
552.611,959.7
553.152,958.6
553.692,956.5
554.233,969.1
554.773,958.4
555.314,954.8
555.854,953.2
556.394,953.6
556.934,955.0
557.474,973.1
558.014,1098.9
558.553,996.0
559.093,969.7
559.632,972.2
560.172,960.3
560.711,960.0
561.25,957.9
561.789,961.3
562.328,956.6
562.867,977.2
563.406,1008.8
563.944,985.9
564.483,978.3
565.021,1001.8
565.559,993.9
566.098,1032.0
566.636,993.9
567.174,971.4
567.711,984.3
568.249,975.1
568.787,981.0
569.324,982.8
569.862,980.5
570.399,976.7
570.936,981.8
571.474,997.4
572.011,1012.0
572.548,995.8
573.084,996.7
573.621,1004.0
574.158,1001.3
574.694,1007.8
575.231,984.8
575.767,987.8
576.303,1011.4
576.84,1079.9
577.376,1012.9
577.912,990.5
578.447,990.6
578.983,990.7
579.519,994.7
580.054,991.8
580.59,998.4
581.125,990.5
581.661,989.9
582.196,994.3
582.731,997.1
583.266,999.5
583.801,998.8
584.336,997.7
584.87,997.9
585.405,998.9
585.94,1001.9
586.474,1013.6
587.008,1056.1
587.543,1081.3
588.077,1030.1
588.611,999.9
589.145,1004.1
589.679,997.9
590.213,998.5
590.747,998.2
591.28,1001.8
591.814,996.8
592.347,998.3
592.881,1001.3
593.414,998.6
593.947,996.9
594.48,997.6
595.014,1002.1
595.547,1002.2
596.079,1002.4
596.612,1000.1
597.145,1009.0
597.678,1004.5
598.21,1002.0
598.743,1012.9
599.275,1007.3
599.807,1008.3
600.34,1005.0
600.872,1005.0
601.404,1005.8
601.936,1007.0
602.468,1011.6
603.0,1009.8
603.532,1009.3
604.063,1009.7
604.595,1009.4
605.126,1010.2
605.658,1007.4
606.189,1011.2
606.721,1010.6
607.252,1007.9
607.783,1011.4
608.314,1008.9
608.845,1013.6
609.376,1020.6
609.907,1016.3
610.438,1015.9
610.968,1016.4
611.499,1020.0
612.03,1021.8
612.56,1020.3
613.091,1020.5
613.621,1026.7
614.151,1023.2
614.681,1026.9
615.212,1023.4
615.742,1032.0
616.272,1026.2
616.802,1026.4
617.332,1023.3
617.861,1030.8
618.391,1026.8
618.921,1025.8
619.45,1026.5
619.98,1032.0
620.509,1028.3
621.039,1027.2
621.568,1030.1
622.097,1031.4
622.627,1038.9
623.156,1046.1
623.685,1036.2
624.214,1034.3
624.743,1029.0
625.272,1029.7
625.801,1020.7
626.33,1028.7
626.858,1028.3
627.387,1028.3
627.916,1037.5
628.444,1117.8
628.973,1100.4
629.501,1094.7
630.029,1098.5
630.558,1172.4
631.086,1606.9
631.614,1321.7
632.142,1177.1
632.67,1145.3
633.198,1249.5
633.726,1215.3
634.254,1097.3
634.782,1041.1
635.31,1021.6
635.838,1017.4
636.365,1011.1
636.893,1014.0
637.421,1010.9
637.948,1009.8
638.476,1005.8
639.003,1011.1
639.531,1004.0
640.058,1008.0
640.585,1004.8
641.113,1004.6
641.64,996.1
642.167,1009.9
642.694,1005.5
643.221,994.2
643.748,992.7
644.275,988.2
644.802,989.0
645.329,989.4
645.856,990.6
646.382,984.9
646.909,985.8
647.436,986.8
647.962,983.3
648.489,979.8
649.016,980.9
649.542,980.7
650.069,984.3
650.595,973.4
651.121,979.0
651.648,979.3
652.174,973.7
652.7,977.6
653.227,972.8
653.753,977.7
654.279,974.9
654.805,974.0
655.331,973.8
655.857,974.1
656.383,968.1
656.909,974.2
657.435,964.9
657.961,973.0
658.487,973.9
659.013,966.0
659.538,964.1
660.064,964.4
660.59,967.9
661.116,954.0
661.641,958.4
662.167,958.0
662.692,963.9
663.087,963.8

File: VLFR_08-PLA_nobio_Raman_ae20f206.csv
nm,Intensity
526.486,830.7
527.033,830.1
527.579,829.8
528.126,829.3
528.672,829.6
529.219,829.0
529.765,829.2
530.311,829.3
530.857,830.8
531.403,829.1
531.948,832.4
532.494,832.4
533.039,829.7
533.585,831.2
534.13,1040.0
534.675,1001.9
535.22,966.7
535.764,945.4
536.309,932.3
536.854,935.3
537.398,926.8
537.942,925.0
538.486,913.6
539.03,911.9
539.574,908.8
540.118,900.9
540.662,917.2
541.205,920.4
541.749,913.2
542.292,907.8
542.835,911.0
543.378,927.9
543.921,940.3
544.464,916.0
545.006,905.8
545.549,904.1
546.091,904.6
546.634,902.3
547.176,906.6
547.718,906.7
548.26,907.3
548.802,906.3
549.343,911.6
549.885,909.0
550.426,913.8
550.968,914.4
551.509,913.6
552.05,919.8
552.591,922.8
553.132,921.7
553.673,923.6
554.214,930.8
554.754,919.3
555.295,917.7
555.835,912.4
556.375,910.9
556.915,914.2
557.455,932.3
557.995,1042.3
558.535,955.8
559.075,933.2
559.614,924.0
560.154,927.1
560.693,924.2
561.232,919.1
561.772,917.2
562.311,920.0
562.85,931.7
563.388,961.9
563.927,944.7
564.466,934.1
565.004,953.4
565.543,950.6
566.081,975.8
566.619,953.0
567.157,927.0
567.695,936.5
568.233,937.9
568.771,934.9
569.309,933.5
569.846,935.2
570.384,935.1
570.921,935.5
571.458,954.8
571.995,956.7
572.532,953.0
573.069,948.3
573.606,962.6
574.143,951.6
574.68,962.4
575.216,939.5
575.753,937.5
576.289,960.0
576.825,1018.5
577.361,966.4
577.897,942.2
578.433,942.6
578.969,943.2
579.505,940.7
580.041,943.2
580.576,936.5
581.112,942.4
581.647,940.6
582.183,941.7
582.718,941.4
583.253,945.2
583.788,943.2
584.323,947.3
584.858,945.3
585.392,948.4
585.927,945.3
586.462,960.3
586.996,992.9
587.53,1021.9
588.065,975.3
588.599,949.7
589.133,944.9
589.667,944.8
590.201,946.6
590.735,941.8
591.268,945.0
591.802,947.6
592.335,945.6
592.869,947.3
593.402,946.6
593.936,947.8
594.469,941.3
595.002,943.2
595.535,945.4
596.068,947.1
596.601,945.4
597.133,946.7
597.666,943.6
598.199,943.5
598.731,949.7
599.264,951.2
599.796,946.4
600.328,951.3
600.86,948.5
601.393,949.5
601.925,948.8
602.457,948.3
602.988,944.6
603.52,949.4
604.052,949.5
604.583,944.1
605.115,947.5
605.646,941.7
606.178,943.0
606.709,939.3
607.24,944.6
607.771,943.1
608.302,948.2
608.833,945.2
609.364,946.5
609.895,947.1
610.426,949.2
610.957,945.2
611.487,945.1
612.018,943.0
612.548,945.7
613.078,946.3
613.609,947.3
614.139,948.9
614.669,952.2
615.199,946.1
615.729,950.1
616.259,954.7
616.789,948.9
617.319,949.2
617.849,946.3
618.378,946.1
618.908,944.8
619.437,947.3
619.967,945.8
620.496,942.1
621.025,943.3
621.555,947.6
622.084,948.2
622.613,955.7
623.142,960.7
623.671,960.3
624.2,954.2
624.729,949.8
625.258,940.0
625.786,949.6
626.315,940.8
626.844,946.3
627.372,942.5
627.901,953.3
628.429,1022.6
628.957,1013.8
629.486,1014.4
630.014,1011.5
630.542,1068.3
631.07,1467.4
631.598,1235.9
632.126,1081.8
632.654,1059.8
633.182,1152.1
633.71,1122.2
634.237,1016.1
634.765,965.8
635.293,948.6
635.82,944.7
636.348,935.4
636.875,932.8
637.403,934.1
637.93,930.9
638.458,932.0
638.985,933.7
639.512,932.1
640.039,930.2
640.566,932.9
641.093,931.6
641.62,930.8
642.147,931.1
642.674,929.4
643.201,929.4
643.728,923.4
644.255,922.2
644.781,919.7
645.308,921.8
645.835,922.3
646.361,918.4
646.888,918.9
647.414,919.5
647.941,918.7
648.467,915.2
648.993,914.2
649.52,915.8
650.046,916.9
650.572,914.8
651.098,913.7
651.625,914.6
652.151,911.9
652.677,912.8
653.203,910.5
653.729,912.0
654.255,909.3
654.78,908.0
655.306,908.7
655.832,907.8
656.358,909.6
656.884,912.7
657.409,909.2
657.935,909.7
658.461,910.9
658.986,905.3
659.512,910.2
660.037,906.7
660.563,905.2
661.088,903.0
661.614,904.5
662.139,901.6
662.664,903.0
663.058,902.3

File: VLFR_08-PLA_nobio_Raman_af1cc8bc.csv
cm-1,Intensity
-123.878,1851.6
-105.821,1852.95
-87.8007,1852.2
-69.8161,1852.4
-51.8675,1853.75
-33.9547,1853.65
-16.0776,1871.15
1.76388,2677.95
19.5698,1853.05
37.3403,1853.45
55.0755,1938.0
72.7754,2137.7
90.4402,2133.2
108.07,2121.65
125.665,2122.85
143.225,2104.55
160.75,2124.6
178.241,2107.65
195.697,2126.75
213.119,2110.5
230.506,2108.3
247.859,2115.1
265.178,2114.7
282.463,2116.85
299.713,2139.3
316.93,2135.5
334.113,2124.4
351.263,2147.5
368.379,2138.2
385.461,2172.0
402.51,2201.55
419.526,2172.45
436.508,2159.0
453.458,2156.2
470.374,2157.05
487.257,2165.5
504.107,2164.65
520.925,2173.45
537.71,2176.55
554.462,2181.65
571.182,2190.05
587.87,2193.6
604.525,2201.3
621.148,2202.45
637.739,2212.25
654.297,2214.15
670.824,2221.65
687.319,2224.5
703.782,2231.45
720.213,2236.7
736.613,2242.1
752.981,2230.25
769.317,2235.25
785.623,2230.55
801.897,2223.55
818.139,2226.8
834.351,2233.5
850.532,2253.8
866.681,2380.7
882.8,2340.5
898.888,2271.75
914.945,2278.1
930.972,2267.8
946.968,2263.25
962.934,2265.75
978.869,2270.3
994.774,2275.45
1010.65,2273.25
1026.49,2296.1
1042.31,2360.55
1058.09,2313.65
1073.85,2303.7
1089.57,2339.7
1105.27,2343.6
1120.93,2354.15
1136.57,2351.25
1152.18,2324.75
1167.75,2316.9
1183.3,2339.1
1198.82,2321.35
1214.31,2344.65
1229.77,2334.8
1245.2,2321.95
1260.6,2320.0
1275.97,2337.1
1291.32,2393.9
1306.63,2381.4
1321.92,2369.85
1337.18,2352.7
1352.41,2371.0
1367.61,2379.35
1382.78,2369.5
1397.93,2357.2
1413.05,2345.65
1428.14,2362.05
1443.2,2408.1
1458.23,2438.05
1473.23,2390.65
1488.21,2362.55
1503.16,2362.0
1518.08,2344.1
1532.97,2350.1
1547.84,2355.6
1562.68,2345.3
1577.49,2356.85
1592.27,2344.35
1607.03,2368.95
1621.76,2358.5
1636.46,2349.75
1651.14,2345.55
1665.78,2339.05
1680.41,2360.3
1695.0,2356.85
1709.57,2348.65
1724.11,2344.85
1738.62,2351.55
1753.11,2398.45
1767.57,2449.0
1782.01,2425.05
1796.41,2362.6
1810.8,2367.4
1825.15,2339.5
1839.48,2349.2
1853.79,2359.2
1868.06,2337.45
1882.31,2350.95
1896.54,2341.8
1910.74,2354.1
1924.91,2342.95
1939.06,2335.55
1953.19,2351.4
1967.28,2340.75
1981.35,2345.6
1995.4,2348.8
2009.42,2341.75
2023.42,2343.35
2037.39,2346.4
2051.33,2334.8
2065.25,2337.3
2079.15,2336.85
2093.01,2355.15
2106.86,2356.05
2120.68,2353.7
2134.47,2359.5
2148.24,2348.8
2161.99,2348.5
2175.71,2344.7
2189.41,2352.4
2203.08,2358.85
2216.73,2351.05
2230.35,2344.05
2243.95,2361.65
2257.52,2348.6
2271.07,2348.45
2284.6,2346.55
2298.1,2351.55
2311.58,2348.55
2325.03,2368.65
2338.46,2341.1
2351.87,2334.75
2365.25,2341.6
2378.61,2336.4
2391.94,2327.55
2405.26,2344.75
2418.54,2340.45
2431.81,2352.95
2445.05,2331.8
2458.27,2327.25
2471.46,2320.45
2484.63,2329.6
2497.78,2342.55
2510.9,2346.7
2524.0,2323.7
2537.08,2337.35
2550.14,2318.05
2563.17,2325.75
2576.18,2320.8
2589.17,2322.7
2602.13,2308.85
2615.07,2310.85
2627.99,2306.85
2640.89,2300.65
2653.76,2314.9
2666.61,2311.55
2679.44,2320.4
2692.25,2311.2
2705.03,2305.7
2717.79,2305.7
2730.53,2323.5
2743.25,2325.6
2755.94,2320.5
2768.61,2318.9
2781.27,2301.1
2793.89,2289.55
2806.5,2282.4
2819.09,2293.2
2831.65,2280.95
2844.19,2282.55
2856.71,2294.75
2869.21,2339.1
2881.69,2418.25
2894.14,2401.05
2906.58,2403.9
2918.99,2394.1
2931.38,2521.6
2943.75,3199.5
2956.1,2879.4
2968.42,2559.05
2980.73,2455.3
2993.01,2571.95
3005.28,2640.05
3017.52,2477.05
3029.74,2324.35
3041.94,2291.4
3054.12,2252.6
3066.28,2239.3
3078.42,2238.2
3090.54,2236.15
3102.63,2224.4
3114.71,2219.35
3126.77,2214.2
3138.8,2218.35
3150.82,2214.85
3162.81,2209.5
3174.78,2201.1
3186.74,2201.15
3198.67,2193.1
3210.58,2198.95
3222.47,2194.55
3234.35,2211.05
3246.2,2186.05
3258.03,2184.25
3269.84,2193.0
3281.64,2184.1
3293.41,2179.15
3305.16,2171.1
3316.89,2168.4
3328.61,2151.45
3340.3,2148.8
3351.97,2161.0
3363.63,2143.9
3375.26,2141.75
3386.88,2144.05
3398.47,2135.5
3410.05,2139.0
3421.6,2144.9
3433.14,2129.85
3444.66,2126.95
3456.15,2135.1
3467.63,2121.7
3479.09,2114.3
3490.53,2113.2
3501.96,2116.85
3513.36,2117.4
3524.74,2107.35
3536.11,2119.0
3547.45,2094.6
3558.78,2097.6
3570.09,2097.15
3581.37,2088.9
3592.64,2093.65
3603.9,2094.95
3615.13,2090.0
3626.34,2070.4
3637.54,2068.1
3648.72,2079.4
3659.87,2069.5
3665.45,2069.6

File: VLFR_08-PLA_nobio_Raman_affcf259.csv
nm,Intensity
526.508,828.5
527.055,829.8
527.602,829.5
528.149,830.3
528.695,829.6
529.241,828.4
529.787,830.4
530.334,830.1
530.879,829.4
531.425,829.1
531.971,833.4
532.516,831.8
533.062,830.5
533.607,833.4
534.152,1044.0
534.697,1001.9
535.242,958.6
535.786,948.2
536.331,934.8
536.876,944.4
537.42,929.8
537.964,932.7
538.508,923.1
539.052,919.9
539.596,918.9
540.14,912.3
540.683,924.3
541.227,930.5
541.77,920.7
542.313,916.1
542.856,915.5
543.399,935.4
543.942,944.4
544.485,927.6
545.027,919.7
545.57,915.3
546.112,913.6
546.654,918.4
547.196,916.0
547.738,914.0
548.28,917.8
548.822,917.5
549.363,921.0
549.905,919.5
550.446,922.5
550.988,925.0
551.529,930.4
552.07,927.7
552.611,933.6
553.152,935.7
553.692,928.3
554.233,940.4
554.773,931.7
555.314,927.6
555.854,925.6
556.394,925.7
556.934,928.5
557.474,938.2
558.014,1045.8
558.553,961.7
559.093,942.5
559.632,937.9
560.172,936.1
560.711,931.7
561.25,927.6
561.789,929.6
562.328,936.7
562.867,938.7
563.406,970.2
563.944,952.0
564.483,945.7
565.021,966.3
565.559,956.9
566.098,985.2
566.636,961.9
567.174,939.4
567.711,943.7
568.249,947.1
568.787,946.3
569.324,947.3
569.862,948.6
570.399,950.0
570.936,948.9
571.474,962.6
572.011,969.1
572.548,957.5
573.084,962.0
573.621,966.6
574.158,961.5
574.694,971.1
575.231,954.8
575.767,953.5
576.303,972.8
576.84,1020.8
577.376,975.2
577.912,953.9
578.447,960.0
578.983,956.9
579.519,950.1
580.054,953.9
580.59,954.9
581.125,950.6
581.661,951.4
582.196,953.8
582.731,952.4
583.266,955.1
583.801,963.1
584.336,955.9
584.87,960.3
585.405,960.9
585.94,960.3
586.474,971.3
587.008,1003.9
587.543,1024.2
588.077,977.6
588.611,959.5
589.145,959.4
589.679,956.5
590.213,959.8
590.747,962.2
591.28,957.5
591.814,958.5
592.347,956.3
592.881,954.9
593.414,955.0
593.947,955.1
594.48,956.5
595.014,957.0
595.547,959.2
596.079,957.6
596.612,956.2
597.145,958.9
597.678,956.5
598.21,956.0
598.743,959.8
599.275,957.0
599.807,956.3
600.34,955.9
600.872,953.9
601.404,957.7
601.936,948.8
602.468,956.0
603.0,958.7
603.532,954.3
604.063,955.7
604.595,952.2
605.126,956.3
605.658,949.3
606.189,950.9
606.721,946.7
607.252,946.5
607.783,955.2
608.314,953.4
608.845,950.6
609.376,950.4
609.907,948.7
610.438,948.0
610.968,951.2
611.499,947.6
612.03,948.9
612.56,952.8
613.091,952.1
613.621,949.3
614.151,950.1
614.681,951.1
615.212,949.0
615.742,948.2
616.272,948.8
616.802,952.9
617.332,954.9
617.861,951.2
618.391,948.8
618.921,950.0
619.45,950.9
619.98,949.8
620.509,949.9
621.039,951.1
621.568,947.5
622.097,946.1
622.627,951.5
623.156,958.5
623.685,955.1
624.214,952.8
624.743,947.5
625.272,949.8
625.801,948.2
626.33,947.2
626.858,947.1
627.387,949.6
627.916,955.2
628.444,1006.5
628.973,1002.7
629.501,991.7
630.029,998.6
630.558,1040.6
631.086,1347.8
631.614,1153.1
632.142,1042.9
632.67,1033.0
633.198,1105.9
633.726,1077.1
634.254,997.3
634.782,960.6
635.31,946.4
635.838,943.9
636.365,939.7
636.893,937.0
637.421,937.6
637.948,932.8
638.476,932.2
639.003,940.0
639.531,936.2
640.058,933.6
640.585,934.0
641.113,933.6
641.64,932.7
642.167,935.9
642.694,935.1
643.221,927.3
643.748,928.1
644.275,929.4
644.802,924.9
645.329,928.1
645.856,928.2
646.382,926.2
646.909,923.9
647.436,928.5
647.962,921.1
648.489,922.6
649.016,925.2
649.542,921.2
650.069,922.8
650.595,923.3
651.121,921.3
651.648,918.7
652.174,918.1
652.7,916.3
653.227,920.4
653.753,920.5
654.279,918.9
654.805,916.8
655.331,915.8
655.857,916.0
656.383,920.1
656.909,917.6
657.435,914.9
657.961,913.9
658.487,913.8
659.013,916.3
659.538,913.5
660.064,915.6
660.59,913.1
661.116,911.8
661.641,915.8
662.167,913.2
662.692,910.4
663.087,911.8

File: VLFR_08-PLA_nobio_Raman_b3bcdb80.csv
nm,Intensity
526.5,830.5
527.047,829.5
527.594,829.3
528.14,829.1
528.687,827.5
529.233,830.1
529.779,830.9
530.325,829.3
530.871,828.5
531.417,828.9
531.962,834.7
532.508,829.2
533.053,830.0
533.599,835.0
534.144,1348.5
534.689,1385.5
535.234,1372.7
535.778,1405.3
536.323,1412.4
536.867,1420.5
537.412,1428.2
537.956,1442.8
538.5,1444.6
539.044,1455.0
539.588,1467.0
540.132,1472.8
540.675,1471.5
541.219,1485.1
541.762,1495.3
542.305,1498.1
542.848,1513.6
543.391,1527.9
543.934,1534.1
544.477,1542.6
545.02,1563.2
545.562,1568.5
546.105,1579.6
546.647,1586.3
547.189,1599.4
547.731,1593.1
548.273,1601.6
548.815,1626.9
549.356,1624.9
549.898,1643.7
550.439,1638.5
550.981,1650.1
551.522,1661.3
552.063,1687.8
552.604,1688.3
553.145,1686.0
553.686,1687.9
554.226,1703.1
554.767,1716.4
555.307,1712.9
555.848,1710.8
556.388,1727.7
556.928,1728.2
557.468,1745.5
558.008,1742.6
558.547,1753.7
559.087,1756.2
559.626,1777.1
560.166,1787.0
560.705,1795.9
561.244,1801.3
561.783,1804.0
562.322,1815.5
562.861,1836.7
563.4,1846.1
563.939,1871.5
564.477,1878.8
565.015,1879.3
565.554,1902.4
566.092,1903.6
566.63,1903.7
567.168,1912.1
567.706,1912.1
568.244,1932.4
568.781,1942.7
569.319,1968.6
569.857,1979.6
570.394,1984.3
570.931,1993.1
571.468,1985.5
572.005,2000.0
572.542,2025.4
573.079,2023.9
573.616,2043.5
574.153,2047.1
574.689,2069.5
575.226,2065.5
575.762,2064.3
576.298,2088.1
576.834,2081.6
577.371,2094.9
577.907,2110.8
578.442,2120.0
578.978,2134.1
579.514,2153.5
580.049,2157.4
580.585,2160.7
581.12,2154.5
581.656,2165.6
582.191,2151.6
582.726,2174.3
583.261,2155.2
583.796,2178.1
584.331,2166.4
584.865,2177.4
585.4,2190.6
585.935,2171.1
586.469,2204.1
587.004,2210.1
587.538,2226.5
588.072,2213.3
588.606,2207.0
589.14,2213.0
589.674,2227.5
590.208,2224.8
590.742,2248.0
591.275,2244.8
591.809,2250.3
592.342,2250.0
592.876,2242.0
593.409,2246.4
593.942,2250.4
594.476,2265.7
595.009,2287.5
595.542,2293.2
596.075,2289.9
596.607,2294.3
597.14,2310.5
597.673,2309.5
598.205,2333.6
598.738,2339.2
599.27,2362.9
599.803,2343.6
600.335,2343.8
600.867,2346.9
601.399,2337.3
601.931,2358.6
602.463,2342.2
602.995,2372.4
603.527,2368.3
604.058,2369.3
604.59,2363.9
605.122,2343.8
605.653,2342.5
606.184,2349.4
606.716,2338.9
607.247,2354.9
607.778,2367.9
608.309,2378.4
608.84,2392.5
609.371,2390.2
609.902,2385.6
610.433,2393.5
610.964,2404.5
611.494,2398.0
612.025,2429.1
612.556,2429.6
613.086,2457.2
613.616,2468.3
614.147,2475.6
614.677,2484.4
615.207,2488.3
615.737,2480.3
616.267,2481.6
616.797,2506.0
617.327,2512.1
617.857,2519.9
618.387,2516.4
618.917,2517.3
619.446,2511.7
619.976,2517.7
620.505,2512.1
621.035,2529.2
621.564,2522.6
622.093,2526.3
622.623,2540.8
623.152,2569.3
623.681,2574.1
624.21,2569.5
624.739,2577.7
625.268,2557.2
625.797,2573.4
626.326,2572.9
626.855,2567.1
627.383,2571.6
627.912,2588.4
628.441,2588.6
628.969,2586.4
629.498,2593.9
630.026,2587.2
630.554,2616.5
631.083,2599.2
631.611,2614.4
632.139,2600.0
632.667,2609.0
633.195,2602.6
633.724,2586.9
634.252,2603.1
634.779,2602.6
635.307,2587.2
635.835,2613.1
636.363,2622.5
636.891,2615.6
637.418,2603.4
637.946,2629.3
638.474,2612.4
639.001,2619.6
639.529,2622.2
640.056,2623.9
640.583,2630.7
641.111,2632.5
641.638,2624.7
642.165,2613.8
642.692,2617.0
643.22,2604.9
643.747,2601.2
644.274,2588.2
644.801,2584.9
645.328,2596.4
645.854,2575.2
646.381,2585.3
646.908,2586.2
647.435,2593.9
647.962,2589.8
648.488,2601.9
649.015,2582.1
649.542,2578.4
650.068,2580.9
650.595,2572.4
651.121,2597.3
651.648,2590.3
652.174,2602.6
652.7,2595.5
653.227,2609.6
653.753,2607.8
654.279,2611.6
654.805,2609.7
655.331,2623.4
655.858,2627.6
656.384,2622.5
656.91,2628.5
657.436,2642.0
657.962,2636.7
658.488,2665.8
659.013,2659.5
659.539,2647.0
660.065,2675.2
660.591,2666.7
661.117,2667.0
661.642,2641.4
662.168,2646.5
662.694,2674.7
663.088,2656.0

File: VLFR_08-PLA_nobio_Raman_b49e10f5.csv
nm,Intensity
526.547,832.3
527.094,833.9
527.641,832.7
528.188,833.3
528.734,832.3
529.281,832.6
529.827,832.4
530.373,831.0
530.92,831.7
531.466,832.7
532.011,843.6
532.557,833.4
533.103,832.7
533.648,836.9
534.193,1060.0
534.738,1011.4
535.283,976.7
535.828,956.0
536.373,950.8
536.917,952.0
537.462,942.9
538.006,941.9
538.55,930.3
539.094,930.9
539.638,926.9
540.182,921.5
540.726,939.7
541.269,944.4
541.812,934.3
542.356,926.9
542.899,932.7
543.442,954.0
543.985,964.4
544.527,938.3
545.07,928.0
545.612,927.0
546.155,929.6
546.697,929.3
547.239,926.1
547.781,932.8
548.323,927.8
548.865,933.8
549.406,938.7
549.948,935.6
550.489,938.5
551.03,942.5
551.572,944.3
552.113,946.4
552.654,947.8
553.194,946.6
553.735,944.4
554.276,952.6
554.816,949.7
555.356,939.4
555.896,936.0
556.437,942.2
556.977,946.0
557.516,958.6
558.056,1089.2
558.596,974.7
559.135,960.2
559.675,955.0
560.214,953.3
560.753,946.1
561.292,943.0
561.831,946.2
562.37,946.1
562.909,957.4
563.448,993.9
563.986,966.3
564.525,962.1
565.063,984.1
565.601,978.7
566.139,1011.1
566.677,973.0
567.215,958.5
567.753,965.1
568.291,965.4
568.828,966.7
569.366,967.0
569.903,962.0
570.441,965.0
570.978,963.1
571.515,984.9
572.052,985.8
572.589,975.8
573.126,978.4
573.662,990.3
574.199,978.8
574.735,986.7
575.272,967.4
575.808,971.7
576.344,989.6
576.88,1050.0
577.416,985.7
577.952,972.8
578.488,973.5
579.024,971.8
579.559,972.3
580.095,966.0
580.63,970.4
581.166,970.1
581.701,971.5
582.236,969.6
582.771,976.0
583.306,973.6
583.841,976.6
584.376,973.1
584.911,974.8
585.445,974.6
585.98,979.4
586.514,990.1
587.048,1034.0
587.583,1053.5
588.117,1000.1
588.651,979.3
589.185,976.5
589.719,975.2
590.253,974.7
590.786,973.5
591.32,972.2
591.853,971.4
592.387,973.0
592.92,969.1
593.454,967.6
593.987,971.7
594.52,969.6
595.053,974.2
595.586,974.9
596.119,972.3
596.651,973.7
597.184,976.0
597.717,972.5
598.249,971.4
598.782,974.7
599.314,974.5
599.846,975.5
600.379,978.1
600.911,973.3
601.443,971.0
601.975,968.5
602.507,970.5
603.038,970.6
603.57,970.2
604.102,970.6
604.633,972.5
605.165,967.8
605.696,965.1
606.228,967.9
606.759,967.7
607.29,964.9
607.821,961.7
608.352,966.1
608.883,966.3
609.414,962.8
609.945,963.8
610.476,965.3
611.006,963.9
611.537,961.1
612.067,961.8
612.598,963.9
613.128,969.5
613.659,965.9
614.189,965.7
614.719,966.5
615.249,964.6
615.779,967.8
616.309,965.9
616.839,964.7
617.369,967.7
617.899,964.5
618.428,962.9
618.958,962.4
619.487,964.1
620.017,967.1
620.546,962.2
621.076,960.4
621.605,961.3
622.134,965.8
622.663,975.2
623.193,975.4
623.722,969.0
624.251,966.5
624.78,966.0
625.308,966.1
625.837,963.5
626.366,962.6
626.895,956.9
627.423,964.9
627.952,980.2
628.48,1054.5
629.009,1031.6
629.537,1029.4
630.065,1036.6
630.594,1115.8
631.122,1529.6
631.65,1223.5
632.178,1091.1
632.706,1084.8
633.234,1190.8
633.762,1134.6
634.29,1027.2
634.818,979.3
635.346,963.7
635.873,961.8
636.401,956.3
636.929,953.8
637.456,953.7
637.984,949.7
638.511,951.5
639.039,947.8
639.566,950.4
640.093,951.1
640.62,947.4
641.148,952.0
641.675,948.6
642.202,946.0
642.729,949.7
643.256,943.7
643.783,941.8
644.31,942.0
644.837,937.3
645.364,938.3
645.891,940.1
646.417,942.5
646.944,934.6
647.471,938.8
647.997,937.9
648.524,935.5
649.051,934.2
649.577,934.3
650.104,929.6
650.63,931.0
651.157,929.6
651.683,931.5
652.209,928.5
652.736,925.0
653.262,930.3
653.788,926.4
654.314,926.3
654.84,929.0
655.366,929.6
655.893,926.7
656.419,929.0
656.945,929.5
657.471,925.6
657.997,931.5
658.522,928.4
659.048,922.9
659.574,922.3
660.1,927.0
660.626,920.2
661.152,921.4
661.677,923.2
662.203,919.4
662.729,920.8
663.123,920.5