Folder: MPX_specDB/spectra (part 67)

File: VLFR_02-HDPE_nobio_Raman_f728725a.csv
nm,Intensity
526.5,827.2
527.047,828.4
527.594,827.7
528.14,827.2
528.687,825.7
529.233,826.2
529.779,826.9
530.325,827.8
530.871,827.0
531.417,826.9
531.962,834.3
532.508,828.6
533.053,826.3
533.599,827.2
534.144,879.5
534.689,874.0
535.234,871.1
535.778,851.3
536.323,844.7
536.867,841.8
537.412,843.5
537.956,843.3
538.5,842.6
539.044,840.6
539.588,840.3
540.132,837.4
540.675,837.4
541.219,836.6
541.762,837.1
542.305,837.2
542.848,836.4
543.391,834.7
543.934,836.6
544.477,834.9
545.02,838.4
545.562,836.5
546.105,834.3
546.647,836.2
547.189,837.9
547.731,834.3
548.273,836.6
548.815,835.8
549.356,836.0
549.898,835.0
550.439,834.7
550.981,834.9
551.522,835.5
552.063,836.5
552.604,837.5
553.145,838.2
553.686,838.1
554.226,839.1
554.767,838.8
555.307,839.9
555.848,839.2
556.388,840.9
556.928,840.4
557.468,842.9
558.008,843.0
558.547,844.0
559.087,841.5
559.626,842.5
560.166,840.0
560.705,841.3
561.244,839.9
561.783,840.9
562.322,842.7
562.861,844.0
563.4,847.7
563.939,903.3
564.477,855.9
565.015,853.2
565.554,851.5
566.092,899.7
566.63,851.6
567.168,847.1
567.706,852.9
568.244,845.7
568.781,842.3
569.319,845.8
569.857,845.0
570.394,849.2
570.931,854.3
571.468,943.2
572.005,868.9
572.542,852.6
573.079,849.4
573.616,848.3
574.153,855.7
574.689,847.8
575.226,850.4
575.762,880.0
576.298,982.3
576.834,914.5
577.371,893.9
577.907,863.0
578.442,855.7
578.978,858.7
579.514,853.8
580.049,857.2
580.585,859.1
581.12,859.1
581.656,860.8
582.191,862.5
582.726,864.5
583.261,866.2
583.796,867.0
584.331,867.8
584.865,871.7
585.4,876.3
585.935,877.4
586.469,882.0
587.004,883.5
587.538,891.0
588.072,891.9
588.606,896.9
589.14,900.0
589.674,904.1
590.208,912.4
590.742,915.7
591.275,920.1
591.809,926.2
592.342,931.4
592.876,931.9
593.409,933.4
593.942,941.1
594.476,948.1
595.009,948.8
595.542,958.6
596.075,961.0
596.607,966.9
597.14,968.9
597.673,966.5
598.205,978.1
598.738,982.0
599.27,985.2
599.803,987.9
600.335,986.5
600.867,991.7
601.399,985.4
601.931,984.7
602.463,983.6
602.995,984.6
603.527,974.9
604.058,971.2
604.59,967.7
605.122,958.3
605.653,954.1
606.184,948.8
606.716,947.3
607.247,943.6
607.778,938.3
608.309,936.0
608.84,933.9
609.371,931.4
609.902,926.6
610.433,925.4
610.964,925.6
611.494,922.9
612.025,917.5
612.556,919.8
613.086,914.7
613.616,919.2
614.147,912.2
614.677,914.0
615.207,908.7
615.737,912.3
616.267,908.8
616.797,911.3
617.327,915.4
617.857,910.7
618.387,910.9
618.917,911.1
619.446,911.6
619.976,909.6
620.505,906.2
621.035,913.6
621.564,919.0
622.093,943.7
622.623,935.3
623.152,909.9
623.681,901.4
624.21,902.7
624.739,901.4
625.268,901.4
625.797,906.0
626.326,931.9
626.855,1147.5
627.383,1509.1
627.912,1236.6
628.441,1464.3
628.969,1238.7
629.498,1148.0
630.026,1060.4
630.554,1043.6
631.083,951.9
631.611,907.3
632.139,897.3
632.667,893.9
633.195,891.4
633.724,888.5
634.252,884.2
634.779,886.6
635.307,885.1
635.835,881.2
636.363,883.2
636.891,880.4
637.418,882.4
637.946,880.4
638.474,881.5
639.001,878.8
639.529,879.2
640.056,879.9
640.583,880.0
641.111,881.9
641.638,881.7
642.165,881.6
642.692,883.0
643.22,883.5
643.747,884.7
644.274,884.5
644.801,887.0
645.328,886.3
645.854,884.7
646.381,886.4
646.908,887.5
647.435,890.4
647.962,888.4
648.488,889.7
649.015,889.0
649.542,888.0
650.068,887.5
650.595,891.0
651.121,892.1
651.648,889.4
652.174,889.9
652.7,891.1
653.227,889.6
653.753,893.6
654.279,889.0
654.805,887.6
655.331,889.2
655.858,889.9
656.384,889.1
656.91,887.3
657.436,887.0
657.962,883.3
658.488,881.3
659.013,884.6
659.539,881.2
660.065,881.2
660.591,881.8
661.117,875.9
661.642,876.1
662.168,870.6
662.694,872.7
663.088,868.7

File: VLFR_02-HDPE_nobio_Raman_fa1e7a26.csv
nm,Intensity
526.486,830.4
527.033,829.1
527.579,831.0
528.126,829.9
528.672,829.4
529.219,830.2
529.765,829.6
530.311,828.8
530.857,828.1
531.403,829.5
531.948,834.0
532.494,831.2
533.039,829.4
533.585,828.8
534.13,858.4
534.675,859.4
535.22,854.9
535.764,848.7
536.309,844.2
536.854,844.2
537.398,843.3
537.942,842.2
538.486,842.9
539.03,844.2
539.574,844.5
540.118,840.7
540.662,839.3
541.205,840.1
541.749,840.4
542.292,840.7
542.835,840.0
543.378,840.4
543.921,840.1
544.464,840.5
545.006,840.3
545.549,838.9
546.091,839.3
546.634,841.3
547.176,840.4
547.718,840.4
548.26,841.2
548.802,840.0
549.343,839.3
549.885,839.4
550.426,841.8
550.968,841.1
551.509,842.0
552.05,843.4
552.591,840.1
553.132,841.2
553.673,841.8
554.214,841.2
554.754,842.8
555.295,842.3
555.835,842.4
556.375,844.3
556.915,842.8
557.455,843.6
557.995,846.2
558.535,845.5
559.075,842.9
559.614,844.6
560.154,843.1
560.693,844.4
561.232,842.2
561.772,846.2
562.311,844.7
562.85,845.1
563.388,849.5
563.927,871.5
564.466,857.4
565.004,852.7
565.543,849.6
566.081,880.0
566.619,852.4
567.157,848.8
567.695,854.3
568.233,848.2
568.771,850.4
569.309,850.4
569.846,850.5
570.384,853.5
570.921,857.1
571.458,896.4
571.995,864.7
572.532,857.6
573.069,856.5
573.606,859.2
574.143,865.9
574.68,859.6
575.216,865.4
575.753,881.5
576.289,927.3
576.825,899.1
577.361,893.9
577.897,869.9
578.433,871.0
578.969,877.0
579.505,875.6
580.041,879.1
580.576,878.1
581.112,884.8
581.647,889.2
582.183,891.2
582.718,891.2
583.253,894.1
583.788,898.5
584.323,897.0
584.858,902.9
585.392,904.6
585.927,905.7
586.462,910.4
586.996,913.2
587.53,918.9
588.065,919.5
588.599,925.0
589.133,931.2
589.667,929.0
590.201,941.1
590.735,942.0
591.268,943.5
591.802,946.7
592.335,954.0
592.869,955.4
593.402,956.6
593.936,961.7
594.469,964.7
595.002,970.6
595.535,975.4
596.068,986.9
596.601,985.3
597.133,996.9
597.666,995.6
598.199,1003.6
598.731,1006.1
599.264,1020.1
599.796,1022.1
600.328,1023.7
600.86,1024.5
601.393,1018.1
601.925,1025.7
602.457,1016.9
602.988,1019.6
603.52,1015.3
604.052,1012.1
604.583,1005.9
605.115,994.0
605.646,989.5
606.178,984.9
606.709,977.4
607.24,970.7
607.771,966.9
608.302,964.3
608.833,957.0
609.364,956.2
609.895,956.9
610.426,949.3
610.957,942.7
611.487,938.3
612.018,938.0
612.548,941.3
613.078,937.6
613.609,934.8
614.139,934.5
614.669,929.3
615.199,926.8
615.729,925.4
616.259,921.5
616.789,921.7
617.319,923.1
617.849,924.4
618.378,921.5
618.908,916.0
619.437,915.9
619.967,918.0
620.496,912.5
621.025,914.0
621.555,918.0
622.084,928.7
622.613,929.4
623.142,913.0
623.671,914.9
624.2,910.7
624.729,911.7
625.258,905.3
625.786,911.0
626.315,921.8
626.844,1011.9
627.372,1217.4
627.901,1077.3
628.429,1166.1
628.957,1111.1
629.486,1046.7
630.014,1000.9
630.542,994.8
631.07,946.4
631.598,911.9
632.126,903.0
632.654,904.0
633.182,905.0
633.71,901.9
634.237,899.2
634.765,900.7
635.293,898.3
635.82,900.0
636.348,897.5
636.875,902.2
637.403,894.4
637.93,899.2
638.458,901.0
638.985,901.1
639.512,900.3
640.039,900.2
640.566,900.9
641.093,900.0
641.62,901.9
642.147,897.9
642.674,902.3
643.201,903.8
643.728,903.5
644.255,904.3
644.781,906.2
645.308,903.2
645.835,906.2
646.361,909.4
646.888,907.3
647.414,908.8
647.941,906.5
648.467,909.9
648.993,905.4
649.52,905.3
650.046,908.6
650.572,910.7
651.098,905.7
651.625,913.3
652.151,913.6
652.677,914.8
653.203,913.3
653.729,917.0
654.255,911.8
654.78,912.5
655.306,909.7
655.832,908.9
656.358,909.2
656.884,911.9
657.409,908.5
657.935,910.4
658.461,906.6
658.986,905.5
659.512,902.2
660.037,902.0
660.563,901.7
661.088,898.9
661.614,894.5
662.139,891.4
662.664,890.1
663.058,886.7

File: VLFR_02-HDPE_nobio_Raman_fb66a698.csv
nm,Intensity
526.5,829.5
527.047,829.7
527.594,828.7
528.14,829.8
528.687,829.5
529.233,828.8
529.779,830.1
530.325,828.9
530.871,829.9
531.417,829.6
531.962,833.9
532.508,831.6
533.053,830.0
533.599,829.7
534.144,883.8
534.689,875.2
535.234,867.1
535.778,855.6
536.323,850.5
536.867,847.1
537.412,848.4
537.956,847.9
538.5,843.6
539.044,842.7
539.588,839.1
540.132,839.9
540.675,839.1
541.219,838.6
541.762,837.4
542.305,839.3
542.848,838.7
543.391,838.9
543.934,838.2
544.477,836.9
545.02,838.2
545.562,836.3
546.105,837.1
546.647,836.9
547.189,836.6
547.731,838.4
548.273,835.8
548.815,835.8
549.356,837.1
549.898,836.2
550.439,835.9
550.981,836.8
551.522,837.0
552.063,837.5
552.604,838.2
553.145,838.9
553.686,840.8
554.226,838.7
554.767,838.1
555.307,841.9
555.848,839.7
556.388,840.5
556.928,844.3
557.468,844.4
558.008,848.1
558.547,848.6
559.087,846.7
559.626,844.5
560.166,843.7
560.705,842.7
561.244,842.7
561.783,844.7
562.322,846.8
562.861,846.5
563.4,850.3
563.939,931.7
564.477,870.1
565.015,865.2
565.554,860.5
566.092,995.5
566.63,861.7
567.168,850.6
567.706,849.6
568.244,845.7
568.781,845.0
569.319,847.6
569.857,846.9
570.394,847.5
570.931,855.0
571.468,979.9
572.005,874.7
572.542,852.1
573.079,846.6
573.616,847.1
574.153,855.5
574.689,845.9
575.226,854.6
575.762,937.7
576.298,952.6
576.834,913.5
577.371,881.7
577.907,857.1
578.442,848.6
578.978,847.8
579.514,846.6
580.049,848.8
580.585,849.4
581.12,847.9
581.656,846.6
582.191,848.8
582.726,849.5
583.261,848.3
583.796,849.4
584.331,849.1
584.865,851.7
585.4,851.7
585.935,853.0
586.469,855.4
587.004,854.6
587.538,859.0
588.072,862.7
588.606,861.6
589.14,866.5
589.674,866.3
590.208,866.1
590.742,870.8
591.275,868.1
591.809,870.9
592.342,871.1
592.876,870.7
593.409,871.4
593.942,872.8
594.476,867.9
595.009,871.4
595.542,870.9
596.075,872.2
596.607,870.7
597.14,871.7
597.673,869.9
598.205,872.3
598.738,873.1
599.27,874.5
599.803,874.7
600.335,872.8
600.867,874.8
601.399,874.3
601.931,876.8
602.463,876.6
602.995,875.2
603.527,875.2
604.058,877.1
604.59,876.8
605.122,875.4
605.653,870.6
606.184,871.6
606.716,872.9
607.247,871.9
607.778,875.9
608.309,871.6
608.84,875.7
609.371,872.4
609.902,873.8
610.433,873.5
610.964,878.9
611.494,876.5
612.025,872.2
612.556,872.2
613.086,873.0
613.616,873.5
614.147,869.2
614.677,870.5
615.207,870.2
615.737,869.9
616.267,868.9
616.797,871.4
617.327,874.9
617.857,875.6
618.387,875.6
618.917,875.5
619.446,872.5
619.976,875.0
620.505,874.1
621.035,875.0
621.564,884.9
622.093,899.7
622.623,895.2
623.152,879.7
623.681,875.3
624.21,871.4
624.739,872.5
625.268,872.9
625.797,879.4
626.326,902.1
626.855,1065.9
627.383,1425.2
627.912,1180.4
628.441,1302.8
628.969,1252.3
629.498,1160.8
630.026,1072.3
630.554,1057.5
631.083,953.4
631.611,893.2
632.139,878.8
632.667,871.8
633.195,867.3
633.724,865.4
634.252,865.0
634.779,861.4
635.307,862.4
635.835,861.3
636.363,863.1
636.891,861.9
637.418,859.7
637.946,859.5
638.474,858.8
639.001,857.5
639.529,859.8
640.056,861.0
640.583,859.6
641.111,860.6
641.638,861.4
642.165,859.5
642.692,860.7
643.22,860.7
643.747,861.3
644.274,861.4
644.801,860.6
645.328,859.1
645.854,861.2
646.381,859.6
646.908,859.7
647.435,859.9
647.962,859.3
648.488,859.6
649.015,858.4
649.542,855.0
650.068,857.2
650.595,858.8
651.121,854.3
651.648,855.7
652.174,854.6
652.7,853.7
653.227,854.7
653.753,853.6
654.279,855.0
654.805,854.3
655.331,854.4
655.858,852.6
656.384,853.1
656.91,854.2
657.436,855.1
657.962,853.0
658.488,854.5
659.013,855.2
659.539,855.3
660.065,854.2
660.591,854.8
661.117,851.1
661.642,851.8
662.168,851.8
662.694,852.4
663.088,850.9

File: VLFR_02-HDPE_nobio_Raman_fc904401.csv
nm,Intensity
526.5,829.7
527.047,828.6
527.594,828.8
528.14,828.5
528.687,830.0
529.233,829.7
529.779,827.5
530.325,829.2
530.871,828.0
531.417,828.7
531.962,836.6
532.508,831.0
533.053,828.9
533.599,828.0
534.144,846.0
534.689,844.6
535.234,843.4
535.778,839.1
536.323,840.1
536.867,839.2
537.412,839.1
537.956,836.9
538.5,838.8
539.044,838.2
539.588,837.8
540.132,838.0
540.675,838.7
541.219,838.3
541.762,836.1
542.305,837.6
542.848,839.0
543.391,838.1
543.934,835.9
544.477,838.9
545.02,836.6
545.562,836.8
546.105,838.0
546.647,839.2
547.189,840.5
547.731,837.2
548.273,837.5
548.815,838.3
549.356,837.4
549.898,840.9
550.439,837.4
550.981,838.9
551.522,840.0
552.063,839.7
552.604,838.3
553.145,838.8
553.686,838.8
554.226,840.3
554.767,838.6
555.307,840.1
555.848,840.3
556.388,838.6
556.928,839.4
557.468,842.7
558.008,840.7
558.547,839.9
559.087,839.6
559.626,839.1
560.166,840.2
560.705,840.5
561.244,839.8
561.783,838.8
562.322,840.8
562.861,841.8
563.4,844.0
563.939,856.2
564.477,845.1
565.015,843.3
565.554,843.1
566.092,856.6
566.63,843.2
567.168,844.2
567.706,844.9
568.244,843.7
568.781,844.7
569.319,843.5
569.857,845.7
570.394,846.3
570.931,847.4
571.468,872.4
572.005,851.8
572.542,848.5
573.079,847.8
573.616,847.6
574.153,851.9
574.689,850.2
575.226,854.2
575.762,859.5
576.298,881.0
576.834,868.6
577.371,863.9
577.907,859.2
578.442,857.5
578.978,863.4
579.514,862.9
580.049,864.8
580.585,864.5
581.12,865.2
581.656,871.5
582.191,873.9
582.726,877.8
583.261,880.8
583.796,884.1
584.331,885.8
584.865,889.7
585.4,892.3
585.935,896.1
586.469,898.2
587.004,902.6
587.538,906.9
588.072,907.6
588.606,914.2
589.14,921.9
589.674,918.2
590.208,924.5
590.742,931.1
591.275,930.1
591.809,934.8
592.342,936.2
592.876,936.1
593.409,938.7
593.942,944.7
594.476,945.6
595.009,950.3
595.542,950.9
596.075,953.9
596.607,956.9
597.14,958.2
597.673,961.7
598.205,967.5
598.738,970.7
599.27,969.8
599.803,973.2
600.335,973.2
600.867,975.9
601.399,974.7
601.931,973.6
602.463,975.2
602.995,974.6
603.527,966.3
604.058,968.9
604.59,962.7
605.122,962.0
605.653,956.1
606.184,954.5
606.716,948.9
607.247,949.8
607.778,948.4
608.309,942.3
608.84,941.7
609.371,942.0
609.902,933.9
610.433,930.4
610.964,931.0
611.494,930.1
612.025,927.8
612.556,928.4
613.086,925.1
613.616,923.6
614.147,921.0
614.677,918.9
615.207,919.4
615.737,912.4
616.267,914.2
616.797,913.3
617.327,912.7
617.857,912.4
618.387,910.0
618.917,910.8
619.446,908.7
619.976,903.3
620.505,904.6
621.035,903.8
621.564,907.2
622.093,912.0
622.623,909.8
623.152,903.3
623.681,900.3
624.21,899.1
624.739,898.5
625.268,900.4
625.797,901.4
626.326,906.2
626.855,960.5
627.383,1052.5
627.912,986.5
628.441,1043.0
628.969,987.5
629.498,963.5
630.026,940.6
630.554,940.9
631.083,913.5
631.611,900.3
632.139,896.9
632.667,898.3
633.195,896.6
633.724,898.4
634.252,892.3
634.779,897.1
635.307,900.3
635.835,897.7
636.363,897.9
636.891,896.6
637.418,900.0
637.946,902.3
638.474,899.8
639.001,898.3
639.529,898.4
640.056,900.3
640.583,904.1
641.111,899.1
641.638,903.4
642.165,904.0
642.692,907.3
643.22,905.1
643.747,901.3
644.274,903.4
644.801,906.3
645.328,903.9
645.854,902.7
646.381,908.8
646.908,904.5
647.435,905.7
647.962,905.2
648.488,905.6
649.015,906.5
649.542,902.5
650.068,901.8
650.595,906.6
651.121,904.4
651.648,899.9
652.174,905.4
652.7,905.6
653.227,905.3
653.753,905.8
654.279,904.0
654.805,902.3
655.331,903.0
655.858,903.4
656.384,903.7
656.91,905.3
657.436,899.2
657.962,896.6
658.488,899.0
659.013,898.4
659.539,895.7
660.065,895.4
660.591,896.9
661.117,889.5
661.642,886.9
662.168,886.7
662.694,885.7
663.088,886.7

File: VLFR_02-HDPE_nobio_Raman_fe1d40ad.csv
nm,Intensity
526.5,828.9
527.047,828.6
527.594,828.8
528.14,829.5
528.687,828.9
529.233,829.6
529.779,829.7
530.325,829.3
530.871,828.4
531.417,829.5
531.962,836.0
532.508,830.0
533.053,829.2
533.599,829.3
534.144,850.4
534.689,846.2
535.234,846.4
535.778,840.9
536.323,839.1
536.867,837.9
537.412,837.1
537.956,838.3
538.5,838.6
539.044,837.2
539.588,836.5
540.132,836.7
540.675,835.8
541.219,835.7
541.762,837.3
542.305,835.5
542.848,836.0
543.391,835.8
543.934,835.5
544.477,835.1
545.02,836.4
545.562,835.2
546.105,836.5
546.647,835.9
547.189,836.0
547.731,835.4
548.273,836.6
548.815,835.5
549.356,835.6
549.898,836.2
550.439,836.1
550.981,835.3
551.522,835.3
552.063,836.6
552.604,837.1
553.145,836.2
553.686,836.7
554.226,836.9
554.767,836.4
555.307,838.0
555.848,837.4
556.388,835.8
556.928,836.3
557.468,837.1
558.008,838.1
558.547,837.3
559.087,838.4
559.626,836.9
560.166,838.3
560.705,837.7
561.244,835.6
561.783,838.4
562.322,837.8
562.861,837.5
563.4,839.5
563.939,857.5
564.477,843.3
565.015,842.4
565.554,841.1
566.092,856.6
566.63,838.9
567.168,839.1
567.706,841.3
568.244,837.5
568.781,838.6
569.319,838.7
569.857,840.7
570.394,840.7
570.931,840.5
571.468,872.9
572.005,846.4
572.542,840.4
573.079,838.4
573.616,840.5
574.153,842.6
574.689,838.6
575.226,840.5
575.762,849.0
576.298,879.5
576.834,861.7
577.371,854.7
577.907,843.3
578.442,841.7
578.978,840.4
579.514,841.7
580.049,840.3
580.585,842.7
581.12,840.1
581.656,840.2
582.191,841.9
582.726,841.2
583.261,843.0
583.796,844.4
584.331,845.3
584.865,846.0
585.4,846.6
585.935,846.2
586.469,847.9
587.004,849.8
587.538,848.9
588.072,850.1
588.606,852.4
589.14,854.9
589.674,854.1
590.208,854.8
590.742,855.6
591.275,855.1
591.809,857.7
592.342,857.1
592.876,858.0
593.409,861.3
593.942,861.0
594.476,860.8
595.009,861.5
595.542,862.1
596.075,864.4
596.607,863.9
597.14,863.4
597.673,866.1
598.205,864.9
598.738,866.5
599.27,864.7
599.803,867.3
600.335,866.3
600.867,870.2
601.399,868.2
601.931,869.3
602.463,871.2
602.995,868.6
603.527,868.2
604.058,868.0
604.59,869.2
605.122,867.3
605.653,864.4
606.184,866.0
606.716,863.6
607.247,863.7
607.778,864.9
608.309,861.6
608.84,863.5
609.371,864.6
609.902,864.0
610.433,859.9
610.964,859.8
611.494,858.3
612.025,861.4
612.556,859.6
613.086,858.8
613.616,862.4
614.147,858.5
614.677,859.5
615.207,859.7
615.737,856.0
616.267,856.1
616.797,859.0
617.327,858.2
617.857,861.0
618.387,859.2
618.917,855.5
619.446,857.8
619.976,859.7
620.505,855.3
621.035,858.0
621.564,860.9
622.093,867.6
622.623,867.5
623.152,859.3
623.681,855.9
624.21,858.4
624.739,857.5
625.268,855.7
625.797,858.3
626.326,866.3
626.855,947.7
627.383,1073.3
627.912,982.6
628.441,1062.1
628.969,979.7
629.498,950.6
630.026,917.0
630.554,908.6
631.083,876.6
631.611,859.7
632.139,854.6
632.667,852.8
633.195,850.5
633.724,848.7
634.252,850.2
634.779,849.2
635.307,848.9
635.835,850.2
636.363,847.2
636.891,848.3
637.418,847.2
637.946,847.9
638.474,847.5
639.001,847.2
639.529,846.7
640.056,849.7
640.583,850.1
641.111,848.7
641.638,846.3
642.165,847.9
642.692,847.9
643.22,847.3
643.747,847.7
644.274,848.8
644.801,848.4
645.328,846.7
645.854,847.1
646.381,850.4
646.908,851.6
647.435,850.2
647.962,849.5
648.488,849.5
649.015,848.0
649.542,850.2
650.068,848.4
650.595,849.5
651.121,848.7
651.648,849.8
652.174,848.1
652.7,848.3
653.227,847.1
653.753,847.6
654.279,847.7
654.805,846.8
655.331,848.4
655.858,846.2
656.384,848.0
656.91,848.7
657.436,846.5
657.962,846.8
658.488,845.3
659.013,843.7
659.539,846.9
660.065,848.0
660.591,846.6
661.117,843.8
661.642,844.8
662.168,842.9
662.694,842.7
663.088,842.3

File: VLFR_02-HDPE_nobio_Raman_ff5fcf40.csv
nm,Intensity
526.547,832.5
527.094,832.4
527.641,833.1
528.188,831.9
528.734,831.5
529.281,832.0
529.827,832.4
530.373,832.8
530.92,832.6
531.466,831.5
532.011,841.3
532.557,832.6
533.103,832.7
533.648,833.6
534.193,926.6
534.738,916.5
535.283,905.8
535.828,897.8
536.373,892.7
536.917,887.0
537.462,887.7
538.006,887.7
538.55,888.3
539.094,886.5
539.638,881.4
540.182,881.0
540.726,878.5
541.269,880.0
541.812,879.4
542.356,880.6
542.899,880.5
543.442,881.2
543.985,880.1
544.527,881.2
545.07,879.4
545.612,877.0
546.155,882.8
546.697,883.6
547.239,880.7
547.781,883.4
548.323,880.6
548.865,882.5
549.406,885.1
549.948,886.3
550.489,886.7
551.03,887.0
551.572,884.7
552.113,887.1
552.654,889.6
553.194,891.2
553.735,892.3
554.276,891.0
554.816,894.4
555.356,892.7
555.896,895.9
556.437,899.7
556.977,902.5
557.516,904.5
558.056,906.4
558.596,909.2
559.135,910.6
559.675,912.9
560.214,920.2
560.753,915.7
561.292,918.1
561.831,920.6
562.37,927.2
562.909,936.4
563.448,941.9
563.986,1051.7
564.525,962.7
565.063,960.1
565.601,958.6
566.139,1165.6
566.677,972.8
567.215,965.8
567.753,971.4
568.291,975.3
568.828,980.7
569.366,992.1
569.903,998.3
570.441,1013.9
570.978,1028.9
571.515,1241.8
572.052,1069.5
572.589,1057.8
573.126,1070.9
573.662,1089.8
574.199,1112.6
574.735,1124.6
575.272,1179.6
575.808,1257.4
576.344,1352.0
576.88,1358.9
577.416,1374.6
577.952,1396.4
578.488,1460.5
579.024,1526.4
579.559,1582.7
580.095,1624.0
580.63,1675.2
581.166,1735.7
581.701,1773.3
582.236,1808.7
582.771,1861.2
583.306,1890.9
583.841,1919.1
584.376,1975.6
584.911,1977.4
585.445,2025.0
585.98,2048.8
586.514,2096.4
587.048,2132.1
587.583,2164.1
588.117,2197.4
588.651,2239.3
589.185,2264.3
589.719,2324.6
590.253,2371.8
590.786,2432.9
591.32,2478.4
591.853,2503.0
592.387,2523.1
592.92,2542.3
593.454,2553.5
593.987,2547.8
594.52,2569.0
595.053,2596.8
595.586,2583.8
596.119,2582.0
596.651,2592.1
597.184,2585.3
597.717,2586.8
598.249,2593.2
598.782,2591.2
599.314,2595.2
599.846,2587.1
600.379,2558.7
600.911,2543.6
601.443,2528.5
601.975,2502.0
602.507,2475.8
603.038,2447.6
603.57,2419.6
604.102,2362.3
604.633,2308.8
605.165,2236.7
605.696,2170.5
606.228,2131.6
606.759,2074.2
607.29,2019.4
607.821,2004.8
608.352,1962.7
608.883,1926.4
609.414,1897.5
609.945,1853.2
610.476,1815.0
611.006,1803.6
611.537,1754.3
612.067,1743.1
612.598,1733.6
613.128,1716.7
613.659,1699.5
614.189,1682.7
614.719,1670.0
615.249,1634.4
615.779,1620.8
616.309,1599.8
616.839,1583.0
617.369,1572.1
617.899,1559.3
618.428,1550.3
618.958,1524.0
619.487,1524.4
620.017,1522.1
620.546,1507.4
621.076,1490.7
621.605,1491.1
622.134,1509.9
622.663,1512.7
623.193,1479.7
623.722,1473.1
624.251,1469.1
624.78,1466.7
625.308,1476.3
625.837,1472.4
626.366,1507.2
626.895,1735.3
627.423,2073.7
627.952,1812.8
628.48,2094.7
629.009,1952.8
629.537,1823.2
630.065,1727.1
630.594,1705.6
631.122,1574.2
631.65,1534.2
632.178,1506.4
632.706,1513.7
633.234,1503.0
633.762,1519.6
634.29,1516.6
634.818,1523.3
635.346,1525.6
635.873,1525.4
636.401,1534.5
636.929,1529.3
637.456,1538.3
637.984,1539.8
638.511,1543.8
639.039,1549.7
639.566,1559.7
640.093,1569.4
640.62,1567.1
641.148,1573.9
641.675,1567.6
642.202,1581.3
642.729,1579.9
643.256,1583.3
643.783,1580.2
644.31,1577.7
644.837,1581.9
645.364,1581.7
645.891,1584.1
646.417,1572.1
646.944,1568.7
647.471,1577.7
647.997,1580.1
648.524,1555.6
649.051,1566.3
649.577,1553.7
650.104,1543.7
650.63,1540.1
651.157,1521.9
651.683,1525.9
652.209,1520.8
652.736,1514.4
653.262,1494.9
653.788,1502.8
654.314,1488.1
654.84,1488.2
655.366,1461.1
655.893,1461.9
656.419,1448.7
656.945,1433.3
657.471,1426.7
657.997,1413.8
658.522,1397.7
659.048,1378.3
659.574,1364.1
660.1,1360.0
660.626,1331.7
661.152,1310.2
661.677,1289.9
662.203,1278.5
662.729,1270.6
663.123,1249.2