Folder: MPX_specDB/spectra (part 146)

File: VLFR_08-PLA_nobio_Raman_5f3154cd.csv
nm,Intensity
526.486,828.4
527.033,828.5
527.579,828.4
528.126,829.7
528.672,829.1
529.219,828.9
529.765,829.3
530.311,828.9
530.857,828.0
531.403,828.2
531.948,835.1
532.494,832.9
533.039,830.5
533.585,828.7
534.13,890.4
534.675,876.8
535.22,870.1
535.764,862.5
536.309,860.7
536.854,863.7
537.398,862.0
537.942,861.0
538.486,859.2
539.03,858.8
539.574,855.8
540.118,856.6
540.662,859.9
541.205,859.8
541.749,859.4
542.292,856.8
542.835,857.8
543.378,861.7
543.921,865.1
544.464,863.9
545.006,858.4
545.549,860.9
546.091,857.3
546.634,860.1
547.176,862.2
547.718,859.1
548.26,860.1
548.802,861.5
549.343,860.7
549.885,859.9
550.426,858.1
550.968,863.9
551.509,864.2
552.05,863.5
552.591,866.3
553.132,864.3
553.673,861.9
554.214,865.5
554.754,865.2
555.295,861.7
555.835,863.3
556.375,865.4
556.915,864.3
557.455,869.8
557.995,894.3
558.535,874.6
559.075,867.2
559.614,867.5
560.154,863.5
560.693,865.9
561.232,864.5
561.772,864.1
562.311,866.7
562.85,870.8
563.388,877.5
563.927,872.9
564.466,869.9
565.004,876.8
565.543,874.6
566.081,882.8
566.619,874.8
567.157,869.1
567.695,870.9
568.233,871.8
568.771,873.8
569.309,869.6
569.846,870.9
570.384,868.7
570.921,870.9
571.458,874.4
571.995,875.2
572.532,876.8
573.069,877.1
573.606,877.5
574.143,875.5
574.68,880.5
575.216,873.6
575.753,876.2
576.289,876.0
576.825,891.8
577.361,882.3
577.897,874.7
578.433,873.0
578.969,875.8
579.505,872.8
580.041,873.4
580.576,872.8
581.112,875.0
581.647,874.7
582.183,878.0
582.718,874.0
583.253,877.9
583.788,876.2
584.323,879.7
584.858,878.6
585.392,877.8
585.927,876.9
586.462,881.9
586.996,889.0
587.53,895.8
588.065,883.2
588.599,878.9
589.133,878.1
589.667,876.9
590.201,877.4
590.735,878.2
591.268,878.2
591.802,876.7
592.335,876.7
592.869,876.2
593.402,873.4
593.936,875.3
594.469,873.2
595.002,879.3
595.535,878.6
596.068,877.0
596.601,879.9
597.133,878.6
597.666,877.3
598.199,877.7
598.731,877.8
599.264,875.8
599.796,875.5
600.328,878.0
600.86,878.7
601.393,876.4
601.925,878.9
602.457,878.1
602.988,877.5
603.52,877.4
604.052,876.4
604.583,874.7
605.115,877.3
605.646,873.7
606.178,876.7
606.709,877.1
607.24,874.0
607.771,872.3
608.302,877.7
608.833,873.7
609.364,875.2
609.895,876.0
610.426,876.6
610.957,875.1
611.487,872.9
612.018,876.6
612.548,874.5
613.078,875.0
613.609,877.2
614.139,877.3
614.669,876.7
615.199,877.7
615.729,875.3
616.259,877.3
616.789,876.5
617.319,877.8
617.849,875.2
618.378,877.0
618.908,876.8
619.437,878.1
619.967,872.0
620.496,875.3
621.025,874.1
621.555,874.6
622.084,874.8
622.613,877.9
623.142,878.2
623.671,878.7
624.2,876.3
624.729,874.3
625.258,877.6
625.786,876.9
626.315,879.7
626.844,880.1
627.372,876.5
627.901,880.1
628.429,893.3
628.957,896.2
629.486,893.3
630.014,894.5
630.542,905.2
631.07,1001.0
631.598,942.5
632.126,911.3
632.654,904.2
633.182,926.4
633.71,918.4
634.237,893.4
634.765,879.7
635.293,873.5
635.82,874.0
636.348,872.8
636.875,869.8
637.403,870.3
637.93,870.8
638.458,870.1
638.985,869.4
639.512,870.3
640.039,868.2
640.566,871.3
641.093,869.6
641.62,870.5
642.147,870.8
642.674,868.7
643.201,867.3
643.728,867.6
644.255,867.3
644.781,867.3
645.308,866.5
645.835,868.4
646.361,868.9
646.888,865.4
647.414,866.8
647.941,866.2
648.467,866.4
648.993,867.3
649.52,864.9
650.046,867.4
650.572,863.9
651.098,867.3
651.625,864.7
652.151,868.5
652.677,864.8
653.203,863.8
653.729,865.2
654.255,864.2
654.78,865.5
655.306,863.8
655.832,864.9
656.358,862.6
656.884,863.2
657.409,864.3
657.935,866.0
658.461,864.7
658.986,863.7
659.512,863.8
660.037,863.1
660.563,862.3
661.088,862.3
661.614,861.3
662.139,858.7
662.664,861.1
663.058,859.6

File: VLFR_08-PLA_nobio_Raman_6d6c95d3.csv
nm,Intensity
526.532,832.05
527.079,833.15
527.625,833.4
528.172,833.4
528.718,833.75
529.265,832.55
529.811,833.0
530.357,832.85
530.903,833.45
531.449,832.05
531.994,845.3
532.54,832.85
533.085,832.65
533.63,838.4
534.176,1114.1
534.721,1055.85
535.266,1016.8
535.81,993.3
536.355,986.6
536.9,983.45
537.444,974.95
537.988,975.1
538.533,960.8
539.077,957.7
539.621,954.9
540.165,949.7
540.708,972.1
541.252,972.85
541.795,962.45
542.339,956.85
542.882,962.65
543.425,992.1
543.968,1000.45
544.511,970.05
545.054,961.7
545.597,956.05
546.139,957.6
546.682,956.6
547.224,963.5
547.766,962.55
548.308,965.15
548.85,965.25
549.392,968.05
549.934,967.4
550.475,966.9
551.017,974.6
551.558,976.95
552.1,980.65
552.641,983.6
553.182,985.35
553.723,983.25
554.264,989.15
554.804,981.9
555.345,977.7
555.885,973.4
556.426,974.15
556.966,979.0
557.506,1000.05
558.046,1160.1
558.586,1012.15
559.126,991.8
559.665,994.7
560.205,992.2
560.745,986.6
561.284,984.9
561.823,981.3
562.362,984.8
562.901,999.05
563.44,1039.05
563.979,1009.8
564.518,1005.2
565.056,1031.5
565.595,1025.8
566.133,1060.15
566.671,1018.25
567.21,999.4
567.748,1005.75
568.285,1004.55
568.823,1007.4
569.361,1008.55
569.899,1007.45
570.436,1007.45
570.974,1010.45
571.511,1033.65
572.048,1030.85
572.585,1024.15
573.122,1028.8
573.659,1030.0
574.196,1028.85
574.733,1038.75
575.269,1014.35
575.806,1012.8
576.342,1043.2
576.878,1106.3
577.414,1038.5
577.951,1017.85
578.486,1016.65
579.022,1019.9
579.558,1016.1
580.094,1018.75
580.629,1018.0
581.165,1016.9
581.7,1015.1
582.236,1018.5
582.771,1017.2
583.306,1021.65
583.841,1023.15
584.376,1021.75
584.911,1018.8
585.445,1027.8
585.98,1025.15
586.514,1043.65
587.049,1085.35
587.583,1116.2
588.117,1048.45
588.651,1028.9
589.186,1026.25
589.72,1024.85
590.253,1020.6
590.787,1026.7
591.321,1026.7
591.854,1024.45
592.388,1023.9
592.921,1021.55
593.455,1020.5
593.988,1020.75
594.521,1018.75
595.054,1022.25
595.587,1018.35
596.12,1026.85
596.653,1024.4
597.186,1022.1
597.718,1021.05
598.251,1021.05
598.783,1022.5
599.316,1024.8
599.848,1021.6
600.38,1023.95
600.912,1022.5
601.444,1017.75
601.976,1023.25
602.508,1021.3
603.04,1022.55
603.572,1020.65
604.103,1017.9
604.635,1014.6
605.167,1016.95
605.698,1009.7
606.229,1012.7
606.761,1013.65
607.292,1008.95
607.823,1012.5
608.354,1012.35
608.885,1010.75
609.416,1013.35
609.947,1013.55
610.477,1009.85
611.008,1012.15
611.539,1012.7
612.069,1014.1
612.6,1016.6
613.13,1014.65
613.66,1015.9
614.19,1018.4
614.721,1018.1
615.251,1015.45
615.781,1017.7
616.311,1011.85
616.841,1013.75
617.37,1016.5
617.9,1017.75
618.43,1012.5
618.96,1010.95
619.489,1011.95
620.019,1012.6
620.548,1011.75
621.077,1009.7
621.607,1009.3
622.136,1013.25
622.665,1024.2
623.194,1029.35
623.723,1020.55
624.252,1018.7
624.781,1010.15
625.31,1013.4
625.839,1011.4
626.368,1008.4
626.896,1009.75
627.425,1012.75
627.953,1023.1
628.482,1110.4
629.01,1079.2
629.539,1086.35
630.067,1092.65
630.596,1186.45
631.124,1654.15
631.652,1292.25
632.18,1162.4
632.708,1143.15
633.236,1256.75
633.764,1195.65
634.292,1079.9
634.82,1025.5
635.348,1005.6
635.876,1004.15
636.403,998.8
636.931,999.6
637.459,992.85
637.986,993.1
638.514,992.65
639.041,991.3
639.568,993.05
640.096,991.95
640.623,988.95
641.15,993.85
641.678,991.85
642.205,991.75
642.732,989.05
643.259,986.9
643.786,982.7
644.313,981.9
644.84,977.45
645.367,977.0
645.894,975.5
646.421,977.9
646.948,975.55
647.474,973.5
648.001,974.3
648.528,972.9
649.054,970.8
649.581,973.35
650.108,973.15
650.634,969.45
651.161,968.2
651.687,969.8
652.214,966.55
652.74,966.75
653.266,968.35
653.793,965.9
654.319,965.05
654.845,966.3
655.371,961.75
655.897,960.75
656.424,966.5
656.95,963.3
657.476,963.3
658.002,965.2
658.528,961.9
659.054,961.95
659.58,960.85
660.106,962.25
660.631,962.15
661.157,957.1
661.683,958.8
662.209,956.1
662.735,958.05
663.129,953.25

File: VLFR_08-PLA_nobio_Raman_7a13d99b.csv
nm,Intensity
526.5,828.6
527.047,829.2
527.594,827.4
528.14,827.5
528.687,829.5
529.233,827.9
529.779,827.7
530.325,829.0
530.871,828.7
531.417,829.1
531.962,829.9
532.508,829.0
533.053,827.6
533.599,830.2
534.144,1019.2
534.689,970.4
535.234,942.9
535.778,925.3
536.323,912.4
536.867,916.7
537.412,893.9
537.956,899.0
538.5,889.4
539.044,884.2
539.588,879.8
540.132,875.0
540.675,899.8
541.219,896.0
541.762,882.5
542.305,879.6
542.848,884.0
543.391,905.5
543.934,929.4
544.477,889.0
545.02,876.2
545.562,874.7
546.105,868.6
546.647,874.1
547.189,877.9
547.731,874.3
548.273,874.5
548.815,874.9
549.356,879.0
549.898,876.7
550.439,878.7
550.981,882.6
551.522,880.9
552.063,887.1
552.604,887.3
553.145,893.1
553.686,888.8
554.226,891.6
554.767,883.2
555.307,880.8
555.848,875.9
556.388,878.4
556.928,877.6
557.468,894.0
558.008,1000.9
558.547,911.0
559.087,892.9
559.626,892.9
560.166,884.5
560.705,884.4
561.244,882.8
561.783,880.3
562.322,882.1
562.861,889.1
563.4,926.7
563.939,901.8
564.477,892.5
565.015,918.1
565.554,908.3
566.092,946.2
566.63,906.2
567.168,889.6
567.706,896.2
568.244,892.8
568.781,894.8
569.319,896.0
569.857,891.8
570.394,890.0
570.931,891.3
571.468,920.1
572.005,912.0
572.542,898.7
573.079,902.2
573.616,906.4
574.153,906.2
574.689,920.9
575.226,891.9
575.762,894.8
576.298,910.1
576.834,973.1
577.371,914.7
577.907,895.3
578.442,890.9
578.978,892.2
579.514,893.8
580.049,890.3
580.585,891.4
581.12,888.7
581.656,897.2
582.191,892.6
582.726,894.7
583.261,897.4
583.796,895.6
584.331,892.9
584.865,894.0
585.4,894.1
585.935,896.6
586.469,907.8
587.004,938.4
587.538,977.4
588.072,918.7
588.606,896.3
589.14,895.5
589.674,897.4
590.208,892.7
590.742,892.1
591.275,892.6
591.809,897.0
592.342,893.7
592.876,893.5
593.409,895.5
593.942,892.5
594.476,894.4
595.009,893.5
595.542,894.9
596.075,893.0
596.607,895.4
597.14,891.1
597.673,893.3
598.205,896.4
598.738,893.1
599.27,892.6
599.803,892.8
600.335,896.5
600.867,892.5
601.399,891.5
601.931,896.6
602.463,898.1
602.995,895.1
603.527,893.2
604.058,889.1
604.59,892.4
605.122,891.2
605.653,891.4
606.184,888.4
606.716,892.5
607.247,891.9
607.778,892.7
608.309,890.5
608.84,892.1
609.371,891.7
609.902,893.2
610.433,890.8
610.964,887.7
611.494,889.8
612.025,888.8
612.556,888.5
613.086,892.6
613.616,891.2
614.147,891.0
614.677,893.5
615.207,888.3
615.737,892.8
616.267,896.5
616.797,891.7
617.327,894.1
617.857,890.5
618.387,891.9
618.917,890.1
619.446,888.5
619.976,890.5
620.505,888.0
621.035,890.4
621.564,898.2
622.093,894.8
622.623,900.3
623.152,904.5
623.681,901.3
624.21,898.3
624.739,891.5
625.268,892.2
625.797,890.2
626.326,895.8
626.855,892.9
627.383,896.1
627.912,905.0
628.441,972.5
628.969,960.5
629.498,962.3
630.026,962.6
630.554,1018.9
631.083,1439.5
631.611,1203.6
632.139,1038.2
632.667,1000.3
633.195,1095.9
633.724,1068.0
634.252,964.9
634.779,914.6
635.307,898.0
635.835,893.2
636.363,890.2
636.891,889.9
637.418,887.6
637.946,883.9
638.474,886.0
639.001,885.3
639.529,884.6
640.056,882.7
640.583,885.1
641.111,886.0
641.638,886.1
642.165,885.8
642.692,885.6
643.22,881.5
643.747,880.5
644.274,881.0
644.801,877.2
645.328,877.8
645.854,875.5
646.381,878.3
646.908,875.2
647.435,877.9
647.962,877.6
648.488,878.8
649.015,879.0
649.542,875.7
650.068,874.8
650.595,873.6
651.121,873.5
651.648,871.9
652.174,875.1
652.7,874.7
653.227,874.8
653.753,874.4
654.279,872.4
654.805,874.5
655.331,875.9
655.858,873.9
656.384,876.6
656.91,875.7
657.436,873.0
657.962,873.6
658.488,873.3
659.013,874.8
659.539,871.5
660.065,874.0
660.591,872.8
661.117,871.5
661.642,870.6
662.168,870.8
662.694,871.0
663.088,867.3

File: VLFR_08-PLA_nobio_Raman_7ad56e36.csv
cm-1,Intensity
-123.878,1852.85
-105.821,1851.8
-87.8007,1853.45
-69.8161,1853.9
-51.8675,1853.5
-33.9547,1854.4
-16.0776,1888.8
1.76388,3375.05
19.5698,1855.85
37.3403,1856.7
55.0755,2134.35
72.7754,2713.95
90.4402,2609.1
108.07,2526.05
125.665,2467.1
143.225,2439.45
160.75,2467.1
178.241,2422.7
195.697,2453.95
213.119,2398.9
230.506,2385.1
247.859,2393.2
265.178,2343.25
282.463,2395.9
299.713,2435.5
316.93,2446.0
334.113,2405.6
351.263,2404.9
368.379,2424.9
385.461,2505.55
402.51,2580.15
419.526,2505.15
436.508,2443.15
453.458,2444.4
470.374,2421.1
487.257,2438.0
504.107,2462.1
520.925,2454.6
537.71,2482.65
554.462,2494.95
571.182,2506.65
587.87,2509.5
604.525,2515.95
621.148,2535.15
637.739,2550.8
654.297,2558.6
670.824,2571.45
687.319,2583.55
703.782,2578.25
720.213,2567.35
736.613,2653.3
752.981,2597.15
769.317,2600.25
785.623,2573.35
801.897,2584.15
818.139,2564.7
834.351,2582.9
850.532,2687.55
866.681,3141.75
882.8,2943.35
898.888,2685.1
914.945,2693.75
930.972,2673.25
946.968,2645.75
962.934,2646.2
978.869,2626.65
994.774,2645.35
1010.65,2659.9
1026.49,2740.55
1042.31,2868.1
1058.09,2770.55
1073.85,2727.6
1089.57,2863.7
1105.27,2828.65
1120.93,2934.2
1136.57,2908.6
1152.18,2744.2
1167.75,2739.25
1183.3,2799.75
1198.82,2789.8
1214.31,2788.1
1229.77,2783.45
1245.2,2785.0
1260.6,2804.15
1275.97,2795.8
1291.32,2912.1
1306.63,2938.05
1321.92,2868.6
1337.18,2894.8
1352.41,2923.8
1367.61,2860.7
1382.78,2960.05
1397.93,2865.45
1413.05,2834.45
1428.14,2863.6
1443.2,3074.4
1458.23,3232.8
1473.23,2922.3
1488.21,2847.0
1503.16,2814.3
1518.08,2824.5
1532.97,2817.2
1547.84,2815.85
1562.68,2832.75
1577.49,2834.75
1592.27,2835.0
1607.03,2834.6
1621.76,2829.7
1636.46,2843.1
1651.14,2824.6
1665.78,2843.35
1680.41,2815.25
1695.0,2830.45
1709.57,2802.8
1724.11,2858.2
1738.62,2862.55
1753.11,3073.5
1767.57,3183.15
1782.01,3025.2
1796.41,2862.35
1810.8,2823.6
1825.15,2799.1
1839.48,2831.5
1853.79,2812.4
1868.06,2811.85
1882.31,2800.8
1896.54,2806.75
1910.74,2844.05
1924.91,2819.95
1939.06,2784.25
1953.19,2803.95
1967.28,2788.15
1981.35,2809.6
1995.4,2796.7
2009.42,2826.6
2023.42,2831.7
2037.39,2807.45
2051.33,2795.5
2065.25,2804.8
2079.15,2816.55
2093.01,2807.7
2106.86,2818.2
2120.68,2804.85
2134.47,2813.75
2148.24,2803.25
2161.99,2810.5
2175.71,2818.05
2189.41,2799.4
2203.08,2826.05
2216.73,2813.05
2230.35,2800.0
2243.95,2809.7
2257.52,2819.05
2271.07,2791.85
2284.6,2798.65
2298.1,2805.1
2311.58,2823.35
2325.03,2800.25
2338.46,2823.0
2351.87,2798.7
2365.25,2810.5
2378.61,2808.8
2391.94,2807.3
2405.26,2816.4
2418.54,2833.55
2431.81,2806.3
2445.05,2784.3
2458.27,2803.5
2471.46,2768.95
2484.63,2812.25
2497.78,2792.55
2510.9,2792.5
2524.0,2793.85
2537.08,2805.15
2550.14,2800.85
2563.17,2790.15
2576.18,2789.55
2589.17,2789.0
2602.13,2778.15
2615.07,2772.7
2627.99,2773.2
2640.89,2784.8
2653.76,2766.65
2666.61,2749.05
2679.44,2764.65
2692.25,2775.35
2705.03,2772.55
2717.79,2779.1
2730.53,2807.1
2743.25,2843.9
2755.94,2793.05
2768.61,2750.5
2781.27,2744.5
2793.89,2748.3
2806.5,2729.65
2819.09,2714.95
2831.65,2723.25
2844.19,2728.5
2856.71,2772.55
2869.21,2850.85
2881.69,3197.2
2894.14,3056.6
2906.58,3073.45
2918.99,3110.45
2931.38,3485.7
2943.75,5357.7
2956.1,4419.9
2968.42,3454.6
2980.73,3250.4
2993.01,3561.8
3005.28,3713.1
3017.52,3286.05
3029.74,2900.2
3041.94,2729.65
3054.12,2653.6
3066.28,2628.6
3078.42,2644.0
3090.54,2604.45
3102.63,2591.6
3114.71,2584.55
3126.77,2584.75
3138.8,2557.3
3150.82,2583.25
3162.81,2576.2
3174.78,2556.75
3186.74,2557.3
3198.67,2537.45
3210.58,2551.75
3222.47,2532.3
3234.35,2515.3
3246.2,2501.9
3258.03,2484.55
3269.84,2477.45
3281.64,2491.0
3293.41,2477.35
3305.16,2482.45
3316.89,2439.15
3328.61,2415.95
3340.3,2434.35
3351.97,2434.4
3363.63,2421.8
3375.26,2417.45
3386.88,2406.65
3398.47,2407.4
3410.05,2399.05
3421.6,2380.15
3433.14,2414.85
3444.66,2382.8
3456.15,2373.7
3467.63,2364.85
3479.09,2378.6
3490.53,2336.7
3501.96,2344.8
3513.36,2358.9
3524.74,2340.45
3536.11,2340.65
3547.45,2320.3
3558.78,2317.8
3570.09,2309.1
3581.37,2308.75
3592.64,2320.95
3603.9,2290.9
3615.13,2270.8
3626.34,2260.65
3637.54,2276.65
3648.72,2258.85
3659.87,2256.55
3665.45,2267.3

File: VLFR_08-PLA_nobio_Raman_7c863afe.csv
nm,Intensity
526.486,829.7
527.033,830.0
527.579,829.7
528.126,829.7
528.672,829.0
529.219,829.3
529.765,829.1
530.311,828.4
530.857,828.1
531.403,829.3
531.948,832.2
532.494,830.7
533.039,829.7
533.585,831.8
534.13,1031.6
534.675,982.6
535.22,943.7
535.764,916.6
536.309,908.7
536.854,910.8
537.398,899.6
537.942,902.0
538.486,886.3
539.03,884.6
539.574,880.3
540.118,871.6
540.662,888.7
541.205,890.6
541.749,881.2
542.292,872.6
542.835,877.3
543.378,897.0
543.921,908.2
544.464,885.4
545.006,875.3
545.549,866.7
546.091,867.1
546.634,866.6
547.176,869.3
547.718,865.9
548.26,870.4
548.802,869.7
549.343,869.5
549.885,870.4
550.426,871.2
550.968,873.5
551.509,875.9
552.05,878.1
552.591,880.0
553.132,876.7
553.673,874.9
554.214,885.6
554.754,875.7
555.295,870.8
555.835,866.8
556.375,867.8
556.915,870.8
557.455,888.6
557.995,1004.5
558.535,911.6
559.075,882.9
559.614,885.1
560.154,875.6
560.693,873.4
561.232,873.1
561.772,867.4
562.311,872.8
562.85,883.0
563.388,915.0
563.927,896.5
564.466,881.8
565.004,905.0
565.543,899.3
566.081,931.7
566.619,901.8
567.157,876.9
567.695,882.8
568.233,884.8
568.771,886.3
569.309,884.1
569.846,876.7
570.384,880.0
570.921,886.7
571.458,897.8
571.995,903.5
572.532,896.3
573.069,896.3
573.606,897.7
574.143,890.4
574.68,907.8
575.216,881.7
575.753,883.3
576.289,902.2
576.825,972.5
577.361,905.4
577.897,886.1
578.433,880.9
578.969,880.1
579.505,880.0
580.041,881.0
580.576,882.0
581.112,881.0
581.647,880.9
582.183,883.1
582.718,884.8
583.253,885.0
583.788,883.1
584.323,884.5
584.858,885.7
585.392,884.9
585.927,884.1
586.462,896.1
586.996,936.8
587.53,961.5
588.065,915.8
588.599,889.0
589.133,887.8
589.667,884.1
590.201,883.4
590.735,882.1
591.268,882.4
591.802,883.7
592.335,881.6
592.869,879.8
593.402,883.6
593.936,882.7
594.469,880.6
595.002,883.1
595.535,883.0
596.068,882.4
596.601,884.0
597.133,882.5
597.666,882.5
598.199,882.3
598.731,879.9
599.264,884.3
599.796,882.3
600.328,884.6
600.86,881.7
601.393,881.3
601.925,881.2
602.457,882.2
602.988,884.4
603.52,881.0
604.052,883.8
604.583,884.3
605.115,880.1
605.646,882.5
606.178,882.8
606.709,884.4
607.24,880.0
607.771,882.8
608.302,882.9
608.833,883.3
609.364,881.5
609.895,884.2
610.426,883.2
610.957,883.6
611.487,885.6
612.018,886.0
612.548,883.0
613.078,882.2
613.609,883.1
614.139,885.2
614.669,883.7
615.199,888.0
615.729,887.3
616.259,886.4
616.789,889.3
617.319,886.3
617.849,888.5
618.378,884.7
618.908,886.0
619.437,888.3
619.967,890.6
620.496,884.6
621.025,886.3
621.555,888.7
622.084,889.0
622.613,899.8
623.142,901.4
623.671,896.5
624.2,894.3
624.729,889.9
625.258,887.7
625.786,888.4
626.315,890.0
626.844,890.4
627.372,890.1
627.901,900.2
628.429,969.1
628.957,965.0
629.486,961.4
630.014,960.9
630.542,1025.2
631.07,1452.9
631.598,1204.7
632.126,1033.2
632.654,1011.1
633.182,1114.5
633.71,1075.3
634.237,968.2
634.765,913.5
635.293,897.0
635.82,891.5
636.348,888.3
636.875,883.1
637.403,883.0
637.93,882.9
638.458,879.6
638.985,882.6
639.512,884.2
640.039,880.2
640.566,878.7
641.093,881.8
641.62,884.8
642.147,879.9
642.674,881.9
643.201,878.4
643.728,879.7
644.255,878.4
644.781,876.2
645.308,879.7
645.835,876.6
646.361,876.3
646.888,872.5
647.414,875.8
647.941,874.5
648.467,877.1
648.993,872.8
649.52,873.8
650.046,872.6
650.572,874.2
651.098,873.7
651.625,877.3
652.151,874.5
652.677,872.4
653.203,871.8
653.729,872.9
654.255,870.3
654.78,872.5
655.306,872.3
655.832,871.5
656.358,873.0
656.884,874.6
657.409,870.4
657.935,870.4
658.461,871.3
658.986,869.3
659.512,872.2
660.037,873.0
660.563,871.9
661.088,868.0
661.614,870.4
662.139,868.9
662.664,868.0
663.058,869.1

File: VLFR_08-PLA_nobio_Raman_7cffaca2.csv
nm,Intensity
526.5,829.1
527.047,828.2
527.594,829.4
528.14,830.0
528.687,829.7
529.233,829.5
529.779,831.4
530.325,828.7
530.871,828.5
531.417,828.1
531.962,834.6
532.508,829.6
533.053,829.3
533.599,830.8
534.144,1015.5
534.689,996.3
535.234,970.0
535.778,964.3
536.323,962.0
536.867,962.9
537.412,960.8
537.956,958.2
538.5,956.9
539.044,953.9
539.588,957.5
540.132,951.8
540.675,963.1
541.219,969.7
541.762,962.5
542.305,963.3
542.848,965.8
543.391,981.1
543.934,991.9
544.477,977.6
545.02,970.9
545.562,972.6
546.105,970.4
546.647,979.9
547.189,977.8
547.731,974.8
548.273,981.3
548.815,987.6
549.356,990.3
549.898,986.2
550.439,985.3
550.981,994.5
551.522,989.8
552.063,994.1
552.604,998.5
553.145,999.5
553.686,1000.2
554.226,1005.7
554.767,1000.5
555.307,1005.5
555.848,998.5
556.388,1006.0
556.928,1000.5
557.468,1010.9
558.008,1085.1
558.547,1021.2
559.087,1013.8
559.626,1016.0
560.166,1014.7
560.705,1015.1
561.244,1010.3
561.783,1009.1
562.322,1010.8
562.861,1020.0
563.4,1044.6
563.939,1027.7
564.477,1028.6
565.015,1044.4
565.554,1033.0
566.092,1056.5
566.63,1039.8
567.168,1027.8
567.706,1029.9
568.244,1031.6
568.781,1032.7
569.319,1034.6
569.857,1041.8
570.394,1036.2
570.931,1039.4
571.468,1044.2
572.005,1044.8
572.542,1051.7
573.079,1054.3
573.616,1057.0
574.153,1052.4
574.689,1061.6
575.226,1047.9
575.762,1044.1
576.298,1062.1
576.834,1092.1
577.371,1063.7
577.907,1049.9
578.442,1050.4
578.978,1049.0
579.514,1050.8
580.049,1050.1
580.585,1050.5
581.12,1052.8
581.656,1057.4
582.191,1050.6
582.726,1053.3
583.261,1060.5
583.796,1057.5
584.331,1056.3
584.865,1061.9
585.4,1063.5
585.935,1058.4
586.469,1064.8
587.004,1095.8
587.538,1107.8
588.072,1068.0
588.606,1062.6
589.14,1057.6
589.674,1065.5
590.208,1059.9
590.742,1062.5
591.275,1062.5
591.809,1058.5
592.342,1062.9
592.876,1058.4
593.409,1053.5
593.942,1059.7
594.476,1061.1
595.009,1065.8
595.542,1055.7
596.075,1063.0
596.607,1063.0
597.14,1062.3
597.673,1059.2
598.205,1062.8
598.738,1065.7
599.27,1063.7
599.803,1056.9
600.335,1063.4
600.867,1058.7
601.399,1057.3
601.931,1060.1
602.463,1063.4
602.995,1058.4
603.527,1055.2
604.058,1057.9
604.59,1056.7
605.122,1051.1
605.653,1055.3
606.184,1050.3
606.716,1045.8
607.247,1049.4
607.778,1052.4
608.309,1054.8
608.84,1052.1
609.371,1053.8
609.902,1047.3
610.433,1053.1
610.964,1046.3
611.494,1048.4
612.025,1048.3
612.556,1053.0
613.086,1055.9
613.616,1053.1
614.147,1057.1
614.677,1054.8
615.207,1058.6
615.737,1056.5
616.267,1051.8
616.797,1054.6
617.327,1056.1
617.857,1051.0
618.387,1052.9
618.917,1051.8
619.446,1052.8
619.976,1050.9
620.505,1048.5
621.035,1047.6
621.564,1049.3
622.093,1055.7
622.623,1053.0
623.152,1059.7
623.681,1058.1
624.21,1055.5
624.739,1053.1
625.268,1046.7
625.797,1043.3
626.326,1045.7
626.855,1048.4
627.383,1050.1
627.912,1050.4
628.441,1097.5
628.969,1084.6
629.498,1084.1
630.026,1098.9
630.554,1133.9
631.083,1409.3
631.611,1222.5
632.139,1132.8
632.667,1123.5
633.195,1180.5
633.724,1162.6
634.252,1089.9
634.779,1050.2
635.307,1036.9
635.835,1038.5
636.363,1033.9
636.891,1035.4
637.418,1033.0
637.946,1028.7
638.474,1027.3
639.001,1035.4
639.529,1027.9
640.056,1030.5
640.583,1026.8
641.111,1029.6
641.638,1022.8
642.165,1029.6
642.692,1019.5
643.22,1017.0
643.747,1021.6
644.274,1013.6
644.801,1010.5
645.328,1015.8
645.854,1015.0
646.381,1008.2
646.908,1013.0
647.435,1008.3
647.962,1008.7
648.488,1009.1
649.015,1005.3
649.542,1004.2
650.068,1001.7
650.595,1000.3
651.121,1001.2
651.648,997.9
652.174,1002.2
652.7,994.1
653.227,1000.6
653.753,998.4
654.279,996.0
654.805,993.8
655.331,994.4
655.858,991.6
656.384,995.5
656.91,997.3
657.436,991.2
657.962,991.3
658.488,993.6
659.013,987.8
659.539,990.7
660.065,987.6
660.591,984.4
661.117,987.8
661.642,983.1
662.168,979.7
662.694,982.9
663.088,983.5