Folder: MPX_specDB/spectra (part 136)

File: VLFR_08-PLA_bio_Raman_a9f3b669.csv
nm,Intensity
526.532,834.3
527.079,832.7
527.625,833.6
528.172,833.55
528.718,833.15
529.265,833.2
529.811,833.2
530.357,832.85
530.903,833.5
531.449,832.95
531.994,840.9
532.54,833.6
533.085,833.55
533.63,834.05
534.176,930.65
534.721,921.3
535.266,916.35
535.81,913.3
536.355,915.45
536.9,915.85
537.444,916.6
537.988,917.6
538.533,915.95
539.077,919.5
539.621,920.0
540.165,919.7
540.708,923.2
541.252,921.8
541.795,926.5
542.339,924.5
542.882,926.8
543.425,933.9
543.968,932.7
544.511,933.1
545.054,934.1
545.597,932.45
546.139,931.45
546.682,935.85
547.224,936.5
547.766,936.1
548.308,937.8
548.85,942.25
549.392,939.8
549.934,943.8
550.475,941.0
551.017,942.7
551.558,947.3
552.1,949.05
552.641,950.55
553.182,949.4
553.723,949.55
554.264,952.7
554.804,954.8
555.345,952.25
555.885,950.6
556.426,952.25
556.966,954.0
557.506,959.25
558.046,983.9
558.586,959.9
559.126,961.2
559.665,960.4
560.205,960.35
560.745,959.8
561.284,961.85
561.823,957.3
562.362,961.85
562.901,963.4
563.44,972.85
563.979,971.5
564.518,970.35
565.056,976.6
565.595,973.75
566.133,983.6
566.671,974.15
567.21,973.7
567.748,969.75
568.285,975.25
568.823,975.05
569.361,974.75
569.899,973.55
570.436,977.8
570.974,979.95
571.511,979.45
572.048,983.9
572.585,985.2
573.122,983.0
573.659,985.4
574.196,983.7
574.733,986.25
575.269,979.4
575.806,986.05
576.342,986.2
576.878,1001.35
577.414,990.6
577.951,988.3
578.486,987.85
579.022,987.9
579.558,985.45
580.094,987.6
580.629,991.9
581.165,986.4
581.7,990.15
582.236,989.75
582.771,988.05
583.306,990.2
583.841,992.5
584.376,994.6
584.911,994.45
585.445,992.25
585.98,994.55
586.514,1000.15
587.049,1006.75
587.583,1009.0
588.117,1000.6
588.651,993.95
589.186,996.1
589.72,995.6
590.253,992.1
590.787,993.8
591.321,992.75
591.854,989.0
592.388,992.45
592.921,994.65
593.455,991.85
593.988,990.45
594.521,991.65
595.054,994.15
595.587,993.8
596.12,995.0
596.653,995.05
597.186,992.6
597.718,994.8
598.251,993.55
598.783,998.15
599.316,994.3
599.848,995.95
600.38,990.75
600.912,992.15
601.444,994.2
601.976,993.75
602.508,988.45
603.04,990.3
603.572,992.7
604.103,990.9
604.635,988.15
605.167,985.65
605.698,984.4
606.229,985.5
606.761,982.5
607.292,983.4
607.823,983.3
608.354,985.7
608.885,983.75
609.416,984.05
609.947,983.05
610.477,980.65
611.008,982.25
611.539,986.5
612.069,985.7
612.6,984.85
613.13,984.25
613.66,986.7
614.19,985.4
614.721,982.75
615.251,984.7
615.781,982.65
616.311,985.35
616.841,983.2
617.37,983.35
617.9,985.45
618.43,982.75
618.96,982.4
619.489,982.35
620.019,979.1
620.548,978.35
621.077,982.3
621.607,980.65
622.136,979.7
622.665,981.25
623.194,982.5
623.723,979.55
624.252,979.4
624.781,980.35
625.31,979.4
625.839,977.05
626.368,978.9
626.896,975.55
627.425,975.0
627.953,975.85
628.482,994.25
629.01,986.45
629.539,991.2
630.067,987.2
630.596,1007.05
631.124,1100.5
631.652,1030.5
632.18,999.95
632.708,998.9
633.236,1019.1
633.764,1011.5
634.292,984.35
634.82,971.95
635.348,967.6
635.876,967.8
636.403,962.9
636.931,966.75
637.459,963.1
637.986,964.05
638.514,963.65
639.041,962.85
639.568,963.3
640.096,962.95
640.623,960.3
641.15,963.35
641.678,964.2
642.205,961.35
642.732,962.1
643.259,957.4
643.786,957.5
644.313,953.15
644.84,952.85
645.367,954.3
645.894,951.75
646.421,949.65
646.948,953.3
647.474,950.95
648.001,954.15
648.528,949.3
649.054,951.25
649.581,945.9
650.108,948.05
650.634,946.55
651.161,945.95
651.687,944.6
652.214,944.3
652.74,941.85
653.266,944.65
653.793,945.0
654.319,943.9
654.845,946.15
655.371,945.45
655.897,945.15
656.424,937.4
656.95,939.1
657.476,939.95
658.002,938.0
658.528,937.85
659.054,939.3
659.58,938.2
660.106,941.0
660.631,937.0
661.157,936.75
661.683,934.55
662.209,931.55
662.735,933.6
663.129,933.9

File: VLFR_08-PLA_bio_Raman_a14ee3c1.csv
nm,Intensity
528.65,1854.7
529.155,1855.55
529.66,1856.6
530.165,1854.7
530.67,1854.6
531.175,1856.95
531.68,1870.65
532.185,2510.05
532.69,1861.6
533.194,1870.15
533.699,3359.55
534.204,7846.3
534.708,8293.1
535.213,8978.5
535.717,9262.85
536.222,9100.7
536.726,9405.75
537.231,9878.1
537.735,10025.0
538.239,10139.8
538.743,10279.3
539.247,10573.3
539.751,10823.4
540.255,10720.3
540.759,11289.0
541.263,11321.9
541.767,11526.0
542.271,11927.1
542.775,12014.5
543.279,12246.8
543.782,12312.8
544.286,12507.6
544.789,12793.9
545.293,13039.0
545.796,13282.7
546.3,13279.4
546.803,13646.7
547.306,13812.3
547.81,13697.5
548.313,14324.3
548.816,14254.8
549.319,14378.0
549.822,14563.7
550.325,14556.1
550.828,14872.2
551.331,15381.2
551.834,15448.5
552.337,15570.5
552.839,15734.8
553.342,15732.4
553.844,15905.4
554.347,16061.8
554.849,16544.3
555.352,16581.6
555.854,16703.4
556.357,16699.6
556.859,17000.3
557.361,16830.0
557.863,17146.4
558.365,17337.8
558.867,17441.8
559.369,17769.3
559.871,17974.5
560.373,17853.9
560.875,18266.3
561.377,18323.5
561.878,18647.3
562.38,18876.3
562.881,18843.7
563.383,18741.8
563.884,18964.6
564.386,19145.8
564.887,19675.0
565.388,19907.9
565.89,19775.3
566.391,19938.6
566.892,19982.8
567.393,19979.8
567.894,20147.1
568.395,20178.2
568.896,20510.9
569.396,20761.5
569.897,20595.3
570.398,20934.2
570.898,21282.2
571.399,20835.3
571.9,21398.9
572.4,21555.1
572.9,21468.5
573.401,21510.6
573.901,21605.6
574.401,21152.3
574.901,21627.0
575.401,21708.1
575.901,21650.8
576.401,21899.8
576.901,21787.0
577.401,21889.6
577.901,21925.9
578.4,21839.4
578.9,21802.3
579.399,22385.1
579.899,22351.3
580.398,22207.8
580.898,22464.2
581.397,22399.3
581.896,22759.2
582.395,22498.1
582.895,22243.9
583.394,22841.9
583.893,22593.7
584.391,22715.1
584.89,22797.8
585.389,22357.1
585.888,22629.2
586.386,22713.8
586.885,22647.1
587.384,23346.3
587.882,22980.7
588.38,23081.4
588.879,22996.7
589.377,22619.0
589.875,22672.9
590.373,22708.3
590.871,22871.9
591.369,23038.1
591.867,23177.8
592.365,23207.5
592.863,23094.0
593.361,23270.3
593.858,22920.1
594.356,23226.2
594.853,22827.8
595.351,23336.2
595.848,23579.8
596.345,23083.1
596.843,23667.1
597.34,23303.9
597.837,23492.7
598.334,23242.8
598.831,23177.3
599.328,23584.4
599.824,23093.9
600.321,23367.8
600.818,23247.6
601.314,23846.1
601.811,23971.1
602.307,23264.8
602.804,23727.1
603.3,23183.4
603.796,23218.5
604.293,23433.8
604.789,23237.3
605.285,23825.3
605.781,23062.4
606.277,23568.8
606.772,23409.7
607.268,23381.2
607.764,23474.3
608.259,23075.3
608.755,22961.4
609.25,22937.9
609.746,23049.8
610.241,23035.3
610.736,23316.7
611.231,23664.7
611.727,23153.6
612.222,23210.6
612.716,23116.8
613.211,23027.8
613.706,22996.0
614.201,23453.3
614.695,22694.9
615.19,23467.1
615.684,22974.3
616.179,23015.1
616.673,22558.1
617.168,22653.9
617.662,22414.2
618.156,23354.7
618.65,22729.7
619.144,23190.3
619.638,22510.6
620.131,22582.8
620.625,22031.3
621.119,22698.3
621.612,22075.3
622.106,22444.5
622.599,21901.9
623.093,22300.3
623.586,21845.3
624.079,22141.5
624.572,22668.2
625.065,22532.8
625.558,21966.4
626.051,22035.7
626.544,21284.4
627.037,21475.2
627.529,21576.3
628.022,21784.1
628.514,21955.3
629.007,21377.2
629.499,21948.3
629.991,21491.8
630.483,20979.7
630.976,21166.8
631.468,21193.2
631.959,20939.2
632.451,20376.6
632.943,21274.6
633.435,20990.5
633.926,20770.2
634.418,20056.7
634.909,20048.4
635.401,20094.9
635.892,19958.8
636.383,19200.6
636.874,19600.7
637.365,19577.7
637.856,19570.6
638.347,19734.7
638.838,19371.5
639.329,19391.6
639.819,18516.3
640.31,18646.8
640.8,18590.2
641.291,18634.2
641.781,18031.7
642.271,18281.4
642.761,17642.7
643.251,18459.6
643.741,17578.5
644.231,17859.5
644.721,17331.0
645.211,17788.4
645.7,17099.4
646.19,17012.8
646.679,16734.3
647.169,17001.8
647.658,17113.7
648.147,16725.2
648.636,15785.7
649.125,16067.5
649.614,15775.1
650.103,15930.7
650.592,15681.6
651.08,15658.3
651.569,15560.3
652.058,15048.9
652.546,15260.3
653.034,14749.8
653.523,14269.3
654.011,14380.2
654.499,14564.2
654.987,14166.9
655.475,13941.7
655.963,13874.4
656.45,13726.3
656.938,13610.5
657.425,13459.2
657.913,13502.1
658.4,12972.4
658.888,12975.7
659.375,12798.3
659.862,12603.2
660.349,12753.8
660.836,12323.5
661.079,12182.1

File: VLFR_08-PLA_bio_Raman_a251a57e.csv
nm,Intensity
528.626,1861.8
529.132,1862.9
529.637,1862.8
530.143,1863.2
530.648,1862.6
531.153,1866.7
531.658,1935.4
532.164,4759.1
532.669,1867.1
533.174,1867.1
533.679,2168.5
534.184,2990.5
534.689,2812.1
535.194,2665.3
535.699,2570.1
536.203,2491.2
536.708,2542.2
537.213,2483.7
537.717,2486.3
538.222,2436.9
538.726,2413.6
539.231,2391.5
539.735,2334.0
540.239,2384.9
540.744,2456.6
541.248,2460.2
541.752,2396.3
542.256,2384.7
542.76,2407.1
543.264,2533.1
543.768,2623.0
544.272,2516.5
544.776,2402.4
545.28,2390.1
545.784,2350.6
546.287,2351.8
546.791,2377.1
547.294,2393.9
547.798,2387.6
548.301,2396.5
548.805,2388.3
549.308,2425.9
549.811,2407.5
550.315,2413.5
550.818,2454.4
551.321,2463.5
551.824,2502.0
552.327,2504.4
552.83,2501.2
553.333,2450.9
553.835,2566.5
554.338,2518.6
554.841,2499.1
555.343,2474.2
555.846,2451.9
556.349,2443.1
556.851,2456.1
557.353,2576.2
557.856,3189.7
558.358,2964.2
558.86,2609.7
559.362,2564.2
559.864,2541.5
560.366,2514.2
560.868,2548.3
561.37,2492.7
561.872,2516.3
562.374,2533.2
562.876,2612.9
563.377,2834.3
563.879,2665.6
564.38,2576.9
564.882,2745.8
565.383,2741.9
565.885,2835.4
566.386,2833.1
566.887,2601.9
567.388,2565.5
567.889,2667.4
568.391,2610.4
568.892,2624.0
569.392,2592.6
569.893,2595.3
570.394,2603.9
570.895,2617.7
571.395,2740.1
571.896,2777.4
572.397,2754.9
572.897,2723.9
573.397,2736.8
573.898,2716.5
574.398,2768.1
574.898,2669.3
575.398,2631.5
575.898,2681.1
576.398,2919.0
576.898,3229.9
577.398,2745.5
577.898,2643.1
578.398,2617.7
578.897,2625.0
579.397,2616.5
579.896,2613.5
580.396,2619.8
580.895,2624.4
581.395,2641.5
581.894,2671.2
582.393,2615.2
582.892,2649.5
583.391,2665.4
583.89,2681.4
584.389,2665.9
584.888,2648.7
585.387,2614.1
585.886,2660.9
586.384,2734.9
586.883,2988.4
587.381,3122.5
587.88,2931.1
588.378,2691.2
588.876,2609.7
589.375,2606.6
589.873,2630.2
590.371,2631.9
590.869,2636.2
591.367,2623.4
591.865,2623.1
592.363,2651.8
592.86,2639.3
593.358,2651.1
593.856,2617.1
594.353,2653.2
594.851,2632.0
595.348,2646.3
595.845,2665.5
596.342,2628.9
596.84,2647.2
597.337,2678.4
597.834,2647.3
598.331,2651.7
598.828,2671.5
599.324,2678.0
599.821,2648.4
600.318,2665.4
600.814,2675.5
601.311,2667.1
601.807,2666.2
602.304,2652.7
602.8,2661.6
603.296,2662.8
603.792,2676.1
604.288,2653.6
604.784,2703.6
605.28,2659.0
605.776,2686.0
606.272,2667.1
606.767,2643.9
607.263,2700.0
607.759,2680.9
608.254,2691.9
608.749,2681.3
609.245,2706.6
609.74,2701.4
610.235,2664.4
610.73,2690.8
611.225,2690.9
611.72,2703.1
612.215,2669.4
612.71,2688.6
613.204,2676.3
613.699,2678.2
614.194,2676.5
614.688,2697.7
615.182,2711.9
615.677,2697.7
616.171,2726.5
616.665,2711.7
617.159,2677.7
617.653,2711.6
618.147,2733.4
618.641,2696.7
619.135,2683.0
619.628,2719.9
620.122,2708.9
620.615,2709.5
621.109,2690.2
621.602,2688.3
622.095,2710.1
622.589,2767.1
623.082,2815.7
623.575,2767.1
624.068,2714.4
624.561,2721.3
625.053,2664.8
625.546,2685.3
626.039,2699.1
626.531,2684.6
627.024,2690.5
627.516,2705.6
628.008,2884.2
628.501,3295.7
628.993,3161.1
629.485,3119.6
629.977,3165.2
630.469,3702.2
630.96,5956.5
631.452,4916.1
631.944,3731.1
632.435,3470.5
632.927,3911.7
633.418,4169.7
633.91,3539.8
634.401,2958.8
634.892,2785.7
635.383,2661.5
635.874,2612.0
636.365,2605.1
636.856,2605.5
637.346,2600.1
637.837,2578.3
638.327,2586.2
638.818,2576.5
639.308,2574.9
639.799,2543.3
640.289,2538.7
640.779,2527.0
641.269,2565.1
641.759,2539.8
642.249,2522.6
642.738,2534.7
643.228,2517.5
643.718,2498.5
644.207,2497.4
644.697,2487.0
645.186,2493.9
645.675,2480.5
646.164,2473.0
646.653,2468.8
647.142,2434.7
647.631,2448.7
648.12,2429.2
648.609,2429.0
649.098,2417.0
649.586,2398.3
650.075,2404.3
650.563,2415.7
651.051,2387.5
651.539,2379.1
652.027,2384.6
652.515,2374.7
653.003,2367.7
653.491,2351.9
653.979,2352.4
654.467,2363.8
654.954,2332.1
655.442,2342.6
655.929,2313.2
656.416,2284.7
656.904,2330.6
657.391,2318.9
657.878,2314.3
658.365,2295.3
658.851,2293.2
659.338,2271.6
659.825,2263.6
660.311,2287.9
660.798,2260.7
661.041,2292.7

File: VLFR_08-PLA_bio_Raman_a860dec2.csv
nm,Intensity
528.65,1843.75
529.155,1844.65
529.66,1843.9
530.165,1844.65
530.67,1843.55
531.175,1845.85
531.68,1860.15
532.185,2431.8
532.69,1844.4
533.194,1844.7
533.699,1967.55
534.204,2248.0
534.708,2185.1
535.213,2175.8
535.717,2132.35
536.222,2126.5
536.726,2141.05
537.231,2110.85
537.735,2118.15
538.239,2111.05
538.743,2114.75
539.247,2116.2
539.751,2079.3
540.255,2093.95
540.759,2153.4
541.263,2129.2
541.767,2097.5
542.271,2096.55
542.775,2106.0
543.279,2151.4
543.782,2211.85
544.286,2152.6
544.789,2095.7
545.293,2097.35
545.796,2097.7
546.3,2104.0
546.803,2116.35
547.306,2121.25
547.81,2107.8
548.313,2127.85
548.816,2133.95
549.319,2135.05
549.822,2135.25
550.325,2151.3
550.828,2163.55
551.331,2150.6
551.834,2179.25
552.337,2172.9
552.839,2177.05
553.342,2158.1
553.844,2188.55
554.347,2178.7
554.849,2158.25
555.352,2159.55
555.854,2151.65
556.357,2153.7
556.859,2166.65
557.361,2194.1
557.863,2461.0
558.365,2354.85
558.867,2197.05
559.369,2196.35
559.871,2195.65
560.373,2191.45
560.875,2175.35
561.377,2184.25
561.878,2209.1
562.38,2335.9
562.881,2234.75
563.383,2310.4
563.884,2240.6
564.386,2224.55
564.887,2282.65
565.388,2269.8
565.89,2322.65
566.391,2343.55
566.892,2222.75
567.393,2232.5
567.894,2256.95
568.395,2240.7
568.896,2244.45
569.396,2247.0
569.897,2239.1
570.398,2248.45
570.898,2261.8
571.399,2334.2
571.9,2317.3
572.4,2288.5
572.9,2294.75
573.401,2284.0
573.901,2315.8
574.401,2325.95
574.901,2286.2
575.401,2274.15
575.901,2276.2
576.401,2386.55
576.901,2474.8
577.401,2316.65
577.901,2276.55
578.4,2263.35
578.9,2255.55
579.399,2263.85
579.899,2268.3
580.398,2263.15
580.898,2255.45
581.397,2255.35
581.896,2261.6
582.395,2268.15
582.895,2256.45
583.394,2264.3
583.893,2268.05
584.391,2264.7
584.89,2259.25
585.389,2265.1
585.888,2272.55
586.386,2298.1
586.885,2377.85
587.384,2444.6
587.882,2352.2
588.38,2276.2
588.879,2263.65
589.377,2259.45
589.875,2256.1
590.373,2243.9
590.871,2250.15
591.369,2250.2
591.867,2250.2
592.365,2254.0
592.863,2244.2
593.361,2249.7
593.858,2257.45
594.356,2250.15
594.853,2248.9
595.351,2270.55
595.848,2245.65
596.345,2258.25
596.843,2267.6
597.34,2255.8
597.837,2258.95
598.334,2259.85
598.831,2248.4
599.328,2264.55
599.824,2265.5
600.321,2253.45
600.818,2253.3
601.314,2246.8
601.811,2256.05
602.307,2244.45
602.804,2262.05
603.3,2255.35
603.796,2248.6
604.293,2251.45
604.789,2244.55
605.285,2250.8
605.781,2253.05
606.277,2246.65
606.772,2241.0
607.268,2251.85
607.764,2256.15
608.259,2257.05
608.755,2249.85
609.25,2241.6
609.746,2238.15
610.241,2247.5
610.736,2246.45
611.231,2240.95
611.727,2253.2
612.222,2251.6
612.716,2236.5
613.211,2239.8
613.706,2232.6
614.201,2240.85
614.695,2239.65
615.19,2240.3
615.684,2240.05
616.179,2224.5
616.673,2240.85
617.168,2243.3
617.662,2237.7
618.156,2233.5
618.65,2231.85
619.144,2225.65
619.638,2238.5
620.131,2241.55
620.625,2233.95
621.119,2237.5
621.612,2245.15
622.106,2250.75
622.599,2270.7
623.093,2266.5
623.586,2262.65
624.079,2253.35
624.572,2244.15
625.065,2223.85
625.558,2218.6
626.051,2235.5
626.544,2220.55
627.037,2241.9
627.529,2238.25
628.022,2288.7
628.514,2429.0
629.007,2386.75
629.499,2397.6
629.991,2400.65
630.483,2568.05
630.976,3492.95
631.468,3067.6
631.959,2624.95
632.451,2482.65
632.943,2631.8
633.435,2735.95
633.926,2517.65
634.418,2317.1
634.909,2238.5
635.401,2209.25
635.892,2199.5
636.383,2175.1
636.874,2174.55
637.365,2176.5
637.856,2167.4
638.347,2175.0
638.838,2154.0
639.329,2169.4
639.819,2157.8
640.31,2154.6
640.8,2150.0
641.291,2142.95
641.781,2153.6
642.271,2156.95
642.761,2145.7
643.251,2135.2
643.741,2143.15
644.231,2141.3
644.721,2120.9
645.211,2126.8
645.7,2115.25
646.19,2114.95
646.679,2110.1
647.169,2109.2
647.658,2107.25
648.147,2117.65
648.636,2104.1
649.125,2100.05
649.614,2103.65
650.103,2109.8
650.592,2097.4
651.08,2083.1
651.569,2085.1
652.058,2087.2
652.546,2088.6
653.034,2078.35
653.523,2073.75
654.011,2078.05
654.499,2055.7
654.987,2066.1
655.475,2056.65
655.963,2060.25
656.45,2056.65
656.938,2057.05
657.425,2044.6
657.913,2051.7
658.4,2045.35
658.888,2043.8
659.375,2043.65
659.862,2036.6
660.349,2028.3
660.836,2033.45
661.079,2022.5

File: VLFR_08-PLA_bio_Raman_a8463a3d.csv
nm,Intensity
526.547,833.05
527.095,832.65
527.642,831.3
528.189,831.8
528.736,832.8
529.283,833.0
529.829,832.05
530.376,832.7
530.922,832.45
531.468,831.45
532.014,834.8
532.56,832.75
533.106,831.85
533.651,833.0
534.196,917.75
534.742,904.45
535.287,893.5
535.832,889.65
536.376,886.9
536.921,886.1
537.465,884.15
538.01,884.35
538.554,879.0
539.098,880.6
539.642,879.5
540.186,877.65
540.729,883.05
541.273,884.75
541.816,885.0
542.36,880.15
542.903,883.85
543.446,891.35
543.988,894.35
544.531,888.0
545.074,884.95
545.616,882.15
546.158,883.9
546.701,886.85
547.243,884.1
547.785,884.05
548.326,884.6
548.868,888.5
549.41,888.4
549.951,887.85
550.492,890.85
551.034,891.35
551.575,889.65
552.116,893.4
552.656,894.4
553.197,890.65
553.738,893.55
554.278,896.8
554.819,890.5
555.359,893.85
555.899,891.4
556.439,892.6
556.979,893.0
557.519,898.5
558.058,933.9
558.598,901.1
559.137,897.25
559.677,896.95
560.216,896.45
560.755,895.55
561.294,896.1
561.833,895.45
562.371,940.7
562.91,902.55
563.449,912.2
563.987,907.3
564.525,901.85
565.064,908.95
565.602,908.05
566.14,918.7
566.678,911.15
567.216,899.7
567.753,905.15
568.291,903.45
568.828,903.65
569.366,907.6
569.903,904.8
570.44,903.25
570.977,905.55
571.514,909.55
572.051,910.1
572.588,908.85
573.125,909.95
573.661,911.55
574.198,910.85
574.734,913.55
575.271,904.45
575.807,906.6
576.343,913.15
576.879,929.0
577.415,913.05
577.951,910.15
578.486,909.85
579.022,907.1
579.557,908.85
580.093,907.15
580.628,909.6
581.164,909.05
581.699,909.75
582.234,909.15
582.769,911.75
583.304,909.75
583.838,908.85
584.373,911.3
584.908,909.3
585.442,912.4
585.977,910.55
586.511,917.1
587.045,926.6
587.58,931.95
588.114,919.85
588.648,912.6
589.182,910.55
589.715,909.8
590.249,910.5
590.783,909.5
591.316,911.1
591.85,909.3
592.383,912.6
592.917,911.3
593.45,909.85
593.983,910.85
594.516,911.45
595.049,911.7
595.582,912.0
596.115,910.35
596.648,912.55
597.18,910.8
597.713,913.0
598.245,913.55
598.778,912.95
599.31,911.4
599.842,911.05
600.375,914.45
600.907,914.05
601.439,911.6
601.971,912.65
602.503,911.55
603.034,912.45
603.566,912.9
604.098,910.05
604.629,911.05
605.161,914.2
605.692,908.35
606.224,906.0
606.755,907.5
607.286,906.35
607.817,907.6
608.348,910.95
608.879,909.3
609.41,909.9
609.941,907.4
610.472,909.75
611.002,909.35
611.533,907.75
612.063,908.1
612.594,909.8
613.124,910.15
613.655,908.4
614.185,909.15
614.715,908.85
615.245,907.85
615.775,906.45
616.305,904.7
616.835,907.35
617.365,910.25
617.895,908.45
618.425,906.9
618.954,905.6
619.484,906.8
620.013,904.1
620.543,902.65
621.072,906.05
621.602,905.55
622.131,907.1
622.66,909.35
623.189,907.6
623.718,907.8
624.247,906.75
624.776,904.1
625.305,903.2
625.834,905.45
626.363,904.75
626.891,904.2
627.42,905.55
627.949,904.4
628.477,923.3
629.006,918.55
629.534,918.05
630.062,915.95
630.591,935.05
631.119,1025.75
631.647,958.65
632.175,933.9
632.703,928.4
633.231,947.2
633.759,937.25
634.287,915.8
634.815,901.95
635.343,897.7
635.871,896.75
636.398,896.45
636.926,895.35
637.454,895.2
637.981,897.25
638.509,894.85
639.036,895.3
639.564,892.3
640.091,894.65
640.618,896.55
641.146,893.9
641.673,894.15
642.2,893.35
642.727,895.0
643.254,890.9
643.781,890.45
644.308,891.05
644.835,889.15
645.362,890.3
645.889,890.65
646.416,890.7
646.942,891.9
647.469,889.4
647.996,886.6
648.522,888.6
649.049,889.6
649.576,891.0
650.102,889.3
650.629,889.25
651.155,887.4
651.682,885.9
652.208,887.25
652.734,887.05
653.261,885.45
653.787,887.05
654.313,883.2
654.839,887.65
655.365,883.05
655.892,882.2
656.418,882.65
656.944,884.9
657.47,884.75
657.996,884.55
658.522,884.35
659.048,881.95
659.574,882.75
660.099,885.35
660.625,881.6
661.151,879.9
661.677,880.8
662.203,880.65
662.728,878.9
663.123,878.6

File: VLFR_08-PLA_bio_Raman_a9279bd1.csv
nm,Intensity
526.495,828.9
527.042,828.4
527.589,829.5
528.136,828.9
528.682,828.8
529.229,827.5
529.775,828.5
530.321,828.3
530.867,828.6
531.413,829.0
531.959,830.5
532.505,830.1
533.051,827.9
533.596,830.9
534.141,1050.8
534.687,996.0
535.232,955.9
535.777,933.1
536.321,926.4
536.866,930.0
537.41,916.4
537.955,912.6
538.499,901.2
539.043,896.4
539.587,895.3
540.131,886.1
540.675,910.9
541.219,909.6
541.762,898.3
542.305,889.2
542.849,894.1
543.392,919.4
543.935,926.4
544.478,906.0
545.02,893.5
545.563,891.4
546.106,885.2
546.648,888.3
547.19,894.6
547.732,886.3
548.274,890.0
548.816,892.5
549.358,893.3
549.9,891.8
550.441,892.7
550.983,891.4
551.524,897.9
552.065,900.4
552.606,907.7
553.147,902.5
553.688,900.3
554.229,912.0
554.769,900.4
555.31,892.2
555.85,892.4
556.391,893.0
556.931,894.2
557.471,916.0
558.011,1046.0
558.551,933.3
559.09,909.5
559.63,906.4
560.169,902.2
560.709,900.2
561.248,893.5
561.787,894.6
562.326,891.7
562.865,907.3
563.404,944.5
563.943,923.1
564.481,909.9
565.02,936.3
565.558,926.9
566.096,960.3
566.634,920.6
567.172,903.8
567.71,912.0
568.248,912.8
568.786,908.7
569.324,913.8
569.861,905.4
570.399,909.4
570.936,910.1
571.473,926.3
572.01,928.3
572.547,919.4
573.084,920.5
573.621,928.3
574.158,922.0
574.694,936.6
575.231,913.9
575.767,915.3
576.303,932.8
576.84,995.9
577.376,936.6
577.912,915.0
578.448,912.5
578.984,912.6
579.519,915.0
580.055,910.4
580.59,913.0
581.126,910.6
581.661,913.1
582.196,910.1
582.731,911.0
583.267,916.4
583.801,910.2
584.336,910.8
584.871,913.8
585.406,911.9
585.94,913.8
586.475,933.0
587.009,966.9
587.543,993.2
588.078,940.6
588.612,915.7
589.146,918.9
589.68,916.2
590.214,910.3
590.747,913.3
591.281,913.9
591.815,912.3
592.348,913.9
592.881,910.7
593.415,907.7
593.948,908.9
594.481,910.1
595.014,910.9
595.547,913.8
596.08,912.5
596.613,911.2
597.146,912.3
597.678,913.5
598.211,914.1
598.743,914.3
599.276,910.3
599.808,914.8
600.34,915.2
600.872,913.5
601.404,910.4
601.936,913.7
602.468,910.5
603.0,913.5
603.532,917.0
604.064,912.9
604.595,907.7
605.127,907.5
605.658,912.5
606.189,909.3
606.721,906.8
607.252,908.5
607.783,910.0
608.314,908.5
608.845,911.1
609.376,906.5
609.907,907.9
610.438,910.8
610.968,906.2
611.499,908.6
612.029,906.0
612.56,909.8
613.09,911.8
613.621,908.5
614.151,909.4
614.681,906.0
615.211,910.0
615.741,911.6
616.271,911.2
616.801,909.4
617.331,915.0
617.861,911.4
618.39,906.7
618.92,908.3
619.45,913.0
619.979,911.0
620.509,908.1
621.038,908.8
621.567,912.4
622.096,909.8
622.626,921.5
623.155,925.8
623.684,921.5
624.213,912.2
624.742,914.5
625.271,908.7
625.799,911.0
626.328,911.1
626.857,911.9
627.386,914.0
627.914,923.2
628.443,1001.1
628.971,984.8
629.5,981.5
630.028,992.5
630.556,1057.8
631.084,1492.8
631.613,1205.2
632.141,1053.0
632.669,1029.3
633.197,1140.5
633.725,1099.0
634.253,990.2
634.781,935.3
635.308,915.1
635.836,908.9
636.364,906.1
636.891,907.3
637.419,903.7
637.947,904.7
638.474,899.7
639.002,902.8
639.529,900.9
640.056,897.9
640.584,903.6
641.111,902.3
641.638,902.6
642.165,902.0
642.692,899.1
643.219,902.4
643.746,897.6
644.273,895.5
644.8,896.9
645.327,894.7
645.854,891.9
646.381,893.7
646.908,891.4
647.434,892.4
647.961,891.7
648.488,890.2
649.014,893.7
649.541,890.3
650.067,890.2
650.594,887.9
651.12,888.9
651.646,888.7
652.173,889.5
652.699,889.9
653.225,888.0
653.752,889.1
654.278,888.3
654.804,887.0
655.33,888.1
655.856,886.1
656.382,890.4
656.908,891.0
657.434,891.8
657.96,885.1
658.486,886.7
659.012,887.3
659.538,886.6
660.064,882.4
660.589,883.6
661.115,885.9
661.641,883.4
662.166,883.6
662.692,883.8
663.086,881.8