Folder: MPX_specDB/spectra (part 4)

File: VLFR_01-LDPE_bio_Raman_8a84ed72.csv
nm,Intensity
526.547,830.8
527.095,831.1
527.642,831.45
528.189,831.65
528.736,830.6
529.283,830.95
529.829,830.8
530.376,830.9
530.922,829.75
531.468,830.45
532.014,837.8
532.56,831.25
533.106,831.05
533.651,833.05
534.196,936.5
534.742,917.9
535.287,901.35
535.832,884.3
536.376,875.65
536.921,872.35
537.465,872.0
538.01,870.8
538.554,865.95
539.098,862.6
539.642,860.85
540.186,859.8
540.729,857.8
541.273,856.4
541.816,855.9
542.36,854.35
542.903,853.75
543.446,853.8
543.988,854.65
544.531,853.05
545.074,851.45
545.616,852.5
546.158,850.8
546.701,853.45
547.243,849.55
547.785,849.95
548.326,851.6
548.868,849.55
549.41,848.65
549.951,850.55
550.492,848.6
551.034,848.35
551.575,850.3
552.116,850.35
552.656,850.2
553.197,851.4
553.738,854.05
554.278,855.9
554.819,856.65
555.359,857.25
555.899,859.75
556.439,860.6
556.979,863.65
557.519,867.25
558.058,869.15
558.598,870.4
559.137,866.8
559.677,867.8
560.216,868.55
560.755,866.2
561.294,868.4
561.833,869.7
562.371,873.4
562.91,879.5
563.449,883.9
563.987,970.7
564.525,908.15
565.064,902.2
565.602,896.7
566.14,974.6
566.678,898.85
567.216,893.35
567.753,898.15
568.291,893.3
568.828,896.85
569.366,902.65
569.903,905.35
570.44,914.9
570.977,928.45
571.514,1079.45
572.051,967.0
572.588,945.45
573.125,941.95
573.661,951.8
574.198,970.1
574.734,971.6
575.271,991.2
575.807,1050.35
576.343,1201.95
576.879,1146.55
577.415,1114.3
577.951,1102.2
578.486,1124.45
579.022,1151.7
579.557,1186.25
580.093,1210.85
580.628,1250.7
581.164,1276.75
581.699,1300.45
582.234,1330.4
582.769,1349.85
583.304,1366.55
583.838,1385.25
584.373,1403.25
584.908,1420.3
585.442,1435.9
585.977,1457.75
586.511,1478.3
587.045,1499.5
587.58,1522.05
588.114,1545.0
588.648,1575.75
589.182,1600.7
589.715,1623.5
590.249,1649.3
590.783,1673.85
591.316,1697.95
591.85,1713.65
592.383,1723.2
592.917,1734.9
593.45,1733.1
593.983,1743.8
594.516,1760.35
595.049,1779.2
595.582,1791.8
596.115,1813.3
596.648,1824.55
597.18,1853.75
597.713,1888.95
598.245,1906.35
598.778,1943.15
599.31,1959.45
599.842,1984.7
600.375,1973.75
600.907,1967.1
601.439,1956.5
601.971,1948.0
602.503,1927.7
603.034,1906.65
603.566,1885.95
604.098,1840.65
604.629,1800.9
605.161,1739.75
605.692,1696.6
606.224,1648.65
606.755,1606.8
607.286,1587.7
607.817,1557.7
608.348,1531.4
608.879,1509.85
609.41,1483.25
609.941,1457.55
610.472,1436.5
611.002,1425.15
611.533,1402.75
612.063,1393.6
612.594,1385.0
613.124,1376.95
613.655,1370.05
614.185,1348.8
614.715,1336.65
615.245,1321.9
615.775,1303.45
616.305,1295.35
616.835,1289.2
617.365,1280.25
617.895,1277.2
618.425,1262.95
618.954,1252.0
619.484,1248.65
620.013,1246.4
620.543,1239.6
621.072,1244.0
621.602,1255.0
622.131,1280.8
622.66,1271.55
623.189,1238.4
623.718,1229.8
624.247,1227.4
624.776,1224.85
625.305,1228.0
625.834,1238.15
626.363,1271.9
626.891,1587.65
627.42,2032.3
627.949,1723.15
628.477,2058.85
629.006,1764.45
629.534,1659.6
630.062,1544.1
630.591,1514.65
631.119,1364.8
631.647,1297.75
632.175,1275.2
632.703,1251.55
633.231,1253.45
633.759,1253.45
634.287,1251.8
634.815,1247.7
635.343,1245.45
635.871,1248.0
636.398,1253.5
636.926,1255.25
637.454,1245.55
637.981,1250.35
638.509,1253.35
639.036,1252.65
639.564,1253.6
640.091,1256.5
640.618,1261.2
641.146,1266.5
641.673,1268.75
642.2,1273.15
642.727,1272.25
643.254,1273.95
643.781,1279.0
644.308,1275.7
644.835,1272.55
645.362,1280.85
645.889,1278.4
646.416,1279.85
646.942,1275.25
647.469,1275.6
647.996,1277.85
648.522,1270.5
649.049,1267.3
649.576,1283.65
650.102,1274.65
650.629,1271.4
651.155,1270.1
651.682,1272.85
652.208,1280.0
652.734,1276.4
653.261,1278.15
653.787,1279.6
654.313,1274.85
654.839,1269.15
655.365,1268.95
655.892,1262.15
656.418,1256.05
656.944,1252.6
657.47,1238.3
657.996,1228.5
658.522,1222.0
659.048,1209.55
659.574,1201.55
660.099,1185.35
660.625,1174.6
661.151,1157.95
661.677,1144.1
662.203,1130.25
662.728,1122.6
663.123,1112.95

File: VLFR_01-LDPE_bio_Raman_8afeec81.csv
nm,Intensity
528.635,1835.6
529.14,1835.0
529.645,1834.3
530.151,1836.1
530.656,1836.5
531.161,1837.6
531.666,1865.2
532.171,3927.2
532.676,1837.5
533.181,1836.3
533.686,1960.4
534.191,2271.0
534.696,2275.7
535.201,2252.1
535.705,2209.7
536.21,2222.5
536.715,2210.3
537.219,2224.4
537.724,2214.1
538.228,2226.9
538.733,2219.7
539.237,2203.9
539.741,2214.3
540.246,2216.9
540.75,2221.6
541.254,2222.0
541.758,2210.1
542.262,2227.1
542.766,2246.1
543.27,2262.0
543.774,2238.4
544.278,2256.5
544.781,2259.9
545.285,2245.5
545.789,2257.1
546.292,2274.6
546.796,2267.5
547.299,2260.8
547.803,2260.1
548.306,2273.0
548.809,2312.9
549.313,2288.1
549.816,2273.3
550.319,2273.9
550.822,2305.2
551.325,2298.8
551.828,2313.4
552.331,2299.8
552.834,2305.0
553.337,2318.9
553.839,2319.7
554.342,2347.7
554.845,2354.2
555.347,2345.3
555.85,2352.2
556.352,2357.1
556.854,2375.9
557.357,2371.6
557.859,2398.7
558.361,2401.7
558.863,2380.5
559.365,2411.0
559.867,2405.9
560.369,2402.3
560.871,2409.0
561.373,2428.8
561.875,2403.3
562.377,2431.7
562.878,2468.4
563.38,2466.4
563.881,2695.2
564.383,2580.7
564.884,2539.3
565.386,2505.0
565.887,2638.7
566.388,2629.9
566.889,2509.7
567.391,2521.8
567.892,2531.2
568.393,2524.4
568.893,2516.1
569.394,2531.1
569.895,2571.4
570.396,2604.7
570.897,2643.9
571.397,2944.7
571.898,2777.5
572.398,2701.0
572.899,2696.2
573.399,2698.4
573.899,2708.9
574.399,2699.5
574.9,2699.9
575.4,2796.7
575.9,2929.3
576.4,3113.1
576.899,3042.9
577.399,2939.5
577.899,2860.1
578.399,2885.8
578.898,2887.9
579.398,2943.3
579.897,2979.6
580.397,3040.6
580.896,3097.4
581.396,3049.8
581.895,3083.4
582.394,3097.8
582.893,3106.5
583.392,3043.2
583.891,3047.9
584.39,3032.1
584.889,3052.7
585.387,3047.8
585.886,3101.0
586.385,3082.4
586.883,3101.4
587.382,3111.5
587.88,3096.0
588.379,3190.2
588.877,3123.3
589.375,3150.5
589.873,3211.0
590.371,3176.4
590.869,3182.0
591.367,3247.4
591.865,3287.3
592.363,3253.2
592.86,3243.8
593.358,3311.2
593.856,3285.9
594.353,3309.5
594.851,3291.4
595.348,3289.8
595.845,3332.7
596.342,3365.7
596.84,3366.7
597.337,3348.1
597.834,3385.6
598.331,3411.3
598.827,3420.7
599.324,3493.2
599.821,3440.4
600.318,3465.6
600.814,3486.6
601.311,3444.2
601.807,3455.9
602.303,3458.4
602.8,3430.3
603.296,3413.8
603.792,3340.6
604.288,3336.8
604.784,3270.7
605.28,3202.5
605.776,3165.5
606.272,3190.8
606.767,3123.3
607.263,3151.9
607.758,3044.1
608.254,3057.9
608.749,2993.2
609.244,2978.6
609.74,2983.8
610.235,2974.9
610.73,2936.7
611.225,2944.0
611.72,2910.3
612.215,2853.7
612.709,2854.7
613.204,2822.4
613.699,2825.7
614.193,2802.3
614.688,2797.2
615.182,2797.1
615.676,2782.9
616.171,2762.5
616.665,2788.1
617.159,2755.4
617.653,2776.9
618.147,2728.8
618.641,2734.4
619.134,2745.5
619.628,2745.3
620.122,2736.0
620.615,2758.1
621.109,2764.7
621.602,2786.2
622.095,2810.8
622.588,2804.4
623.082,2764.8
623.575,2705.3
624.068,2697.4
624.56,2718.6
625.053,2707.1
625.546,2711.4
626.039,2788.3
626.531,3028.8
627.024,4498.9
627.516,4402.6
628.008,4085.8
628.501,4813.2
628.993,4175.1
629.485,3903.5
629.977,3581.4
630.469,3485.6
630.961,3125.2
631.452,2820.4
631.944,2775.9
632.436,2732.8
632.927,2714.6
633.418,2677.1
633.91,2657.4
634.401,2620.6
634.892,2624.9
635.383,2613.4
635.874,2624.9
636.365,2623.4
636.856,2601.3
637.347,2573.0
637.837,2607.7
638.328,2558.3
638.818,2560.5
639.309,2514.0
639.799,2585.5
640.289,2533.8
640.78,2550.3
641.27,2556.7
641.76,2520.8
642.249,2548.2
642.739,2510.7
643.229,2526.0
643.719,2508.6
644.208,2539.5
644.698,2512.8
645.187,2498.1
645.676,2525.9
646.165,2503.2
646.655,2501.5
647.144,2493.7
647.633,2476.7
648.121,2481.9
648.61,2492.7
649.099,2466.5
649.587,2450.6
650.076,2452.8
650.564,2463.3
651.053,2440.9
651.541,2453.5
652.029,2437.2
652.517,2397.5
653.005,2423.2
653.493,2423.8
653.981,2396.3
654.468,2417.0
654.956,2405.7
655.444,2390.0
655.931,2367.5
656.418,2366.9
656.906,2357.9
657.393,2351.6
657.88,2317.8
658.367,2287.6
658.854,2304.0
659.341,2274.5
659.827,2263.2
660.314,2237.9
660.8,2248.4
661.044,2237.6

File: VLFR_01-LDPE_bio_Raman_9df02b44.csv
nm,Intensity
528.65,1849.65
529.155,1851.1
529.66,1850.85
530.165,1850.8
530.67,1851.55
531.175,1853.4
531.68,1886.0
532.185,4169.1
532.69,1853.1
533.194,1851.95
533.699,1929.55
534.204,2200.25
534.708,2202.0
535.213,2185.8
535.717,2171.95
536.222,2156.85
536.726,2171.0
537.231,2172.0
537.735,2168.7
538.239,2171.2
538.743,2178.65
539.247,2198.7
539.751,2178.3
540.255,2181.75
540.759,2175.2
541.263,2176.65
541.767,2173.65
542.271,2190.6
542.775,2174.4
543.279,2162.85
543.782,2146.8
544.286,2148.05
544.789,2147.85
545.293,2140.4
545.796,2145.8
546.3,2146.9
546.803,2148.85
547.306,2156.75
547.81,2152.05
548.313,2153.6
548.816,2151.5
549.319,2150.3
549.822,2156.7
550.325,2142.1
550.828,2162.55
551.331,2167.35
551.834,2164.5
552.337,2166.35
552.839,2156.65
553.342,2161.35
553.844,2170.1
554.347,2164.9
554.849,2171.55
555.352,2180.9
555.854,2191.65
556.357,2193.7
556.859,2199.1
557.361,2205.4
557.863,2215.7
558.365,2214.7
558.867,2219.45
559.369,2222.6
559.871,2231.65
560.373,2235.8
560.875,2231.4
561.377,2245.0
561.878,2248.3
562.38,2269.75
562.881,2271.4
563.383,2295.7
563.884,2425.55
564.386,2359.85
564.887,2357.1
565.388,2336.15
565.89,2420.85
566.391,2418.45
566.892,2341.9
567.393,2355.85
567.894,2346.5
568.395,2353.2
568.896,2363.65
569.396,2371.9
569.897,2375.6
570.398,2422.35
570.898,2426.05
571.399,2671.3
571.9,2554.9
572.4,2496.2
572.9,2461.8
573.401,2467.55
573.901,2471.95
574.401,2471.8
574.901,2471.55
575.401,2552.15
575.901,2636.35
576.401,2815.35
576.901,2717.0
577.401,2596.75
577.901,2522.1
578.4,2513.3
578.9,2530.9
579.399,2539.65
579.899,2544.75
580.398,2559.95
580.898,2557.35
581.397,2575.4
581.896,2560.5
582.395,2553.65
582.895,2548.35
583.394,2591.3
583.893,2567.85
584.391,2572.4
584.89,2581.8
585.389,2564.7
585.888,2576.05
586.386,2598.6
586.885,2567.7
587.384,2591.95
587.882,2573.45
588.38,2590.5
588.879,2571.05
589.377,2585.6
589.875,2584.25
590.373,2584.45
590.871,2578.4
591.369,2594.0
591.867,2593.9
592.365,2594.65
592.863,2589.95
593.361,2612.7
593.858,2605.35
594.356,2599.2
594.853,2600.95
595.351,2602.4
595.848,2630.95
596.345,2641.95
596.843,2665.8
597.34,2671.5
597.837,2677.0
598.334,2693.7
598.831,2679.2
599.328,2737.2
599.824,2709.45
600.321,2739.6
600.818,2728.15
601.314,2711.7
601.811,2719.5
602.307,2724.75
602.804,2701.15
603.3,2716.05
603.796,2702.05
604.293,2670.85
604.789,2650.8
605.285,2645.2
605.781,2635.0
606.277,2641.9
606.772,2593.25
607.268,2599.15
607.764,2575.25
608.259,2558.8
608.755,2563.8
609.25,2555.25
609.746,2552.55
610.241,2535.9
610.736,2552.45
611.231,2543.2
611.727,2543.2
612.222,2521.35
612.716,2509.7
613.211,2506.15
613.706,2503.1
614.201,2487.65
614.695,2491.85
615.19,2479.1
615.684,2492.1
616.179,2487.05
616.673,2483.9
617.168,2485.45
617.662,2484.15
618.156,2480.9
618.65,2499.2
619.144,2504.0
619.638,2504.35
620.131,2493.15
620.625,2503.65
621.119,2527.2
621.612,2565.3
622.106,2622.95
622.599,2603.35
623.093,2527.65
623.586,2485.3
624.079,2493.05
624.572,2482.0
625.065,2488.8
625.558,2525.4
626.051,2550.8
626.544,2768.95
627.037,4275.2
627.529,4188.65
628.022,3835.4
628.514,4700.85
629.007,3968.75
629.499,3674.9
629.991,3362.4
630.483,3290.55
630.976,2934.6
631.468,2630.65
631.959,2554.25
632.451,2481.7
632.943,2480.5
633.435,2438.95
633.926,2428.45
634.418,2405.0
634.909,2434.9
635.401,2404.65
635.892,2397.5
636.383,2401.7
636.874,2369.7
637.365,2382.05
637.856,2382.9
638.347,2380.85
638.838,2361.75
639.329,2357.25
639.819,2343.4
640.31,2364.55
640.8,2346.35
641.291,2347.9
641.781,2358.15
642.271,2337.1
642.761,2338.7
643.251,2350.0
643.741,2328.15
644.231,2330.5
644.721,2321.15
645.211,2319.1
645.7,2312.2
646.19,2329.85
646.679,2318.25
647.169,2322.25
647.658,2303.05
648.147,2317.15
648.636,2292.6
649.125,2315.65
649.614,2295.8
650.103,2299.05
650.592,2304.75
651.08,2298.0
651.569,2289.15
652.058,2283.75
652.546,2272.9
653.034,2272.4
653.523,2266.7
654.011,2267.6
654.499,2271.15
654.987,2253.9
655.475,2253.9
655.963,2254.2
656.45,2248.45
656.938,2232.1
657.425,2234.3
657.913,2216.55
658.4,2217.15
658.888,2200.7
659.375,2190.4
659.862,2199.95
660.349,2190.55
660.836,2175.5
661.079,2172.65

File: VLFR_01-LDPE_bio_Raman_9ecce97f.csv
nm,Intensity
526.495,830.1
527.042,829.9
527.589,829.5
528.136,829.4
528.682,828.9
529.229,830.1
529.775,827.6
530.321,828.6
530.867,828.9
531.413,827.9
531.959,829.3
532.505,830.0
533.051,828.4
533.596,829.4
534.141,901.3
534.687,889.5
535.232,876.8
535.777,861.6
536.321,855.4
536.866,853.9
537.41,851.6
537.955,854.4
538.499,850.5
539.043,847.0
539.587,845.1
540.131,842.7
540.675,843.3
541.219,842.4
541.762,843.2
542.305,843.2
542.849,841.5
543.392,841.7
543.935,842.7
544.478,841.9
545.02,840.6
545.563,841.6
546.106,840.8
546.648,841.1
547.19,840.7
547.732,841.1
548.274,841.6
548.816,842.6
549.358,840.5
549.9,840.5
550.441,842.3
550.983,841.3
551.524,841.7
552.065,840.5
552.606,839.6
553.147,845.0
553.688,844.4
554.229,844.8
554.769,845.7
555.31,846.0
555.85,846.5
556.391,848.4
556.931,849.7
557.471,850.6
558.011,853.5
558.551,854.2
559.09,853.7
559.63,850.4
560.169,851.3
560.709,849.6
561.248,851.0
561.787,851.7
562.326,852.6
562.865,855.8
563.404,859.0
563.943,961.6
564.481,881.2
565.02,872.8
565.558,869.0
566.096,1058.2
566.634,875.1
567.172,859.0
567.71,862.2
568.248,852.7
568.786,856.0
569.324,853.1
569.861,856.7
570.399,861.3
570.936,869.1
571.473,1051.2
572.01,891.0
572.547,865.8
573.084,859.4
573.621,855.7
574.158,868.8
574.694,856.8
575.231,870.3
575.767,961.3
576.303,1000.4
576.84,944.1
577.376,912.2
577.912,870.1
578.448,861.6
578.984,861.5
579.519,862.1
580.055,863.0
580.59,863.6
581.126,865.1
581.661,862.1
582.196,864.3
582.731,864.8
583.267,865.4
583.801,865.0
584.336,863.6
584.871,867.3
585.406,865.2
585.94,868.6
586.475,867.7
587.009,873.8
587.543,871.8
588.078,871.8
588.612,871.9
589.146,869.4
589.68,872.7
590.214,872.2
590.747,872.7
591.281,875.5
591.815,876.8
592.348,871.8
592.881,872.5
593.415,875.9
593.948,878.7
594.481,875.6
595.014,878.3
595.547,881.5
596.08,880.4
596.613,883.5
597.146,886.3
597.678,884.5
598.211,887.4
598.743,889.5
599.276,890.8
599.808,893.9
600.34,890.6
600.872,888.8
601.404,890.3
601.936,892.2
602.468,894.1
603.0,887.8
603.532,891.0
604.064,888.7
604.595,886.0
605.127,886.4
605.658,883.5
606.189,881.6
606.721,881.1
607.252,883.7
607.783,879.5
608.314,881.2
608.845,881.1
609.376,877.8
609.907,880.1
610.438,879.4
610.968,883.8
611.499,877.9
612.029,878.8
612.56,878.0
613.09,878.3
613.621,878.9
614.151,878.5
614.681,879.2
615.211,875.5
615.741,877.9
616.271,875.4
616.801,877.0
617.331,883.6
617.861,884.7
618.39,883.6
618.92,880.8
619.45,883.9
619.979,886.0
620.509,886.2
621.038,892.1
621.567,901.0
622.096,927.2
622.626,925.2
623.155,890.0
623.684,883.4
624.213,885.9
624.742,887.7
625.271,891.1
625.799,900.3
626.328,928.0
626.857,1185.7
627.386,1685.5
627.914,1322.3
628.443,1542.8
628.971,1463.5
629.5,1308.9
630.028,1176.4
630.556,1135.9
631.084,998.5
631.613,916.9
632.141,895.6
632.669,885.3
633.197,884.7
633.725,879.1
634.253,875.5
634.781,872.5
635.308,871.8
635.836,869.2
636.364,872.1
636.891,869.7
637.419,867.2
637.947,864.1
638.474,861.1
639.002,864.4
639.529,862.4
640.056,860.7
640.584,863.7
641.111,864.0
641.638,863.3
642.165,863.0
642.692,862.9
643.219,862.0
643.746,860.7
644.273,860.5
644.8,862.4
645.327,863.9
645.854,861.0
646.381,861.3
646.908,859.5
647.434,863.4
647.961,862.2
648.488,860.7
649.014,862.8
649.541,861.7
650.067,860.7
650.594,859.5
651.12,862.7
651.646,862.1
652.173,859.0
652.699,861.3
653.225,863.5
653.752,862.7
654.278,863.8
654.804,859.8
655.33,860.2
655.856,862.5
656.382,862.8
656.908,860.1
657.434,859.0
657.96,863.3
658.486,860.0
659.012,859.9
659.538,861.7
660.064,861.0
660.589,861.9
661.115,860.5
661.641,856.7
662.166,857.0
662.692,858.8
663.086,856.5

File: VLFR_01-LDPE_bio_Raman_19c45736.csv
nm,Intensity
528.626,1864.5
529.132,1865.8
529.637,1863.0
530.143,1865.7
530.648,1864.8
531.153,1867.5
531.658,1908.0
532.164,4360.9
532.669,1866.8
533.174,1865.9
533.679,2000.3
534.184,2450.9
534.689,2440.9
535.194,2384.9
535.699,2361.2
536.203,2274.2
536.708,2278.5
537.213,2269.9
537.717,2304.1
538.222,2267.4
538.726,2271.7
539.231,2237.0
539.735,2224.0
540.239,2246.2
540.744,2232.4
541.248,2247.2
541.752,2241.3
542.256,2228.6
542.76,2263.8
543.264,2227.0
543.768,2264.2
544.272,2245.9
544.776,2236.7
545.28,2247.9
545.784,2257.9
546.287,2240.8
546.791,2267.4
547.294,2258.5
547.798,2232.9
548.301,2272.9
548.805,2261.9
549.308,2271.8
549.811,2243.8
550.315,2254.5
550.818,2274.5
551.321,2271.0
551.824,2287.4
552.327,2265.7
552.83,2255.4
553.333,2300.1
553.835,2287.9
554.338,2293.4
554.841,2321.3
555.343,2321.0
555.846,2327.2
556.349,2332.4
556.851,2352.8
557.353,2352.7
557.856,2373.2
558.358,2384.6
558.86,2335.9
559.362,2359.9
559.864,2340.7
560.366,2357.8
560.868,2386.6
561.37,2369.4
561.872,2410.4
562.374,2400.4
562.876,2460.0
563.377,2469.0
563.879,2772.9
564.38,2611.5
564.882,2566.7
565.383,2509.6
565.885,2660.6
566.386,2723.7
566.887,2536.6
567.388,2604.0
567.889,2556.9
568.391,2538.7
568.892,2579.8
569.392,2592.6
569.893,2634.9
570.394,2674.6
570.895,2706.7
571.395,3307.6
571.896,3042.1
572.397,2911.1
572.897,2891.1
573.397,2947.1
573.898,3009.7
574.398,3039.1
574.898,3145.7
575.398,3396.4
575.898,3765.1
576.398,4452.9
576.898,4281.0
577.398,4129.0
577.898,4015.0
578.398,4122.0
578.897,4305.5
579.397,4516.2
579.896,4855.8
580.396,5064.2
580.895,5191.6
581.395,5464.6
581.894,5644.1
582.393,5977.9
582.892,6037.3
583.391,6450.9
583.89,6483.0
584.389,6636.4
584.888,6706.3
585.387,6902.4
585.886,7145.5
586.384,7157.7
586.883,7464.3
587.381,7489.3
587.88,7862.1
588.378,7886.8
588.876,8166.0
589.375,8306.6
589.873,8490.9
590.371,8620.1
590.869,8995.1
591.367,9198.1
591.865,9138.4
592.363,9335.4
592.86,9340.0
593.358,9313.5
593.856,9411.4
594.353,9334.3
594.851,9465.5
595.348,9606.8
595.845,9937.0
596.342,9953.6
596.84,10142.5
597.337,10305.5
597.834,10296.9
598.331,10526.8
598.828,10714.9
599.324,10783.3
599.821,11054.3
600.318,10902.9
600.814,11219.1
601.311,10940.9
601.807,10981.9
602.304,10751.6
602.8,10775.5
603.296,10466.2
603.792,10320.2
604.288,9744.3
604.784,9574.3
605.28,9423.8
605.776,8970.0
606.272,8634.7
606.767,8578.3
607.263,8391.1
607.759,7978.7
608.254,7753.7
608.749,7564.3
609.245,7330.5
609.74,7171.8
610.235,7024.0
610.73,6901.2
611.225,6846.8
611.72,6695.5
612.215,6421.0
612.71,6577.5
613.204,6470.6
613.699,6122.3
614.194,6159.2
614.688,5994.7
615.182,6003.2
615.677,5818.7
616.171,5682.1
616.665,5652.7
617.159,5621.4
617.653,5499.9
618.147,5525.4
618.641,5303.4
619.135,5354.0
619.628,5364.3
620.122,5269.6
620.615,5324.2
621.109,5278.6
621.602,5282.5
622.095,5538.7
622.589,5561.3
623.082,5275.4
623.575,5171.0
624.068,5162.1
624.561,5005.2
625.053,5120.6
625.546,5247.9
626.039,5375.8
626.531,5827.8
627.024,9954.5
627.516,9911.9
628.008,8557.1
628.501,11827.1
628.993,9114.0
629.485,8268.6
629.977,7515.8
630.469,7204.9
630.96,6360.3
631.452,5732.8
631.944,5598.0
632.435,5493.3
632.927,5473.7
633.418,5545.7
633.91,5511.3
634.401,5436.3
634.892,5655.3
635.383,5498.9
635.874,5475.9
636.365,5602.3
636.856,5417.0
637.346,5515.0
637.837,5604.1
638.327,5584.7
638.818,5560.3
639.308,5566.6
639.799,5615.2
640.289,5681.3
640.779,5652.6
641.269,5626.4
641.759,5653.4
642.249,5607.0
642.738,5626.4
643.228,5748.0
643.718,5648.1
644.207,5564.9
644.697,5599.4
645.186,5753.1
645.675,5585.9
646.164,5545.6
646.653,5559.3
647.142,5483.8
647.631,5420.7
648.12,5444.6
648.609,5378.5
649.098,5503.6
649.586,5303.4
650.075,5293.5
650.563,5287.8
651.051,5316.1
651.539,5214.2
652.027,5106.0
652.515,5162.8
653.003,5199.6
653.491,4962.7
653.979,5024.7
654.467,4969.4
654.954,4909.2
655.442,4787.5
655.929,4872.4
656.416,4724.8
656.904,4651.8
657.391,4629.6
657.878,4478.7
658.365,4346.4
658.851,4275.2
659.338,4264.5
659.825,4168.1
660.311,4051.1
660.798,3985.4
661.041,4028.2

File: VLFR_01-LDPE_bio_Raman_35dbd681.csv
nm,Intensity
526.508,829.7
527.055,829.8
527.602,830.3
528.149,830.1
528.695,830.7
529.241,829.6
529.787,830.0
530.334,829.6
530.879,829.6
531.425,829.5
531.971,836.1
532.516,832.2
533.062,830.7
533.607,829.8
534.152,906.3
534.697,891.6
535.242,881.9
535.786,869.7
536.331,866.5
536.876,862.5
537.42,859.4
537.964,860.6
538.508,857.8
539.052,859.4
539.596,854.9
540.14,850.9
540.683,852.3
541.227,851.6
541.77,850.9
542.313,849.9
542.856,850.1
543.399,849.6
543.942,849.3
544.485,849.0
545.027,846.7
545.57,847.3
546.112,845.6
546.654,849.5
547.196,847.4
547.738,847.5
548.28,848.6
548.822,845.0
549.363,847.1
549.905,849.0
550.446,844.9
550.988,847.2
551.529,845.4
552.07,843.7
552.611,846.8
553.152,846.5
553.692,850.5
554.233,848.1
554.773,852.8
555.314,851.6
555.854,854.1
556.394,854.8
556.934,859.8
557.474,859.9
558.014,864.1
558.553,864.8
559.093,863.3
559.632,861.9
560.172,859.7
560.711,860.5
561.25,862.8
561.789,864.4
562.328,865.7
562.867,873.0
563.406,879.0
563.944,929.0
564.483,899.2
565.021,896.1
565.559,892.0
566.098,970.1
566.636,898.5
567.174,892.4
567.711,895.6
568.249,893.3
568.787,899.4
569.324,901.9
569.862,909.0
570.399,913.8
570.936,924.9
571.474,1027.3
572.011,974.1
572.548,954.7
573.084,952.9
573.621,962.6
574.158,984.1
574.694,989.9
575.231,1012.2
575.767,1087.3
576.303,1159.3
576.84,1148.5
577.376,1135.7
577.912,1148.3
578.447,1168.7
578.983,1212.2
579.519,1241.4
580.054,1283.5
580.59,1312.0
581.125,1347.2
581.661,1382.4
582.196,1411.1
582.731,1448.4
583.266,1463.2
583.801,1495.2
584.336,1517.8
584.87,1518.3
585.405,1542.6
585.94,1562.6
586.474,1579.6
587.008,1605.2
587.543,1610.6
588.077,1614.9
588.611,1639.6
589.145,1636.6
589.679,1663.2
590.213,1680.8
590.747,1695.8
591.28,1697.1
591.814,1709.1
592.347,1706.7
592.881,1704.5
593.414,1701.2
593.947,1705.6
594.48,1711.6
595.014,1727.0
595.547,1728.2
596.079,1740.3
596.612,1759.6
597.145,1778.5
597.678,1787.5
598.21,1805.4
598.743,1825.6
599.275,1833.7
599.807,1844.6
600.34,1835.8
600.872,1837.4
601.404,1839.1
601.936,1819.5
602.468,1801.6
603.0,1788.0
603.532,1760.2
604.063,1735.3
604.595,1681.7
605.126,1648.7
605.658,1604.8
606.189,1570.0
606.721,1527.7
607.252,1512.4
607.783,1495.7
608.314,1470.8
608.845,1452.8
609.376,1428.0
609.907,1407.7
610.438,1392.0
610.968,1377.8
611.499,1360.1
612.03,1348.0
612.56,1342.9
613.091,1336.0
613.621,1327.5
614.151,1313.3
614.681,1296.9
615.212,1289.0
615.742,1276.1
616.272,1269.0
616.802,1257.2
617.332,1260.9
617.861,1250.9
618.391,1243.9
618.921,1240.3
619.45,1245.5
619.98,1237.2
620.509,1223.7
621.039,1238.1
621.568,1238.7
622.097,1258.6
622.627,1261.9
623.156,1248.6
623.685,1236.4
624.214,1244.0
624.743,1245.1
625.272,1249.5
625.801,1253.9
626.33,1296.3
626.858,1468.8
627.387,1918.5
627.916,1676.9
628.444,1816.3
628.973,1783.5
629.501,1691.9
630.029,1598.6
630.558,1591.8
631.086,1460.4
631.614,1396.1
632.142,1368.9
632.67,1367.9
633.198,1358.0
633.726,1364.3
634.254,1364.0
634.782,1363.4
635.31,1366.2
635.838,1372.8
636.365,1372.1
636.893,1375.3
637.421,1375.1
637.948,1376.3
638.476,1379.6
639.003,1377.4
639.531,1378.0
640.058,1384.8
640.585,1382.8
641.113,1389.3
641.64,1384.3
642.167,1384.8
642.694,1382.2
643.221,1375.5
643.748,1375.5
644.275,1373.7
644.802,1371.0
645.329,1364.6
645.856,1358.1
646.382,1362.4
646.909,1364.9
647.436,1372.0
647.962,1355.5
648.489,1348.7
649.016,1348.1
649.542,1347.1
650.069,1345.0
650.595,1332.9
651.121,1339.6
651.648,1326.3
652.174,1338.6
652.7,1334.8
653.227,1327.9
653.753,1327.7
654.279,1324.4
654.805,1323.8
655.331,1318.8
655.857,1314.7
656.383,1307.4
656.909,1302.4
657.435,1289.4
657.961,1282.1
658.487,1270.6
659.013,1261.9
659.538,1252.0
660.064,1236.0
660.59,1220.6
661.116,1205.2
661.641,1182.4
662.167,1177.0
662.692,1171.0
663.087,1159.7