Folder: MPX_specDB/spectra (part 158)

File: VLFR_08-PLA_nobio_Raman_d6383756.csv
nm,Intensity
526.5,829.0
527.047,830.6
527.594,829.2
528.14,829.3
528.687,829.0
529.233,828.7
529.779,828.8
530.325,829.5
530.871,829.0
531.417,828.0
531.962,831.9
532.508,830.6
533.053,828.0
533.599,829.3
534.144,909.6
534.689,896.1
535.234,886.8
535.778,884.8
536.323,878.7
536.867,883.6
537.412,873.1
537.956,876.9
538.5,873.0
539.044,871.3
539.588,869.9
540.132,871.6
540.675,881.0
541.219,880.5
541.762,872.7
542.305,871.2
542.848,873.6
543.391,882.3
543.934,888.9
544.477,879.3
545.02,874.5
545.562,874.3
546.105,875.9
546.647,875.4
547.189,874.9
547.731,876.5
548.273,876.8
548.815,877.5
549.356,879.4
549.898,878.7
550.439,881.6
550.981,881.2
551.522,881.4
552.063,883.1
552.604,880.3
553.145,885.5
553.686,885.1
554.226,885.8
554.767,884.6
555.307,883.4
555.848,884.5
556.388,879.5
556.928,885.8
557.468,886.7
558.008,923.7
558.547,894.7
559.087,889.7
559.626,891.4
560.166,887.3
560.705,885.0
561.244,887.7
561.783,886.0
562.322,886.4
562.861,889.9
563.4,902.6
563.939,894.5
564.477,890.6
565.015,900.4
565.554,898.9
566.092,910.1
566.63,899.8
567.168,892.6
567.706,891.5
568.244,891.7
568.781,894.3
569.319,894.9
569.857,894.2
570.394,891.8
570.931,894.2
571.468,902.9
572.005,900.0
572.542,897.8
573.079,900.4
573.616,901.9
574.153,900.4
574.689,902.8
575.226,897.1
575.762,893.2
576.298,902.9
576.834,926.7
577.371,907.7
577.907,902.0
578.442,900.6
578.978,896.7
579.514,899.0
580.049,898.5
580.585,898.6
581.12,898.4
581.656,899.8
582.191,899.4
582.726,901.5
583.261,903.4
583.796,903.0
584.331,901.4
584.865,900.2
585.4,901.8
585.935,904.6
586.469,905.2
587.004,919.7
587.538,930.9
588.072,912.4
588.606,905.5
589.14,902.5
589.674,903.5
590.208,903.6
590.742,901.8
591.275,901.3
591.809,903.7
592.342,900.0
592.876,899.2
593.409,900.8
593.942,900.1
594.476,899.5
595.009,901.6
595.542,903.7
596.075,903.9
596.607,900.4
597.14,904.0
597.673,903.4
598.205,905.6
598.738,903.4
599.27,906.1
599.803,898.2
600.335,901.1
600.867,900.7
601.399,899.9
601.931,902.4
602.463,901.8
602.995,901.1
603.527,900.2
604.058,901.3
604.59,895.5
605.122,901.1
605.653,900.0
606.184,897.7
606.716,894.5
607.247,900.6
607.778,897.3
608.309,898.0
608.84,900.1
609.371,900.1
609.902,898.3
610.433,900.6
610.964,897.0
611.494,896.7
612.025,897.4
612.556,894.8
613.086,896.9
613.616,898.0
614.147,901.5
614.677,898.6
615.207,896.9
615.737,898.9
616.267,897.8
616.797,899.4
617.327,896.4
617.857,897.9
618.387,896.8
618.917,896.8
619.446,896.7
619.976,898.5
620.505,897.4
621.035,895.2
621.564,899.5
622.093,897.8
622.623,900.6
623.152,901.9
623.681,900.1
624.21,898.6
624.739,899.8
625.268,894.3
625.797,896.9
626.326,894.7
626.855,897.0
627.383,898.4
627.912,900.3
628.441,926.2
628.969,922.9
629.498,921.2
630.026,926.2
630.554,943.6
631.083,1110.3
631.611,1013.5
632.139,954.0
632.667,936.0
633.195,975.2
633.724,964.7
634.252,925.9
634.779,902.6
635.307,895.0
635.835,894.8
636.363,891.2
636.891,890.8
637.418,890.9
637.946,892.6
638.474,887.3
639.001,890.6
639.529,889.2
640.056,890.9
640.583,887.6
641.111,892.4
641.638,888.1
642.165,886.3
642.692,887.3
643.22,887.7
643.747,885.6
644.274,885.4
644.801,885.1
645.328,886.7
645.854,882.5
646.381,882.8
646.908,884.2
647.435,882.1
647.962,886.1
648.488,881.1
649.015,881.3
649.542,880.0
650.068,883.3
650.595,882.5
651.121,880.0
651.648,876.6
652.174,880.7
652.7,881.0
653.227,880.4
653.753,879.4
654.279,878.0
654.805,877.7
655.331,877.3
655.858,876.7
656.384,878.5
656.91,876.8
657.436,880.3
657.962,879.1
658.488,876.5
659.013,875.5
659.539,876.1
660.065,877.8
660.591,873.6
661.117,874.7
661.642,873.9
662.168,876.8
662.694,873.9
663.088,873.9

File: VLFR_08-PLA_nobio_Raman_dc2b7e85.csv
nm,Intensity
526.508,831.6
527.055,830.3
527.602,830.2
528.149,831.1
528.695,829.8
529.241,829.3
529.787,830.0
530.334,830.3
530.879,831.2
531.425,829.7
531.971,832.3
532.516,830.9
533.062,830.5
533.607,831.9
534.152,1066.9
534.697,1022.7
535.242,987.9
535.786,967.3
536.331,961.9
536.876,965.7
537.42,954.5
537.964,953.5
538.508,939.4
539.052,937.7
539.596,937.2
540.14,932.8
540.683,951.1
541.227,950.4
541.77,944.0
542.313,936.5
542.856,940.6
543.399,961.1
543.942,973.2
544.485,954.0
545.027,942.3
545.57,941.0
546.112,937.3
546.654,942.6
547.196,946.8
547.738,942.7
548.28,941.9
548.822,944.7
549.363,948.4
549.905,949.7
550.446,950.5
550.988,954.7
551.529,959.4
552.07,961.6
552.611,965.2
553.152,963.5
553.692,960.0
554.233,970.3
554.773,959.4
555.314,959.5
555.854,955.4
556.394,955.8
556.934,959.6
557.474,973.5
558.014,1092.2
558.553,1001.6
559.093,976.5
559.632,975.1
560.172,966.7
560.711,967.6
561.25,963.3
561.789,959.3
562.328,966.2
562.867,975.5
563.406,1009.2
563.944,993.5
564.483,985.1
565.021,1007.2
565.559,997.1
566.098,1031.3
566.636,999.6
567.174,977.9
567.711,984.8
568.249,986.2
568.787,987.1
569.324,988.6
569.862,981.6
570.399,987.5
570.936,985.9
571.474,1006.3
572.011,1009.6
572.548,999.8
573.084,1000.4
573.621,1012.0
574.158,1000.5
574.694,1018.0
575.231,995.7
575.767,995.7
576.303,1014.3
576.84,1079.9
577.376,1021.1
577.912,1000.1
578.447,994.9
578.983,999.5
579.519,998.7
580.054,998.8
580.59,998.3
581.125,996.1
581.661,995.1
582.196,997.9
582.731,1000.3
583.266,1002.2
583.801,1001.2
584.336,1000.6
584.87,1003.0
585.405,1003.5
585.94,1005.2
586.474,1022.0
587.008,1056.4
587.543,1085.5
588.077,1028.8
588.611,1010.1
589.145,1005.1
589.679,1006.3
590.213,1007.5
590.747,1009.5
591.28,1006.8
591.814,1002.9
592.347,1012.0
592.881,1005.4
593.414,1004.7
593.947,1000.7
594.48,1000.5
595.014,1005.6
595.547,1008.3
596.079,1011.3
596.612,1005.4
597.145,1008.2
597.678,1007.9
598.21,1013.8
598.743,1004.5
599.275,1016.0
599.807,1008.9
600.34,1011.9
600.872,1005.9
601.404,1012.3
601.936,1010.1
602.468,1011.0
603.0,1009.5
603.532,1013.9
604.063,1015.9
604.595,1007.8
605.126,1006.8
605.658,1005.4
606.189,1007.0
606.721,1009.4
607.252,1007.1
607.783,1014.2
608.314,1011.1
608.845,1009.8
609.376,1006.4
609.907,1012.9
610.438,1007.7
610.968,1012.9
611.499,1009.5
612.03,1010.1
612.56,1010.6
613.091,1018.0
613.621,1011.6
614.151,1017.7
614.681,1014.9
615.212,1014.3
615.742,1021.9
616.272,1008.5
616.802,1016.9
617.332,1020.7
617.861,1014.5
618.391,1019.1
618.921,1018.1
619.45,1017.3
619.98,1011.4
620.509,1020.0
621.039,1013.9
621.568,1014.6
622.097,1015.3
622.627,1018.8
623.156,1029.2
623.685,1029.7
624.214,1019.6
624.743,1016.9
625.272,1012.8
625.801,1016.2
626.33,1011.9
626.858,1014.3
627.387,1016.4
627.916,1026.1
628.444,1096.9
628.973,1079.0
629.501,1080.2
630.029,1086.7
630.558,1144.5
631.086,1580.9
631.614,1301.8
632.142,1159.7
632.67,1128.5
633.198,1235.5
633.726,1194.1
634.254,1096.5
634.782,1031.1
635.31,1012.4
635.838,1004.4
636.365,999.7
636.893,1001.5
637.421,997.1
637.948,992.8
638.476,993.4
639.003,999.6
639.531,996.2
640.058,993.3
640.585,998.5
641.113,991.7
641.64,989.5
642.167,990.2
642.694,993.4
643.221,987.4
643.748,982.1
644.275,979.7
644.802,980.9
645.329,983.3
645.856,981.6
646.382,970.8
646.909,986.3
647.436,981.4
647.962,977.8
648.489,976.6
649.016,976.1
649.542,969.5
650.069,970.6
650.595,970.6
651.121,968.9
651.648,967.4
652.174,965.4
652.7,966.4
653.227,968.4
653.753,972.1
654.279,965.7
654.805,965.5
655.331,965.0
655.857,961.5
656.383,963.0
656.909,964.9
657.435,962.4
657.961,966.3
658.487,957.9
659.013,962.1
659.538,957.9
660.064,957.4
660.59,956.8
661.116,956.1
661.641,953.7
662.167,954.6
662.692,954.7
663.087,957.2

File: VLFR_08-PLA_nobio_Raman_dd1ac37e.csv
nm,Intensity
526.5,829.3
527.047,829.5
527.594,829.0
528.14,828.8
528.687,828.9
529.233,829.1
529.779,829.2
530.325,829.1
530.871,829.3
531.417,829.9
531.962,836.5
532.508,831.3
533.053,829.2
533.599,829.7
534.144,891.9
534.689,885.0
535.234,875.2
535.778,874.5
536.323,871.6
536.867,872.4
537.412,870.2
537.956,869.3
538.5,868.9
539.044,867.7
539.588,865.9
540.132,869.5
540.675,872.1
541.219,872.2
541.762,871.6
542.305,874.6
542.848,872.8
543.391,876.1
543.934,881.3
544.477,874.5
545.02,873.9
545.562,871.1
546.105,872.5
546.647,872.5
547.189,873.5
547.731,874.7
548.273,875.2
548.815,872.8
549.356,875.3
549.898,876.6
550.439,875.5
550.981,881.0
551.522,880.3
552.063,881.6
552.604,880.4
553.145,880.5
553.686,878.6
554.226,880.7
554.767,879.1
555.307,880.3
555.848,880.4
556.388,879.5
556.928,880.6
557.468,885.5
558.008,908.6
558.547,885.4
559.087,887.6
559.626,886.9
560.166,883.6
560.705,884.9
561.244,885.4
561.783,882.7
562.322,884.8
562.861,883.6
563.4,893.7
563.939,887.7
564.477,888.4
565.015,893.8
565.554,890.6
566.092,902.9
566.63,893.4
567.168,889.4
567.706,888.5
568.244,888.6
568.781,887.4
569.319,892.8
569.857,890.9
570.394,889.1
570.931,891.4
571.468,895.2
572.005,897.2
572.542,894.2
573.079,898.5
573.616,898.8
574.153,896.9
574.689,900.7
575.226,897.1
575.762,897.9
576.298,894.9
576.834,910.7
577.371,901.0
577.907,894.2
578.442,894.2
578.978,898.9
579.514,896.8
580.049,897.0
580.585,897.1
581.12,897.0
581.656,895.4
582.191,898.1
582.726,898.8
583.261,896.4
583.796,900.8
584.331,898.6
584.865,898.6
585.4,900.0
585.935,903.6
586.469,903.4
587.004,908.7
587.538,922.2
588.072,905.8
588.606,899.6
589.14,898.5
589.674,898.6
590.208,900.1
590.742,902.3
591.275,902.7
591.809,898.5
592.342,898.2
592.876,898.8
593.409,897.3
593.942,898.0
594.476,902.6
595.009,901.1
595.542,900.0
596.075,899.3
596.607,898.5
597.14,902.2
597.673,896.7
598.205,898.4
598.738,901.9
599.27,900.8
599.803,900.2
600.335,899.4
600.867,901.5
601.399,898.3
601.931,901.0
602.463,901.1
602.995,900.2
603.527,896.2
604.058,900.7
604.59,899.8
605.122,896.0
605.653,897.0
606.184,894.3
606.716,895.3
607.247,894.6
607.778,894.4
608.309,895.9
608.84,895.4
609.371,894.7
609.902,897.1
610.433,895.5
610.964,893.4
611.494,892.2
612.025,893.1
612.556,897.2
613.086,898.5
613.616,899.6
614.147,893.3
614.677,897.1
615.207,896.8
615.737,899.0
616.267,895.5
616.797,894.3
617.327,895.8
617.857,895.8
618.387,894.6
618.917,894.7
619.446,896.3
619.976,894.7
620.505,896.4
621.035,896.5
621.564,895.6
622.093,896.4
622.623,896.6
623.152,901.1
623.681,894.9
624.21,895.1
624.739,897.1
625.268,893.6
625.797,894.0
626.326,890.9
626.855,892.2
627.383,892.8
627.912,897.0
628.441,911.1
628.969,906.9
629.498,905.7
630.026,909.8
630.554,929.0
631.083,1030.9
631.611,964.8
632.139,928.1
632.667,919.9
633.195,938.9
633.724,937.8
634.252,908.7
634.779,900.3
635.307,890.3
635.835,892.8
636.363,889.7
636.891,890.8
637.418,889.7
637.946,889.8
638.474,885.3
639.001,885.6
639.529,886.8
640.056,887.8
640.583,884.1
641.111,883.6
641.638,885.6
642.165,886.0
642.692,885.0
643.22,885.4
643.747,882.3
644.274,881.7
644.801,881.4
645.328,879.2
645.854,884.6
646.381,878.8
646.908,882.2
647.435,881.1
647.962,878.3
648.488,883.2
649.015,880.2
649.542,879.3
650.068,877.6
650.595,879.9
651.121,878.2
651.648,879.1
652.174,879.9
652.7,877.7
653.227,876.6
653.753,877.5
654.279,876.1
654.805,877.8
655.331,878.7
655.858,876.0
656.384,876.9
656.91,876.0
657.436,876.4
657.962,873.4
658.488,874.8
659.013,876.7
659.539,874.1
660.065,877.1
660.591,875.8
661.117,871.8
661.642,872.1
662.168,871.9
662.694,872.9
663.088,872.8

File: VLFR_08-PLA_nobio_Raman_e5acd119.csv
nm,Intensity
526.486,829.0
527.033,828.6
527.579,831.4
528.126,829.9
528.672,828.3
529.219,829.4
529.765,830.9
530.311,828.6
530.857,828.6
531.403,828.6
531.948,833.3
532.494,831.8
533.039,828.2
533.585,830.3
534.13,1058.4
534.675,1003.2
535.22,956.2
535.764,940.2
536.309,926.7
536.854,928.0
537.398,914.1
537.942,912.4
538.486,905.3
539.03,899.0
539.574,893.4
540.118,888.7
540.662,909.3
541.205,907.7
541.749,895.6
542.292,891.8
542.835,893.7
543.378,920.8
543.921,929.8
544.464,905.5
545.006,892.9
545.549,889.0
546.091,884.0
546.634,886.4
547.176,884.5
547.718,884.8
548.26,883.0
548.802,887.2
549.343,891.6
549.885,891.0
550.426,891.1
550.968,891.8
551.509,894.9
552.05,897.4
552.591,901.5
553.132,901.1
553.673,894.8
554.214,907.7
554.754,900.3
555.295,892.2
555.835,886.1
556.375,891.4
556.915,893.7
557.455,911.0
557.995,1038.6
558.535,938.2
559.075,908.7
559.614,905.4
560.154,901.1
560.693,898.8
561.232,893.1
561.772,893.6
562.311,896.1
562.85,905.2
563.388,943.0
563.927,919.9
564.466,907.1
565.004,930.8
565.543,926.9
566.081,956.8
566.619,925.2
567.157,900.6
567.695,903.8
568.233,912.2
568.771,907.1
569.309,911.9
569.846,905.7
570.384,907.9
570.921,911.0
571.458,927.0
571.995,925.8
572.532,922.1
573.069,926.9
573.606,927.1
574.143,921.0
574.68,936.8
575.216,912.4
575.753,909.1
576.289,930.5
576.825,1003.8
577.361,942.5
577.897,912.5
578.433,910.4
578.969,911.5
579.505,911.2
580.041,906.8
580.576,909.7
581.112,910.8
581.647,909.8
582.183,912.7
582.718,912.6
583.253,915.0
583.788,911.5
584.323,915.9
584.858,913.6
585.392,917.6
585.927,917.4
586.462,927.1
586.996,971.3
587.53,999.8
588.065,946.0
588.599,916.9
589.133,918.0
589.667,914.4
590.201,913.2
590.735,914.8
591.268,914.0
591.802,914.5
592.335,914.6
592.869,911.6
593.402,911.2
593.936,917.3
594.469,912.7
595.002,915.8
595.535,913.4
596.068,912.9
596.601,914.4
597.133,914.9
597.666,916.1
598.199,916.0
598.731,916.9
599.264,920.1
599.796,919.1
600.328,915.6
600.86,915.8
601.393,913.4
601.925,917.9
602.457,916.6
602.988,917.4
603.52,920.8
604.052,915.2
604.583,915.3
605.115,915.4
605.646,914.7
606.178,915.1
606.709,917.7
607.24,914.8
607.771,917.1
608.302,914.3
608.833,915.1
609.364,915.0
609.895,915.5
610.426,916.9
610.957,918.7
611.487,915.7
612.018,919.3
612.548,918.0
613.078,917.6
613.609,919.6
614.139,923.0
614.669,916.8
615.199,918.6
615.729,923.0
616.259,918.9
616.789,920.8
617.319,919.3
617.849,920.4
618.378,917.6
618.908,921.1
619.437,925.1
619.967,918.5
620.496,919.0
621.025,922.1
621.555,921.8
622.084,919.7
622.613,933.0
623.142,937.4
623.671,931.3
624.2,925.0
624.729,923.6
625.258,919.4
625.786,923.0
626.315,921.7
626.844,921.5
627.372,924.9
627.901,936.8
628.429,1009.4
628.957,999.3
629.486,992.4
630.014,1005.9
630.542,1065.7
631.07,1503.9
631.598,1237.8
632.126,1077.4
632.654,1053.1
633.182,1154.8
633.71,1120.0
634.237,1008.0
634.765,943.6
635.293,930.8
635.82,921.6
636.348,920.1
636.875,914.7
637.403,916.6
637.93,912.7
638.458,913.7
638.985,911.1
639.512,916.1
640.039,913.5
640.566,910.8
641.093,913.4
641.62,912.5
642.147,911.6
642.674,910.3
643.201,905.5
643.728,909.1
644.255,903.5
644.781,903.0
645.308,903.6
645.835,905.0
646.361,901.9
646.888,902.8
647.414,900.9
647.941,901.8
648.467,899.9
648.993,900.1
649.52,899.8
650.046,900.6
650.572,897.6
651.098,900.3
651.625,895.6
652.151,896.0
652.677,898.5
653.203,898.0
653.729,898.5
654.255,898.9
654.78,897.8
655.306,892.9
655.832,897.7
656.358,896.0
656.884,898.6
657.409,896.5
657.935,892.9
658.461,895.3
658.986,894.8
659.512,894.4
660.037,894.8
660.563,893.4
661.088,892.4
661.614,891.8
662.139,893.9
662.664,892.4
663.058,889.5

File: VLFR_08-PLA_nobio_Raman_e5b2ab9a.csv
nm,Intensity
526.532,830.533
527.079,830.567
527.625,829.833
528.172,829.133
528.718,830.0
529.265,829.7
529.811,829.867
530.357,830.8
530.903,829.867
531.449,829.967
531.994,834.8
532.54,830.1
533.085,830.7
533.63,831.4
534.176,912.167
534.721,893.533
535.266,884.667
535.81,878.267
536.355,874.167
536.9,874.967
537.444,870.667
537.988,872.3
538.533,867.167
539.077,864.533
539.621,864.433
540.165,863.833
540.708,869.8
541.252,869.6
541.795,864.933
542.339,864.233
542.882,864.667
543.425,874.433
543.968,881.3
544.511,866.633
545.054,865.133
545.597,862.333
546.139,863.233
546.682,864.1
547.224,864.867
547.766,863.567
548.308,864.433
548.85,866.333
549.392,866.8
549.934,864.733
550.475,864.133
551.017,868.167
551.558,868.667
552.1,870.3
552.641,869.767
553.182,871.233
553.723,870.767
554.264,870.433
554.804,867.533
555.345,868.167
555.885,867.333
556.426,865.733
556.966,867.433
557.506,873.067
558.046,919.2
558.586,878.067
559.126,873.2
559.665,872.4
560.205,870.733
560.745,869.667
561.284,870.9
561.823,869.6
562.362,869.367
562.901,872.3
563.44,887.233
563.979,876.5
564.518,876.867
565.056,882.167
565.595,880.433
566.133,892.267
566.671,879.633
567.21,872.267
567.748,877.167
568.285,876.0
568.823,878.167
569.361,878.167
569.899,875.0
570.436,876.167
570.974,877.5
571.511,885.733
572.048,883.8
572.585,879.667
573.122,881.833
573.659,884.067
574.196,882.9
574.733,886.133
575.269,879.167
575.806,877.833
576.342,885.767
576.878,903.767
577.414,887.933
577.951,882.033
578.486,879.3
579.022,878.8
579.558,878.4
580.094,879.8
580.629,880.467
581.165,878.0
581.7,878.7
582.236,879.433
582.771,879.967
583.306,878.033
583.841,880.033
584.376,880.933
584.911,881.067
585.445,881.967
585.98,881.833
586.514,886.267
587.049,898.3
587.583,908.933
588.117,887.933
588.651,883.433
589.186,879.767
589.72,879.767
590.253,880.133
590.787,880.267
591.321,880.833
591.854,880.933
592.388,879.8
592.921,879.3
593.455,880.7
593.988,878.933
594.521,880.333
595.054,880.233
595.587,881.467
596.12,883.1
596.653,881.067
597.186,879.6
597.718,882.167
598.251,881.6
598.783,880.533
599.316,879.967
599.848,878.733
600.38,880.0
600.912,878.733
601.444,881.4
601.976,880.533
602.508,879.833
603.04,879.3
603.572,878.033
604.103,878.0
604.635,878.833
605.167,879.233
605.698,878.8
606.229,876.733
606.761,876.9
607.292,879.133
607.823,878.233
608.354,879.4
608.885,878.533
609.416,877.233
609.947,879.8
610.477,879.1
611.008,877.867
611.539,878.033
612.069,877.633
612.6,878.133
613.13,880.233
613.66,880.767
614.19,880.667
614.721,880.2
615.251,878.967
615.781,879.6
616.311,877.5
616.841,880.133
617.37,881.367
617.9,878.5
618.43,880.467
618.96,878.667
619.489,878.7
620.019,879.7
620.548,879.333
621.077,879.4
621.607,878.6
622.136,881.033
622.665,880.8
623.194,884.133
623.723,883.1
624.252,881.433
624.781,878.533
625.31,878.0
625.839,878.767
626.368,879.6
626.896,878.433
627.425,880.1
627.953,885.4
628.482,909.167
629.01,903.633
629.539,904.067
630.067,907.5
630.596,930.767
631.124,1087.53
631.652,980.333
632.18,928.567
632.708,922.367
633.236,958.533
633.764,942.667
634.292,903.333
634.82,885.967
635.348,880.4
635.876,879.233
636.403,878.033
636.931,877.1
637.459,877.067
637.986,876.0
638.514,874.867
639.041,874.333
639.568,875.8
640.096,876.7
640.623,874.3
641.15,875.767
641.678,875.067
642.205,875.367
642.732,874.567
643.259,873.833
643.786,873.933
644.313,872.033
644.84,871.3
645.367,871.967
645.894,870.467
646.421,871.4
646.948,872.367
647.474,870.1
648.001,871.933
648.528,871.633
649.054,870.833
649.581,869.533
650.108,869.767
650.634,870.867
651.161,869.133
651.687,868.2
652.214,869.0
652.74,867.933
653.266,869.567
653.793,867.067
654.319,868.967
654.845,869.533
655.371,870.6
655.897,867.867
656.424,867.3
656.95,869.9
657.476,869.467
658.002,868.267
658.528,868.667
659.054,868.133
659.58,868.367
660.106,867.833
660.631,867.733
661.157,865.067
661.683,866.633
662.209,866.8
662.735,866.833
663.129,866.9

File: VLFR_08-PLA_nobio_Raman_e16d71bf.csv
nm,Intensity
526.532,833.3
527.079,834.1
527.625,833.45
528.172,833.55
528.718,832.8
529.265,833.4
529.811,832.8
530.357,833.6
530.903,833.05
531.449,834.1
531.994,844.05
532.54,833.7
533.085,833.5
533.63,836.55
534.176,964.0
534.721,941.7
535.266,931.1
535.81,928.15
536.355,924.05
536.9,926.1
537.444,923.3
537.988,925.25
538.533,920.55
539.077,922.6
539.621,920.85
540.165,921.05
540.708,928.5
541.252,928.35
541.795,925.25
542.339,928.0
542.882,927.65
543.425,937.85
543.968,943.25
544.511,933.25
545.054,931.55
545.597,929.75
546.139,932.8
546.682,935.3
547.224,933.2
547.766,935.65
548.308,936.05
548.85,939.5
549.392,938.5
549.934,942.1
550.475,945.0
551.017,946.45
551.558,943.75
552.1,949.9
552.641,949.3
553.182,949.9
553.723,949.25
554.264,950.35
554.804,951.0
555.345,946.55
555.885,948.1
556.426,949.85
556.966,952.55
557.506,956.7
558.046,1015.15
558.586,960.2
559.126,956.4
559.665,956.0
560.205,956.7
560.745,953.4
561.284,955.45
561.823,958.45
562.362,956.9
562.901,966.8
563.44,979.45
563.979,968.1
564.518,966.7
565.056,979.05
565.595,976.05
566.133,990.85
566.671,972.25
567.21,966.65
567.748,970.15
568.285,971.5
568.823,974.55
569.361,971.7
569.899,973.55
570.436,972.6
570.974,975.1
571.511,980.85
572.048,981.15
572.585,982.3
573.122,986.3
573.659,986.7
574.196,984.75
574.733,988.35
575.269,982.55
575.806,980.85
576.342,989.05
576.878,1014.95
577.414,990.2
577.951,988.85
578.486,981.9
579.022,985.25
579.558,986.8
580.094,985.55
580.629,985.3
581.165,981.55
581.7,984.7
582.236,986.1
582.771,984.85
583.306,985.1
583.841,987.7
584.376,988.45
584.911,989.55
585.445,988.9
585.98,991.65
586.514,999.2
587.049,1011.6
587.583,1021.1
588.117,997.95
588.651,989.65
589.186,988.3
589.72,987.7
590.253,987.55
590.787,988.8
591.321,988.55
591.854,988.95
592.388,988.55
592.921,990.55
593.455,987.7
593.988,985.7
594.521,981.95
595.054,986.55
595.587,986.55
596.12,987.65
596.653,988.0
597.186,988.2
597.718,988.4
598.251,990.55
598.783,987.65
599.316,990.95
599.848,990.7
600.38,987.6
600.912,986.05
601.444,987.3
601.976,982.25
602.508,983.7
603.04,986.7
603.572,985.6
604.103,983.55
604.635,979.3
605.167,983.2
605.698,979.45
606.229,979.85
606.761,978.0
607.292,982.6
607.823,980.05
608.354,983.1
608.885,982.5
609.416,981.1
609.947,977.55
610.477,977.65
611.008,976.0
611.539,976.35
612.069,979.75
612.6,977.5
613.13,979.0
613.66,980.85
614.19,977.3
614.721,981.2
615.251,977.1
615.781,982.75
616.311,976.95
616.841,976.65
617.37,980.75
617.9,977.15
618.43,977.9
618.96,971.9
619.489,975.2
620.019,973.0
620.548,976.8
621.077,976.5
621.607,973.45
622.136,975.55
622.665,976.95
623.194,981.7
623.723,980.0
624.252,972.7
624.781,972.4
625.31,974.8
625.839,970.7
626.368,972.1
626.896,973.0
627.425,974.75
627.953,976.55
628.482,1012.9
629.01,1002.1
629.539,1003.25
630.067,1005.15
630.596,1038.75
631.124,1238.35
631.652,1094.9
632.18,1033.5
632.708,1028.4
633.236,1068.85
633.764,1049.1
634.292,997.85
634.82,975.6
635.348,967.25
635.876,963.25
636.403,963.9
636.931,963.15
637.459,959.65
637.986,959.75
638.514,960.85
639.041,962.25
639.568,958.85
640.096,958.1
640.623,957.5
641.15,959.7
641.678,956.55
642.205,960.8
642.732,954.9
643.259,952.9
643.786,951.0
644.313,951.75
644.84,947.4
645.367,947.6
645.894,947.4
646.421,945.95
646.948,945.85
647.474,944.35
648.001,950.2
648.528,941.5
649.054,942.75
649.581,944.05
650.108,942.0
650.634,942.15
651.161,938.55
651.687,938.7
652.214,940.4
652.74,938.55
653.266,937.55
653.793,937.65
654.319,938.45
654.845,936.1
655.371,935.35
655.897,937.05
656.424,935.9
656.95,938.05
657.476,935.2
658.002,938.05
658.528,932.45
659.054,931.9
659.58,930.8
660.106,934.45
660.631,932.05
661.157,930.5
661.683,930.85
662.209,926.1
662.735,930.0
663.129,927.0