Folder: MPX_specDB/spectra (part 76)

File: VLFR_06-PET_bio_Raman_a105c92a.csv
nm,Intensity
526.549,832.3
527.096,832.2
527.643,831.75
528.19,832.7
528.737,832.3
529.283,832.7
529.83,831.85
530.376,832.95
530.922,831.65
531.468,831.9
532.014,844.7
532.559,833.2
533.105,832.9
533.65,846.35
534.196,1787.15
534.741,1551.45
535.286,1313.8
535.83,1181.8
536.375,1100.15
536.92,1067.45
537.464,1054.1
538.008,1053.7
538.553,1056.6
539.097,1057.35
539.641,1069.05
540.184,1073.45
540.728,1048.9
541.271,1040.65
541.815,1037.45
542.358,1045.75
542.901,1046.2
543.444,1043.1
543.987,1055.65
544.53,1050.1
545.072,1052.25
545.615,1055.6
546.157,1056.7
546.699,1054.2
547.242,1058.05
547.784,1057.15
548.325,1056.3
548.867,1061.65
549.409,1059.85
549.95,1061.25
550.492,1081.4
551.033,1069.15
551.574,1065.65
552.115,1067.3
552.656,1076.95
553.197,1081.65
553.737,1073.95
554.278,1073.35
554.818,1073.4
555.358,1085.65
555.899,1117.75
556.439,1125.7
556.979,1133.25
557.518,1240.3
558.058,1150.95
558.598,1143.6
559.137,1112.4
559.677,1099.65
560.216,1107.8
560.755,1103.7
561.294,1116.65
561.833,1122.85
562.372,1127.95
562.91,1135.65
563.449,1142.8
563.987,1141.8
564.526,1150.05
565.064,1188.35
565.602,1231.05
566.14,1229.15
566.678,1169.1
567.216,1163.2
567.754,1226.35
568.291,1165.1
568.829,1175.05
569.366,1180.15
569.904,1202.0
570.441,1245.8
570.978,1340.15
571.515,1404.95
572.052,1307.8
572.589,1229.25
573.125,1224.0
573.662,1230.85
574.199,1253.6
574.735,1246.85
575.271,1269.15
575.807,1259.75
576.344,1286.1
576.88,1292.75
577.415,1272.15
577.951,1274.4
578.487,1279.4
579.023,1281.85
579.558,1289.45
580.094,1297.25
580.629,1296.25
581.164,1318.65
581.699,1396.1
582.234,2249.65
582.769,1359.1
583.304,1327.0
583.839,1332.4
584.374,1342.75
584.908,1362.75
585.443,1446.45
585.977,1833.1
586.511,1610.35
587.046,1398.05
587.58,1375.35
588.114,1371.7
588.648,1358.75
589.182,1364.65
589.716,1363.55
590.249,1368.65
590.783,1367.9
591.316,1373.8
591.85,1377.65
592.383,1374.45
592.917,1371.0
593.45,1371.65
593.983,1375.25
594.516,1387.65
595.049,1382.1
595.582,1388.2
596.115,1395.75
596.647,1397.0
597.18,1399.75
597.712,1395.5
598.245,1408.0
598.777,1406.85
599.31,1404.25
599.842,1407.85
600.374,1406.25
600.906,1405.35
601.438,1404.7
601.97,1405.3
602.502,1408.05
603.034,1409.25
603.565,1407.8
604.097,1414.2
604.628,1409.5
605.16,1409.7
605.691,1401.5
606.223,1398.0
606.754,1396.9
607.285,1400.85
607.816,1398.85
608.347,1408.9
608.878,1403.4
609.409,1414.8
609.94,1405.05
610.47,1409.85
611.001,1404.1
611.532,1414.25
612.062,1422.55
612.593,1429.4
613.123,1431.75
613.653,1432.2
614.184,1441.7
614.714,1452.25
615.244,1446.0
615.774,1440.9
616.304,1448.2
616.834,1446.7
617.364,1458.75
617.894,1460.65
618.423,1464.1
618.953,1466.95
619.482,1462.15
620.012,1457.95
620.541,1462.5
621.071,1459.9
621.6,1469.7
622.13,1470.1
622.659,1474.8
623.188,1483.0
623.717,1493.15
624.246,1496.45
624.775,1505.6
625.304,1508.2
625.833,1504.7
626.362,1511.65
626.89,1515.2
627.419,1523.35
627.948,1525.75
628.476,1554.05
629.005,1570.75
629.533,1576.85
630.061,1578.65
630.59,1577.0
631.118,1636.8
631.646,1744.85
632.175,1731.65
632.703,1669.4
633.231,1653.25
633.759,1643.85
634.287,1626.35
634.815,1621.9
635.342,1634.55
635.87,1698.0
636.398,1808.5
636.926,1785.35
637.453,1679.0
637.981,1655.5
638.509,1658.75
639.036,1659.35
639.563,1670.45
640.091,1676.5
640.618,1686.95
641.146,1688.7
641.673,1694.25
642.2,1711.1
642.727,1708.35
643.254,1695.95
643.781,1693.35
644.309,1704.85
644.836,1704.6
645.362,1707.25
645.889,1711.75
646.416,1714.4
646.943,1730.55
647.47,1736.1
647.997,1734.8
648.523,1732.95
649.05,1736.2
649.577,1737.2
650.103,1733.35
650.63,1734.6
651.156,1734.85
651.683,1749.75
652.209,1744.5
652.735,1749.45
653.262,1751.3
653.788,1749.35
654.314,1751.4
654.841,1736.45
655.367,1739.05
655.893,1735.8
656.419,1743.2
656.945,1745.2
657.471,1737.8
657.997,1734.8
658.523,1738.5
659.049,1738.6
659.575,1736.0
660.101,1742.0
660.627,1729.55
661.153,1729.9
661.679,1722.0
662.205,1716.95
662.731,1718.5
663.125,1707.8

File: VLFR_06-PET_bio_Raman_a6118dbe.csv
nm,Intensity
528.65,1846.9
529.155,1846.45
529.66,1846.45
530.165,1847.55
530.67,1848.0
531.175,1849.45
531.68,1882.4
532.185,3568.35
532.69,1851.45
533.194,1860.7
533.699,3813.85
534.204,8116.9
534.708,6664.65
535.213,5394.95
535.717,4245.05
536.222,3632.3
536.726,3328.7
537.231,3267.85
537.735,3243.25
538.239,3302.25
538.743,3284.3
539.247,3384.85
539.751,3505.35
540.255,3369.6
540.759,3259.55
541.263,3198.2
541.767,3211.25
542.271,3259.9
542.775,3292.95
543.279,3281.7
543.782,3302.75
544.286,3319.5
544.789,3329.85
545.293,3373.05
545.796,3373.95
546.3,3401.0
546.803,3459.2
547.306,3494.6
547.81,3507.9
548.313,3529.15
548.816,3546.95
549.319,3546.15
549.822,3563.1
550.325,3729.85
550.828,4152.7
551.331,3765.7
551.834,3783.9
552.337,3856.95
552.839,4217.6
553.342,3849.25
553.844,3854.7
554.347,3897.8
554.849,4020.55
555.352,4160.05
555.854,4509.05
556.357,4572.65
556.859,4670.45
557.361,5500.85
557.863,5088.3
558.365,4821.55
558.867,4656.85
559.369,4396.0
559.871,4413.25
560.373,4363.35
560.875,4465.45
561.377,4582.05
561.878,4644.75
562.38,4723.5
562.881,4890.25
563.383,4811.25
563.884,4779.1
564.386,4920.3
564.887,5222.4
565.388,5598.15
565.89,5999.8
566.391,5343.55
566.892,5032.95
567.393,5308.7
567.894,5532.25
568.395,5160.7
568.896,5271.2
569.396,5291.65
569.897,5513.75
570.398,6002.35
570.898,6922.15
571.399,7655.4
571.9,6492.2
572.4,5948.75
572.9,5606.4
573.401,5583.15
573.901,5805.45
574.401,5743.5
574.901,5784.3
575.401,6050.0
575.901,5825.25
576.401,6153.05
576.901,6162.45
577.401,5922.15
577.901,5748.1
578.4,5919.4
578.9,5948.85
579.399,6017.1
579.899,6089.65
580.398,6064.5
580.898,6317.3
581.397,6525.45
581.896,10540.3
582.395,10036.5
582.895,6352.65
583.394,6330.45
583.893,6358.45
584.391,6386.75
584.89,6621.75
585.389,7693.4
585.888,11375.9
586.386,9687.2
586.885,6935.3
587.384,6572.4
587.882,6596.25
588.38,6625.8
588.879,6557.8
589.377,6566.6
589.875,6490.55
590.373,6686.7
590.871,6534.1
591.369,6642.8
591.867,6669.45
592.365,6610.95
592.863,6675.25
593.361,6663.25
593.858,6675.65
594.356,6725.3
594.853,6740.45
595.351,6801.2
595.848,6824.55
596.345,6933.05
596.843,6932.65
597.34,6744.0
597.837,6879.45
598.334,6852.95
598.831,6869.1
599.328,6891.1
599.824,6994.95
600.321,7021.2
600.818,6889.6
601.314,7007.3
601.811,6845.3
602.307,6932.5
602.804,7042.5
603.3,7164.35
603.796,6946.05
604.293,6925.1
604.789,6951.8
605.285,7086.3
605.781,6839.45
606.277,6952.3
606.772,6986.1
607.268,7274.05
607.764,7016.25
608.259,7026.45
608.755,6934.95
609.25,6932.3
609.746,7031.85
610.241,6975.8
610.736,7035.85
611.231,6909.45
611.727,7006.05
612.222,6973.75
612.716,7091.0
613.211,7107.95
613.706,7063.0
614.201,6955.3
614.695,6944.35
615.19,7058.7
615.684,7068.5
616.179,7048.15
616.673,7009.7
617.168,7157.6
617.662,7185.65
618.156,7024.05
618.65,7221.4
619.144,7036.2
619.638,7129.4
620.131,7095.0
620.625,7035.3
621.119,7080.1
621.612,7039.8
622.106,7174.75
622.599,7152.6
623.093,7101.55
623.586,7306.9
624.079,7270.45
624.572,7337.8
625.065,7269.8
625.558,7326.45
626.051,7367.2
626.544,7262.4
627.037,7325.3
627.529,7410.95
628.022,7439.5
628.514,7563.85
629.007,7669.2
629.499,7968.15
629.991,7779.6
630.483,7875.95
630.976,8122.6
631.468,9110.4
631.959,9205.85
632.451,8725.15
632.943,8424.95
633.435,8502.25
633.926,8212.6
634.418,8077.1
634.909,8081.45
635.401,8058.75
635.892,8655.1
636.383,9791.75
636.874,9312.0
637.365,8415.2
637.856,8088.6
638.347,8021.0
638.838,7856.65
639.329,7904.05
639.819,7856.8
640.31,7923.95
640.8,7896.5
641.291,8192.6
641.781,7859.95
642.271,8207.55
642.761,8020.7
643.251,7978.95
643.741,7944.8
644.231,8148.0
644.721,8134.15
645.211,7838.7
645.7,7999.55
646.19,8143.9
646.679,8153.35
647.169,7935.9
647.658,8036.2
648.147,8144.6
648.636,7927.65
649.125,7803.45
649.614,7822.55
650.103,7721.45
650.592,7773.45
651.08,7966.1
651.569,7607.3
652.058,7657.25
652.546,7533.55
653.034,7554.2
653.523,7501.85
654.011,7366.2
654.499,7322.55
654.987,7603.9
655.475,7289.3
655.963,7144.15
656.45,6976.75
656.938,7030.3
657.425,7039.7
657.913,7101.55
658.4,6846.2
658.888,6858.95
659.375,6824.4
659.862,6912.2
660.349,6846.55
660.836,6551.85
661.079,6754.45

File: VLFR_06-PET_bio_Raman_a47599f8.csv
nm,Intensity
526.549,832.95
527.096,832.4
527.643,832.05
528.19,832.35
528.737,832.25
529.283,832.55
529.83,831.85
530.376,831.45
530.922,831.25
531.468,831.4
532.014,843.85
532.559,832.95
533.105,831.3
533.65,848.6
534.196,1947.8
534.741,1644.65
535.286,1358.35
535.83,1187.65
536.375,1092.25
536.92,1052.7
537.464,1038.6
538.008,1036.15
538.553,1044.4
539.097,1039.45
539.641,1059.75
540.184,1064.3
540.728,1035.55
541.271,1025.1
541.815,1019.7
542.358,1024.3
542.901,1022.4
543.444,1023.95
543.987,1037.65
544.53,1034.05
545.072,1033.5
545.615,1033.95
546.157,1038.35
546.699,1038.9
547.242,1037.95
547.784,1038.0
548.325,1040.4
548.867,1041.25
549.409,1037.0
549.95,1040.6
550.492,1063.4
551.033,1056.25
551.574,1044.3
552.115,1048.75
552.656,1059.45
553.197,1062.75
553.737,1053.3
554.278,1052.15
554.818,1057.7
555.358,1069.05
555.899,1105.55
556.439,1113.65
556.979,1123.05
557.518,1259.15
558.058,1139.75
558.598,1137.3
559.137,1095.9
559.677,1078.1
560.216,1075.75
560.755,1080.85
561.294,1090.4
561.833,1091.8
562.372,1105.15
562.91,1119.45
563.449,1120.1
563.987,1114.75
564.526,1123.9
565.064,1170.9
565.602,1228.85
566.14,1215.1
566.678,1142.75
567.216,1127.85
567.754,1211.4
568.291,1142.2
568.829,1139.85
569.366,1149.65
569.904,1177.2
570.441,1234.25
570.978,1345.85
571.515,1429.75
572.052,1292.4
572.589,1204.55
573.125,1191.15
573.662,1194.45
574.199,1223.75
574.735,1207.8
575.271,1240.15
575.807,1218.65
576.344,1249.1
576.88,1263.65
577.415,1235.25
577.951,1226.15
578.487,1232.7
579.023,1237.15
579.558,1240.0
580.094,1249.75
580.629,1253.5
581.164,1274.35
581.699,1374.75
582.234,2439.7
582.769,1321.75
583.304,1293.05
583.839,1283.25
584.374,1295.45
584.908,1313.1
585.443,1424.25
585.977,1897.45
586.511,1628.85
587.046,1356.4
587.58,1319.95
588.114,1312.6
588.648,1315.2
589.182,1308.8
589.716,1303.65
590.249,1314.5
590.783,1316.65
591.316,1317.5
591.85,1320.25
592.383,1319.4
592.917,1312.4
593.45,1315.85
593.983,1321.0
594.516,1323.6
595.049,1330.85
595.582,1329.75
596.115,1329.05
596.647,1332.05
597.18,1336.55
597.712,1328.3
598.245,1343.15
598.777,1341.05
599.31,1338.05
599.842,1345.5
600.374,1343.45
600.906,1341.15
601.438,1343.1
601.97,1341.7
602.502,1339.5
603.034,1340.9
603.565,1344.75
604.097,1345.4
604.628,1341.95
605.16,1339.7
605.691,1331.55
606.223,1332.4
606.754,1330.35
607.285,1336.25
607.816,1334.35
608.347,1336.1
608.878,1342.1
609.409,1335.7
609.94,1346.95
610.47,1340.7
611.001,1329.35
611.532,1346.45
612.062,1353.5
612.593,1359.45
613.123,1369.35
613.653,1365.9
614.184,1364.65
614.714,1370.45
615.244,1373.35
615.774,1374.15
616.304,1375.15
616.834,1376.25
617.364,1381.65
617.894,1388.65
618.423,1398.35
618.953,1390.9
619.482,1398.1
620.012,1389.6
620.541,1386.6
621.071,1391.8
621.6,1394.4
622.13,1397.35
622.659,1409.4
623.188,1411.65
623.717,1416.1
624.246,1425.85
624.775,1431.6
625.304,1433.1
625.833,1432.65
626.362,1434.45
626.89,1439.05
627.419,1440.6
627.948,1452.25
628.476,1464.5
629.005,1491.4
629.533,1492.8
630.061,1489.0
630.59,1502.65
631.118,1567.0
631.646,1696.8
632.175,1669.8
632.703,1602.25
633.231,1595.65
633.759,1564.05
634.287,1546.25
634.815,1537.25
635.342,1553.45
635.87,1620.05
636.398,1744.8
636.926,1719.85
637.453,1597.45
637.981,1573.6
638.509,1563.8
639.036,1568.3
639.563,1567.55
640.091,1581.6
640.618,1579.8
641.146,1583.1
641.673,1592.8
642.2,1604.55
642.727,1593.85
643.254,1594.4
643.781,1587.2
644.309,1595.75
644.836,1591.1
645.362,1590.65
645.889,1592.95
646.416,1600.55
646.943,1605.3
647.47,1619.05
647.997,1607.25
648.523,1613.95
649.05,1617.15
649.577,1614.95
650.103,1610.9
650.63,1610.15
651.156,1613.05
651.683,1621.2
652.209,1625.15
652.735,1625.45
653.262,1624.65
653.788,1626.1
654.314,1629.4
654.841,1632.85
655.367,1624.65
655.893,1628.55
656.419,1624.6
656.945,1634.0
657.471,1633.25
657.997,1627.95
658.523,1634.2
659.049,1631.0
659.575,1636.8
660.101,1640.2
660.627,1640.55
661.153,1628.0
661.679,1616.1
662.205,1617.75
662.731,1621.45
663.125,1621.05

File: VLFR_06-PET_bio_Raman_abd572ea.csv
nm,Intensity
528.626,1867.0
529.132,1865.6
529.637,1866.6
530.143,1865.7
530.648,1868.2
531.153,1868.5
531.658,1899.4
532.164,4122.5
532.669,1874.1
533.174,1882.4
533.679,3657.9
534.184,9225.3
534.689,6955.2
535.194,5296.5
535.699,4042.9
536.203,3252.4
536.708,2986.6
537.213,2813.5
537.717,2756.2
538.222,2793.0
538.726,2788.1
539.231,2808.2
539.735,2944.8
540.239,2820.3
540.744,2619.5
541.248,2525.7
541.752,2493.9
542.256,2517.7
542.76,2509.1
543.264,2507.4
543.768,2526.2
544.272,2533.5
544.776,2520.0
545.28,2554.8
545.784,2560.3
546.287,2568.8
546.791,2579.3
547.294,2562.2
547.798,2609.0
548.301,2614.1
548.805,2624.8
549.308,2626.3
549.811,2626.2
550.315,2784.5
550.818,3409.4
551.321,2693.5
551.824,2720.0
552.327,2725.7
552.83,3188.7
553.333,2788.8
553.835,2798.6
554.338,2765.7
554.841,2801.9
555.343,3024.6
555.846,3306.4
556.349,3402.1
556.851,3560.0
557.353,4432.7
557.856,4057.3
558.358,3646.3
558.86,3372.0
559.362,3015.6
559.864,2994.8
560.366,2957.3
560.868,2990.1
561.37,3075.4
561.872,3081.1
562.374,3164.0
562.876,3305.4
563.377,3307.8
563.879,3179.8
564.38,3240.9
564.882,3520.6
565.383,4087.4
565.885,4382.7
566.386,3693.9
566.887,3321.3
567.388,3504.3
567.889,3750.0
568.391,3390.3
568.892,3294.0
569.392,3442.8
569.893,3648.7
570.394,4133.2
570.895,5302.7
571.395,6337.4
571.896,4910.4
572.397,4006.2
572.897,3655.9
573.397,3650.4
573.898,3800.5
574.398,3760.0
574.898,3761.0
575.398,4154.7
575.898,3789.4
576.398,4004.8
576.898,4121.8
577.398,3827.3
577.898,3746.6
578.398,3753.2
578.897,3741.3
579.397,3763.6
579.896,3809.7
580.396,3860.3
580.895,4028.2
581.395,4320.5
581.894,8853.4
582.393,8841.1
582.892,4181.2
583.391,3979.2
583.89,3986.9
584.389,4091.4
584.888,4193.1
585.387,5425.1
585.886,9465.8
586.384,7494.0
586.883,4613.1
587.381,4026.9
587.88,4040.8
588.378,4043.4
588.876,4059.6
589.375,3967.9
589.873,4005.5
590.371,3968.9
590.869,4007.6
591.367,4050.3
591.865,3953.0
592.363,4015.8
592.86,4003.7
593.358,3971.8
593.856,4016.1
594.353,4001.0
594.851,4056.3
595.348,4119.4
595.845,4010.9
596.342,4059.4
596.84,4108.6
597.337,3998.7
597.834,4083.2
598.331,4079.1
598.828,4084.4
599.324,4131.3
599.821,4104.5
600.318,4157.3
600.814,4115.1
601.311,4126.5
601.807,4085.9
602.304,4110.5
602.8,4105.2
603.296,4127.9
603.792,4213.8
604.288,4249.2
604.784,4199.1
605.28,4103.5
605.776,4178.6
606.272,4207.2
606.767,4218.3
607.263,4167.0
607.759,4218.2
608.254,4247.2
608.749,4246.0
609.245,4236.4
609.74,4317.6
610.235,4233.2
610.73,4263.3
611.225,4268.0
611.72,4250.2
612.215,4359.8
612.71,4276.8
613.204,4286.5
613.699,4329.0
614.194,4364.5
614.688,4376.7
615.182,4309.0
615.677,4347.4
616.171,4367.4
616.665,4390.7
617.159,4422.0
617.653,4483.2
618.147,4465.1
618.641,4443.0
619.135,4511.9
619.628,4431.5
620.122,4481.2
620.615,4486.4
621.109,4499.2
621.602,4535.0
622.095,4526.4
622.589,4589.0
623.082,4484.8
623.575,4543.5
624.068,4595.3
624.561,4736.8
625.053,4685.5
625.546,4623.3
626.039,4551.2
626.531,4566.3
627.024,4665.4
627.516,4696.7
628.008,4752.3
628.501,4911.1
628.993,5138.3
629.485,5119.7
629.977,5050.2
630.469,5060.4
630.96,5499.3
631.452,6396.8
631.944,6792.4
632.435,6033.3
632.927,5661.2
633.418,5692.0
633.91,5422.4
634.401,5199.4
634.892,5155.1
635.383,5356.0
635.874,5887.6
636.365,6971.8
636.856,6704.5
637.346,5615.2
637.837,5261.5
638.327,5297.7
638.818,5262.9
639.308,5170.8
639.799,5190.5
640.289,5066.1
640.779,5140.4
641.269,5066.5
641.759,5122.6
642.249,5307.2
642.738,5248.4
643.228,5073.4
643.718,5131.7
644.207,5189.8
644.697,5093.9
645.186,5263.5
645.675,5104.9
646.164,5192.6
646.653,5076.8
647.142,5120.6
647.631,5182.9
648.12,5038.5
648.609,5159.4
649.098,4962.7
649.586,5061.8
650.075,5091.9
650.563,5027.5
651.051,5022.1
651.539,5023.1
652.027,4955.0
652.515,4849.2
653.003,4947.8
653.491,4864.3
653.979,4849.1
654.467,4849.0
654.954,4794.3
655.442,4795.7
655.929,4751.6
656.416,4783.7
656.904,4785.5
657.391,4748.8
657.878,4788.1
658.365,4549.2
658.851,4549.8
659.338,4504.4
659.825,4405.6
660.311,4511.2
660.798,4463.5
661.041,4441.6

File: VLFR_06-PET_bio_Raman_ae392d4b.csv
nm,Intensity
526.508,830.7
527.055,829.0
527.602,830.1
528.149,830.3
528.695,830.3
529.241,829.5
529.787,830.3
530.334,830.2
530.879,830.4
531.425,830.8
531.971,837.4
532.516,832.8
533.062,829.3
533.607,835.8
534.152,1563.4
534.697,1363.8
535.242,1165.0
535.786,1046.0
536.331,969.9
536.876,940.4
537.42,929.3
537.964,928.5
538.508,931.1
539.052,925.6
539.596,934.6
540.14,939.1
540.683,919.6
541.227,910.9
541.77,913.4
542.313,907.6
542.856,911.2
543.399,910.1
543.942,916.9
544.485,911.5
545.027,913.9
545.57,917.1
546.112,923.0
546.654,921.5
547.196,919.9
547.738,921.5
548.28,924.3
548.822,930.1
549.363,929.2
549.905,928.9
550.446,942.3
550.988,942.8
551.529,940.4
552.07,938.0
552.611,942.7
553.152,953.5
553.692,945.0
554.233,949.1
554.773,950.5
555.314,957.0
555.854,984.9
556.394,993.8
556.934,992.4
557.474,1081.9
558.014,1012.0
558.553,1009.8
559.093,983.8
559.632,970.1
560.172,972.3
560.711,975.4
561.25,977.5
561.789,978.1
562.328,992.1
562.867,999.5
563.406,1006.5
563.944,999.7
564.483,1007.2
565.021,1030.6
565.559,1070.8
566.098,1075.9
566.636,1020.6
567.174,1010.9
567.711,1062.7
568.249,1015.9
568.787,1017.6
569.324,1026.7
569.862,1042.8
570.399,1063.2
570.936,1149.4
571.474,1208.9
572.011,1122.5
572.548,1057.5
573.084,1045.1
573.621,1044.6
574.158,1066.7
574.694,1051.0
575.231,1076.0
575.767,1067.3
576.303,1075.7
576.84,1082.9
577.376,1069.0
577.912,1068.1
578.447,1073.6
578.983,1070.6
579.519,1076.5
580.054,1071.2
580.59,1081.2
581.125,1095.4
581.661,1140.7
582.196,1836.4
582.731,1126.3
583.266,1100.1
583.801,1102.1
584.336,1109.2
584.87,1116.0
585.405,1175.6
585.94,1489.9
586.474,1340.0
587.008,1146.4
587.543,1121.9
588.077,1122.5
588.611,1116.3
589.145,1114.0
589.679,1116.1
590.213,1117.2
590.747,1119.3
591.28,1111.7
591.814,1118.1
592.347,1119.9
592.881,1127.7
593.414,1118.3
593.947,1124.9
594.48,1131.5
595.014,1133.8
595.547,1134.0
596.079,1134.6
596.612,1136.7
597.145,1137.1
597.678,1136.2
598.21,1138.6
598.743,1144.5
599.275,1142.7
599.807,1147.3
600.34,1142.7
600.872,1142.2
601.404,1146.2
601.936,1149.1
602.468,1145.1
603.0,1153.5
603.532,1148.8
604.063,1150.5
604.595,1145.9
605.126,1155.2
605.658,1142.9
606.189,1148.6
606.721,1139.7
607.252,1148.1
607.783,1149.7
608.314,1143.0
608.845,1154.0
609.376,1151.5
609.907,1156.5
610.438,1158.4
610.968,1146.3
611.499,1152.6
612.03,1160.8
612.56,1163.6
613.091,1174.0
613.621,1169.2
614.151,1175.9
614.681,1175.0
615.212,1172.2
615.742,1172.4
616.272,1181.0
616.802,1183.3
617.332,1185.6
617.861,1192.6
618.391,1194.4
618.921,1182.1
619.45,1185.4
619.98,1188.0
620.509,1177.0
621.039,1186.7
621.568,1190.2
622.097,1188.1
622.627,1193.9
623.156,1197.5
623.685,1200.4
624.214,1204.7
624.743,1215.7
625.272,1218.0
625.801,1219.8
626.33,1219.0
626.858,1218.0
627.387,1220.4
627.916,1223.7
628.444,1237.1
628.973,1265.9
629.501,1255.4
630.029,1258.9
630.558,1260.8
631.086,1314.0
631.614,1395.9
632.142,1383.4
632.67,1330.3
633.198,1324.0
633.726,1309.6
634.254,1299.1
634.782,1290.6
635.31,1294.1
635.838,1343.7
636.365,1427.8
636.893,1437.2
637.421,1344.6
637.948,1320.0
638.476,1320.0
639.003,1319.8
639.531,1326.0
640.058,1326.4
640.585,1325.9
641.113,1338.9
641.64,1337.2
642.167,1341.3
642.694,1348.6
643.221,1344.4
643.748,1336.6
644.275,1344.9
644.802,1344.5
645.329,1340.0
645.856,1346.5
646.382,1351.3
646.909,1352.6
647.436,1365.4
647.962,1360.4
648.489,1367.8
649.016,1363.6
649.542,1370.1
650.069,1375.9
650.595,1366.8
651.121,1371.3
651.648,1372.2
652.174,1375.7
652.7,1373.1
653.227,1375.8
653.753,1377.2
654.279,1385.9
654.805,1382.1
655.331,1377.8
655.857,1376.3
656.383,1390.7
656.909,1391.0
657.435,1377.5
657.961,1374.8
658.487,1387.3
659.013,1380.6
659.538,1398.8
660.064,1390.7
660.59,1384.6
661.116,1387.4
661.641,1373.2
662.167,1369.4
662.692,1385.8
663.087,1372.4

File: VLFR_06-PET_bio_Raman_b491a057.csv
nm,Intensity
526.493,828.3
527.039,829.0
527.586,828.85
528.133,828.55
528.679,828.7
529.225,828.85
529.771,829.1
530.317,828.6
530.863,828.9
531.409,829.1
531.955,832.4
532.5,830.35
533.046,829.5
533.591,832.65
534.136,1312.1
534.681,1263.25
535.226,1202.5
535.771,1185.6
536.315,1153.7
536.86,1146.8
537.404,1145.2
537.948,1147.65
538.493,1150.9
539.037,1145.55
539.58,1154.55
540.124,1159.65
540.668,1153.7
541.211,1154.4
541.755,1157.65
542.298,1161.7
542.841,1169.5
543.384,1171.25
543.927,1178.35
544.47,1183.8
545.013,1193.15
545.555,1197.25
546.098,1197.0
546.64,1204.5
547.182,1210.1
547.724,1208.9
548.266,1217.7
548.808,1222.05
549.35,1226.7
549.892,1231.9
550.433,1232.25
550.974,1241.85
551.516,1250.95
552.057,1250.45
552.598,1249.65
553.139,1257.35
553.68,1254.45
554.22,1262.55
554.761,1265.8
555.301,1262.15
555.842,1275.05
556.382,1279.05
556.922,1284.55
557.462,1309.4
558.002,1298.0
558.542,1290.55
559.082,1289.95
559.621,1290.55
560.161,1295.5
560.7,1296.6
561.239,1300.35
561.778,1303.95
562.317,1313.25
562.856,1315.9
563.395,1334.35
563.934,1330.0
564.472,1342.15
565.011,1349.9
565.549,1365.55
566.088,1370.6
566.626,1354.5
567.164,1343.95
567.702,1361.65
568.24,1357.4
568.777,1368.45
569.315,1368.15
569.853,1378.35
570.39,1386.35
570.927,1408.7
571.465,1421.45
572.002,1414.3
572.539,1401.45
573.076,1408.2
573.612,1411.1
574.149,1420.7
574.686,1416.35
575.222,1421.65
575.759,1430.15
576.295,1433.45
576.831,1444.35
577.367,1430.55
577.903,1437.95
578.439,1437.15
578.975,1447.25
579.511,1452.6
580.046,1446.25
580.582,1447.75
581.117,1454.0
581.653,1466.05
582.188,1657.0
582.723,1475.85
583.258,1480.45
583.793,1470.1
584.328,1478.4
584.863,1478.55
585.398,1489.55
585.932,1584.35
586.467,1554.65
587.001,1496.55
587.535,1494.4
588.07,1491.95
588.604,1488.45
589.138,1487.15
589.672,1491.3
590.206,1491.75
590.739,1500.55
591.273,1501.75
591.807,1504.9
592.34,1496.75
592.873,1496.35
593.407,1501.7
593.94,1496.5
594.473,1503.6
595.006,1513.5
595.539,1517.15
596.072,1512.8
596.605,1520.75
597.138,1523.5
597.67,1521.9
598.203,1524.95
598.735,1546.5
599.268,1539.35
599.8,1540.55
600.332,1532.8
600.865,1530.65
601.397,1538.05
601.929,1532.8
602.46,1538.6
602.992,1538.9
603.524,1545.9
604.056,1539.5
604.587,1540.75
605.119,1532.35
605.65,1523.6
606.182,1526.15
606.713,1522.1
607.244,1528.55
607.775,1528.4
608.306,1531.7
608.837,1531.95
609.368,1538.8
609.899,1527.95
610.43,1528.9
610.961,1532.55
611.491,1531.35
612.022,1536.6
612.552,1544.5
613.083,1553.15
613.613,1562.35
614.143,1561.15
614.673,1555.6
615.203,1549.5
615.734,1557.85
616.263,1553.95
616.793,1561.35
617.323,1557.7
617.853,1558.4
618.383,1565.05
618.912,1555.8
619.442,1557.25
619.971,1558.45
620.501,1558.25
621.03,1553.25
621.56,1556.45
622.089,1554.05
622.618,1558.5
623.147,1564.45
623.676,1562.45
624.205,1564.85
624.734,1569.2
625.263,1562.0
625.792,1571.3
626.321,1572.0
626.849,1565.15
627.378,1567.9
627.906,1569.75
628.435,1578.1
628.963,1577.2
629.492,1576.85
630.02,1574.0
630.548,1578.65
631.077,1596.6
631.605,1609.6
632.133,1609.65
632.661,1590.3
633.189,1590.6
633.717,1582.85
634.245,1576.35
634.773,1581.4
635.3,1585.55
635.828,1589.2
636.356,1609.3
636.883,1617.8
637.411,1591.4
637.938,1581.35
638.466,1583.55
638.993,1588.75
639.521,1581.55
640.048,1589.35
640.575,1591.7
641.103,1589.55
641.63,1588.4
642.157,1599.75
642.684,1595.1
643.211,1587.7
643.738,1579.15
644.265,1578.3
644.792,1571.85
645.319,1577.7
645.845,1581.55
646.372,1576.35
646.899,1581.55
647.425,1587.55
647.952,1601.75
648.479,1602.6
649.005,1613.85
649.532,1631.75
650.058,1654.2
650.585,1658.1
651.111,1663.05
651.637,1641.85
652.164,1619.2
652.69,1592.5
653.216,1578.35
653.742,1571.75
654.268,1559.1
654.794,1538.85
655.32,1533.25
655.846,1528.7
656.372,1517.05
656.898,1521.65
657.424,1517.25
657.95,1511.05
658.476,1513.5
659.002,1501.7
659.528,1499.0
660.053,1498.6
660.579,1488.95
661.105,1477.75
661.63,1476.3
662.156,1468.3
662.681,1468.5
663.076,1468.8