Folder: MPX_specDB/spectra (part 144)

File: VLFR_08-PLA_bio_Raman_f77e1032.csv
nm,Intensity
526.495,829.467
527.042,829.067
527.589,829.367
528.136,829.533
528.682,829.867
529.229,829.267
529.775,829.9
530.321,829.1
530.867,828.433
531.413,829.3
531.959,832.9
532.505,829.533
533.051,830.333
533.596,829.567
534.141,981.733
534.687,947.0
535.232,918.467
535.777,906.033
536.321,900.433
536.866,899.067
537.41,894.2
537.955,892.9
538.499,884.167
539.043,882.633
539.587,879.333
540.131,874.367
540.675,888.6
541.219,889.4
541.762,882.0
542.305,878.367
542.849,878.6
543.392,897.433
543.935,903.567
544.478,887.433
545.02,877.433
545.563,874.733
546.106,876.367
546.648,874.233
547.19,876.3
547.732,877.733
548.274,878.067
548.816,877.533
549.358,879.5
549.9,878.8
550.441,880.133
550.983,883.4
551.524,883.067
552.065,887.967
552.606,885.9
553.147,886.267
553.688,885.167
554.229,891.4
554.769,885.067
555.31,882.2
555.85,878.167
556.391,881.333
556.931,881.8
557.471,893.833
558.011,979.367
558.551,906.433
559.09,892.0
559.63,891.233
560.169,885.467
560.709,886.133
561.248,884.367
561.787,881.067
562.326,884.533
562.865,890.733
563.404,915.3
563.943,899.7
564.481,891.867
565.02,908.833
565.558,905.1
566.096,928.3
566.634,902.8
567.172,887.433
567.71,891.633
568.248,894.667
568.786,895.167
569.324,894.8
569.861,893.033
570.399,894.1
570.936,893.833
571.473,904.7
572.01,907.533
572.547,904.033
573.084,903.2
573.621,906.733
574.158,903.567
574.694,911.467
575.231,897.667
575.767,897.467
576.303,907.433
576.84,950.267
577.376,911.833
577.912,897.7
578.448,895.3
578.984,896.367
579.519,896.367
580.055,895.533
580.59,895.233
581.126,894.7
581.661,897.3
582.196,896.633
582.731,897.6
583.267,897.133
583.801,898.533
584.336,897.433
584.871,898.533
585.406,896.567
585.94,899.033
586.475,906.867
587.009,931.533
587.543,951.333
588.078,913.9
588.612,899.9
589.146,897.267
589.68,899.733
590.214,897.233
590.747,897.167
591.281,897.033
591.815,898.633
592.348,897.133
592.881,898.667
593.415,896.733
593.948,895.433
594.481,896.567
595.014,897.133
595.547,897.067
596.08,896.8
596.613,896.2
597.146,897.833
597.678,896.633
598.211,898.733
598.743,899.567
599.276,896.667
599.808,897.967
600.34,898.133
600.872,896.7
601.404,898.0
601.936,898.167
602.468,895.767
603.0,897.4
603.532,897.367
604.064,898.067
604.595,896.3
605.127,895.0
605.658,893.067
606.189,894.967
606.721,893.7
607.252,894.367
607.783,894.567
608.314,894.7
608.845,896.133
609.376,894.533
609.907,895.0
610.438,893.767
610.968,894.367
611.499,894.433
612.029,895.1
612.56,896.467
613.09,896.2
613.621,897.533
614.151,897.2
614.681,897.967
615.211,897.6
615.741,894.7
616.271,896.5
616.801,897.767
617.331,895.933
617.861,897.833
618.39,898.067
618.92,894.167
619.45,897.233
619.979,898.4
620.509,896.733
621.038,893.8
621.567,896.0
622.096,895.467
622.626,901.467
623.155,903.3
623.684,903.0
624.213,899.5
624.742,897.5
625.271,897.5
625.799,896.667
626.328,896.033
626.857,896.567
627.386,895.967
627.914,902.833
628.443,946.967
628.971,936.467
629.5,934.333
630.028,938.2
630.556,974.633
631.084,1213.0
631.613,1057.5
632.141,975.8
632.669,965.867
633.197,1021.4
633.725,999.133
634.253,939.433
634.781,907.0
635.308,897.267
635.836,895.367
636.364,894.067
636.891,892.733
637.419,889.167
637.947,887.733
638.474,888.933
639.002,888.933
639.529,887.833
640.056,889.933
640.584,888.033
641.111,889.4
641.638,887.7
642.165,888.567
642.692,888.7
643.219,886.533
643.746,884.667
644.273,882.467
644.8,883.433
645.327,881.533
645.854,882.433
646.381,883.467
646.908,881.667
647.434,881.4
647.961,881.1
648.488,880.867
649.014,880.167
649.541,880.8
650.067,878.9
650.594,879.967
651.12,880.0
651.646,878.733
652.173,880.233
652.699,879.067
653.225,880.433
653.752,879.0
654.278,878.667
654.804,879.933
655.33,876.133
655.856,876.733
656.382,878.0
656.908,878.233
657.434,879.6
657.96,877.0
658.486,876.933
659.012,876.3
659.538,877.4
660.064,874.467
660.589,875.7
661.115,875.533
661.641,874.633
662.166,872.933
662.692,874.167
663.086,873.567

File: VLFR_08-PLA_bio_Raman_f2128cf0.csv
nm,Intensity
526.532,833.2
527.079,832.85
527.625,833.1
528.172,832.7
528.718,833.8
529.265,832.65
529.811,832.85
530.357,833.4
530.903,832.7
531.449,833.1
531.994,843.2
532.54,833.95
533.085,834.0
533.63,834.85
534.176,942.2
534.721,930.5
535.266,920.3
535.81,912.15
536.355,917.1
536.9,913.05
537.444,912.8
537.988,912.45
538.533,910.05
539.077,912.55
539.621,912.25
540.165,912.6
540.708,917.5
541.252,918.65
541.795,915.7
542.339,918.65
542.882,917.4
543.425,924.95
543.968,929.6
544.511,923.85
545.054,920.9
545.597,920.65
546.139,922.65
546.682,924.15
547.224,922.95
547.766,925.0
548.308,927.05
548.85,927.2
549.392,928.95
549.934,929.1
550.475,930.0
551.017,930.8
551.558,935.45
552.1,936.0
552.641,937.3
553.182,936.0
553.723,941.85
554.264,943.8
554.804,938.45
555.345,935.35
555.885,935.75
556.426,936.65
556.966,940.0
557.506,945.95
558.046,984.25
558.586,947.05
559.126,946.35
559.665,944.75
560.205,947.1
560.745,945.1
561.284,944.95
561.823,945.05
562.362,944.8
562.901,953.3
563.44,961.95
563.979,955.75
564.518,953.85
565.056,959.5
565.595,958.9
566.133,970.85
566.671,959.95
567.21,952.05
567.748,952.25
568.285,958.25
568.823,958.6
569.361,959.55
569.899,960.0
570.436,958.8
570.974,960.65
571.511,966.05
572.048,970.1
572.585,969.7
573.122,967.35
573.659,969.25
574.196,967.15
574.733,971.0
575.269,963.65
575.806,966.2
576.342,974.85
576.878,990.95
577.414,971.65
577.951,969.0
578.486,971.15
579.022,968.55
579.558,970.75
580.094,967.5
580.629,965.1
581.165,968.35
581.7,968.5
582.236,965.9
582.771,972.65
583.306,970.1
583.841,975.55
584.376,973.05
584.911,973.5
585.445,974.6
585.98,975.45
586.514,977.2
587.049,988.3
587.583,996.95
588.117,981.6
588.651,972.9
589.186,974.25
589.72,972.3
590.253,971.85
590.787,974.55
591.321,973.9
591.854,973.5
592.388,973.4
592.921,971.75
593.455,968.95
593.988,967.15
594.521,973.05
595.054,973.1
595.587,974.25
596.12,968.65
596.653,972.25
597.186,976.1
597.718,975.45
598.251,973.2
598.783,973.65
599.316,972.75
599.848,972.6
600.38,971.7
600.912,970.3
601.444,970.55
601.976,971.4
602.508,968.4
603.04,971.7
603.572,970.2
604.103,969.25
604.635,971.15
605.167,965.0
605.698,965.9
606.229,964.1
606.761,964.65
607.292,967.5
607.823,969.05
608.354,964.85
608.885,965.7
609.416,964.0
609.947,965.0
610.477,965.0
611.008,960.55
611.539,963.75
612.069,962.55
612.6,968.1
613.13,967.85
613.66,966.8
614.19,966.6
614.721,964.75
615.251,965.0
615.781,963.75
616.311,963.7
616.841,964.65
617.37,964.65
617.9,966.05
618.43,963.8
618.96,964.05
619.489,962.15
620.019,963.65
620.548,962.9
621.077,963.2
621.607,959.6
622.136,963.3
622.665,964.9
623.194,966.5
623.723,964.95
624.252,964.25
624.781,964.35
625.31,961.7
625.839,959.9
626.368,961.3
626.896,958.75
627.425,962.4
627.953,960.75
628.482,987.3
629.01,978.8
629.539,981.3
630.067,983.8
630.596,1007.8
631.124,1141.0
631.652,1041.75
632.18,1000.6
632.708,993.3
633.236,1024.9
633.764,1008.4
634.292,978.7
634.82,962.2
635.348,957.0
635.876,954.55
636.403,954.6
636.931,953.25
637.459,949.25
637.986,951.4
638.514,951.1
639.041,948.6
639.568,950.95
640.096,948.4
640.623,949.25
641.15,949.0
641.678,949.55
642.205,948.25
642.732,946.65
643.259,946.25
643.786,941.75
644.313,940.05
644.84,943.15
645.367,941.0
645.894,943.2
646.421,941.7
646.948,942.55
647.474,940.55
648.001,938.95
648.528,938.2
649.054,939.15
649.581,938.75
650.108,937.75
650.634,933.85
651.161,936.4
651.687,933.85
652.214,938.35
652.74,933.55
653.266,935.7
653.793,933.05
654.319,933.2
654.845,933.95
655.371,931.45
655.897,933.1
656.424,932.85
656.95,934.45
657.476,930.2
658.002,930.15
658.528,933.55
659.054,931.9
659.58,933.25
660.106,929.9
660.631,929.6
661.157,928.1
661.683,930.7
662.209,927.2
662.735,925.7
663.129,928.85

File: VLFR_08-PLA_bio_Raman_fd8f24e6.csv
nm,Intensity
528.626,1864.6
529.132,1864.6
529.637,1865.45
530.143,1864.55
530.648,1865.7
531.153,1867.5
531.658,1887.1
532.164,3651.35
532.669,1868.05
533.174,1868.4
533.679,2060.35
534.184,3024.4
534.689,3043.95
535.194,3026.7
535.699,2960.5
536.203,2881.15
536.708,2859.65
537.213,2831.35
537.717,2869.65
538.222,2890.0
538.726,2880.7
539.231,2910.05
539.735,2921.45
540.239,2922.95
540.744,2965.3
541.248,2993.4
541.752,2993.2
542.256,3009.6
542.76,3034.85
543.264,3057.75
543.768,3087.8
544.272,3118.2
544.776,3114.4
545.28,3145.55
545.784,3152.35
546.287,3202.2
546.791,3206.65
547.294,3221.4
547.798,3260.6
548.301,3301.9
548.805,3307.6
549.308,3293.35
549.811,3283.7
550.315,3295.6
550.818,3344.3
551.321,3365.7
551.824,3403.65
552.327,3384.5
552.83,3382.85
553.333,3421.1
553.835,3445.4
554.338,3437.9
554.841,3443.3
555.343,3428.35
555.846,3431.45
556.349,3483.4
556.851,3429.55
557.353,3530.6
557.856,3579.65
558.358,3550.8
558.86,3505.05
559.362,3502.65
559.864,3524.7
560.366,3532.25
560.868,3531.05
561.37,3508.5
561.872,3511.75
562.374,3557.5
562.876,3573.65
563.377,3548.35
563.879,3547.8
564.38,3532.9
564.882,3546.6
565.383,3562.8
565.885,3581.0
566.386,3550.65
566.887,3501.3
567.388,3539.5
567.889,3512.95
568.391,3542.45
568.892,3534.1
569.392,3563.1
569.893,3562.6
570.394,3537.45
570.895,3525.55
571.395,3600.85
571.896,3594.3
572.397,3597.3
572.897,3588.2
573.397,3544.55
573.898,3542.75
574.398,3514.75
574.898,3501.75
575.398,3521.4
575.898,3587.95
576.398,3697.6
576.898,3688.85
577.398,3562.0
577.898,3481.0
578.398,3452.7
578.897,3454.95
579.397,3456.7
579.896,3457.5
580.396,3463.65
580.895,3477.3
581.395,3462.9
581.894,3467.9
582.393,3472.8
582.892,3463.8
583.391,3528.6
583.89,3493.2
584.389,3481.0
584.888,3481.55
585.387,3445.45
585.886,3418.7
586.384,3399.9
586.883,3395.35
587.381,3464.7
587.88,3462.65
588.378,3407.4
588.876,3408.5
589.375,3374.05
589.873,3365.4
590.371,3370.8
590.869,3381.65
591.367,3375.0
591.865,3398.7
592.363,3408.85
592.86,3411.45
593.358,3390.4
593.856,3412.2
594.353,3389.8
594.851,3442.75
595.348,3412.3
595.845,3432.25
596.342,3442.15
596.84,3477.7
597.337,3454.75
597.834,3473.55
598.331,3483.45
598.828,3462.3
599.324,3500.1
599.821,3522.35
600.318,3531.65
600.814,3550.35
601.311,3570.2
601.807,3564.3
602.304,3540.15
602.8,3575.9
603.296,3603.85
603.792,3614.6
604.288,3616.75
604.784,3650.75
605.28,3639.7
605.776,3649.0
606.272,3664.3
606.767,3661.55
607.263,3684.75
607.759,3683.25
608.254,3709.8
608.749,3716.9
609.245,3690.55
609.74,3644.9
610.235,3664.9
610.73,3690.8
611.225,3704.2
611.72,3671.25
612.215,3651.0
612.71,3652.45
613.204,3655.2
613.699,3646.95
614.194,3648.65
614.688,3639.55
615.182,3641.2
615.677,3591.1
616.171,3612.8
616.665,3614.75
617.159,3562.35
617.653,3585.25
618.147,3547.45
618.641,3585.15
619.135,3527.7
619.628,3549.35
620.122,3560.05
620.615,3504.95
621.109,3471.75
621.602,3494.8
622.095,3502.0
622.589,3468.1
623.082,3449.2
623.575,3465.5
624.068,3456.5
624.561,3423.75
625.053,3431.9
625.546,3355.15
626.039,3405.2
626.531,3432.85
627.024,3689.35
627.516,3783.0
628.008,3770.05
628.501,4139.55
628.993,3832.5
629.485,3765.0
629.977,3743.55
630.469,3840.5
630.96,3899.9
631.452,3725.1
631.944,3512.4
632.435,3454.75
632.927,3409.0
633.418,3349.45
633.91,3314.85
634.401,3223.15
634.892,3189.65
635.383,3175.8
635.874,3163.2
636.365,3122.4
636.856,3107.7
637.346,3112.45
637.837,3110.55
638.327,3102.85
638.818,3061.0
639.308,3061.1
639.799,3035.55
640.289,3068.15
640.779,3009.3
641.269,2993.95
641.759,3017.9
642.249,2999.45
642.738,2991.15
643.228,2980.25
643.718,2996.1
644.207,2989.05
644.697,2983.25
645.186,2959.5
645.675,2970.85
646.164,2935.5
646.653,2942.5
647.142,2920.85
647.631,2888.75
648.12,2891.65
648.609,2875.2
649.098,2843.75
649.586,2832.3
650.075,2842.15
650.563,2855.95
651.051,2838.55
651.539,2829.3
652.027,2811.3
652.515,2781.0
653.003,2782.65
653.491,2783.6
653.979,2766.55
654.467,2768.05
654.954,2734.8
655.442,2736.0
655.929,2719.2
656.416,2708.25
656.904,2705.3
657.391,2688.7
657.878,2681.05
658.365,2674.3
658.851,2691.2
659.338,2634.1
659.825,2617.75
660.311,2642.35
660.798,2639.5
661.041,2628.25

File: VLFR_08-PLA_bio_Raman_fdaaa86a.csv
nm,Intensity
526.495,829.8
527.042,828.467
527.589,828.633
528.136,829.233
528.682,828.467
529.229,828.8
529.775,829.533
530.321,828.5
530.867,828.7
531.413,828.567
531.959,829.5
532.505,829.3
533.051,828.9
533.596,830.233
534.141,943.067
534.687,913.167
535.232,904.633
535.777,907.133
536.321,900.667
536.866,896.6
537.41,896.0
537.955,901.733
538.499,899.767
539.043,892.167
539.587,890.5
540.131,892.733
540.675,896.133
541.219,897.2
541.762,895.267
542.305,899.6
542.849,899.133
543.392,900.3
543.935,903.967
544.478,901.4
545.02,904.0
545.563,903.533
546.106,899.6
546.648,901.433
547.19,903.6
547.732,905.7
548.274,905.1
548.816,905.033
549.358,910.733
549.9,910.0
550.441,911.5
550.983,908.933
551.524,912.3
552.065,910.9
552.606,909.3
553.147,909.2
553.688,906.133
554.229,909.333
554.769,908.6
555.31,908.133
555.85,908.467
556.391,907.5
556.931,909.0
557.471,910.533
558.011,931.633
558.551,913.433
559.09,910.367
559.63,911.0
560.169,909.4
560.709,912.2
561.248,910.967
561.787,912.133
562.326,930.633
562.865,916.4
563.404,922.967
563.943,919.4
564.481,917.367
565.02,922.5
565.558,922.133
566.096,926.067
566.634,922.167
567.172,916.333
567.71,917.533
568.248,921.333
568.786,922.167
569.324,923.267
569.861,923.433
570.399,922.033
570.936,921.167
571.473,925.733
572.01,925.533
572.547,924.967
573.084,926.4
573.621,928.867
574.158,926.1
574.694,932.4
575.231,925.433
575.767,927.333
576.303,929.733
576.84,943.9
577.376,935.133
577.912,928.433
578.448,930.4
578.984,929.333
579.519,932.9
580.055,930.167
580.59,933.2
581.126,937.4
581.661,939.733
582.196,938.333
582.731,936.433
583.267,940.7
583.801,935.367
584.336,935.333
584.871,935.967
585.406,935.667
585.94,935.6
586.475,938.267
587.009,947.067
587.543,949.033
588.078,940.867
588.612,937.7
589.146,933.2
589.68,934.633
590.214,936.867
590.747,934.5
591.281,937.067
591.815,935.733
592.348,935.667
592.881,934.433
593.415,934.1
593.948,936.067
594.481,938.133
595.014,935.033
595.547,935.667
596.08,935.933
596.613,940.033
597.146,938.667
597.678,936.633
598.211,939.233
598.743,938.433
599.276,938.4
599.808,939.367
600.34,937.633
600.872,937.633
601.404,935.8
601.936,937.533
602.468,937.7
603.0,936.367
603.532,938.233
604.064,939.367
604.595,935.0
605.127,935.367
605.658,934.867
606.189,934.167
606.721,934.733
607.252,931.8
607.783,934.467
608.314,933.567
608.845,935.533
609.376,934.467
609.907,935.433
610.438,933.7
610.968,932.6
611.499,932.2
612.029,932.533
612.56,935.333
613.09,938.033
613.621,936.2
614.151,937.433
614.681,937.933
615.211,933.933
615.741,936.633
616.271,933.6
616.801,932.867
617.331,934.533
617.861,935.533
618.39,935.067
618.92,934.667
619.45,933.0
619.979,933.5
620.509,933.567
621.038,934.8
621.567,936.2
622.096,934.4
622.626,937.2
623.155,936.4
623.684,937.167
624.213,937.233
624.742,935.467
625.271,934.533
625.799,932.933
626.328,932.8
626.857,932.233
627.386,933.4
627.914,935.7
628.443,947.767
628.971,943.133
629.5,944.0
630.028,947.3
630.556,958.233
631.084,1033.03
631.613,983.233
632.141,957.9
632.669,953.3
633.197,970.433
633.725,964.167
634.253,941.767
634.781,934.5
635.308,933.4
635.836,932.067
636.364,931.133
636.891,929.9
637.419,928.933
637.947,929.8
638.474,931.533
639.002,933.8
639.529,933.0
640.056,937.967
640.584,937.033
641.111,936.867
641.638,935.967
642.165,938.533
642.692,938.0
643.219,940.967
643.746,940.233
644.273,941.633
644.8,942.333
645.327,950.5
645.854,960.733
646.381,969.8
646.908,983.1
647.434,990.733
647.961,993.033
648.488,989.0
649.014,989.433
649.541,992.0
650.067,993.5
650.594,990.4
651.12,983.867
651.646,973.467
652.173,967.333
652.699,959.7
653.225,956.267
653.752,954.033
654.278,953.633
654.804,946.767
655.33,937.967
655.856,931.8
656.382,927.967
656.908,924.933
657.434,920.267
657.96,918.567
658.486,916.033
659.012,915.033
659.538,914.0
660.064,912.633
660.589,910.6
661.115,909.0
661.641,907.767
662.166,906.833
662.692,907.967
663.086,905.367

File: VLFR_08-PLA_bio_Raman_fe216e7c.csv
nm,Intensity
526.495,826.9
527.042,827.1
527.589,828.3
528.136,827.4
528.682,826.1
529.229,827.9
529.775,826.4
530.321,826.2
530.867,825.7
531.413,827.6
531.959,832.5
532.505,829.2
533.051,826.5
533.596,828.8
534.141,969.1
534.687,938.3
535.232,913.8
535.777,902.6
536.321,897.6
536.866,898.6
537.41,892.8
537.955,892.5
538.499,883.6
539.043,883.5
539.587,878.1
540.131,876.0
540.675,888.7
541.219,890.7
541.762,885.4
542.305,876.5
542.849,876.9
543.392,894.3
543.935,899.9
544.478,887.0
545.02,878.9
545.563,876.6
546.106,877.0
546.648,877.6
547.19,878.6
547.732,880.3
548.274,879.5
548.816,880.3
549.358,882.0
549.9,882.0
550.441,881.8
550.983,884.3
551.524,886.8
552.065,888.0
552.606,888.2
553.147,887.8
553.688,887.8
554.229,891.9
554.769,890.1
555.31,884.8
555.85,879.9
556.391,882.6
556.931,884.2
557.471,896.2
558.011,987.6
558.551,912.7
559.09,896.1
559.63,893.9
560.169,890.7
560.709,887.2
561.248,888.8
561.787,884.9
562.326,886.0
562.865,900.6
563.404,923.7
563.943,906.5
564.481,897.5
565.02,912.9
565.558,908.0
566.096,929.0
566.634,911.9
567.172,893.0
567.71,896.5
568.248,899.0
568.786,899.9
569.324,898.0
569.861,895.6
570.399,896.4
570.936,901.9
571.473,918.0
572.01,914.3
572.547,909.7
573.084,906.5
573.621,911.5
574.158,908.6
574.694,918.7
575.231,901.4
575.767,898.8
576.303,914.7
576.84,957.2
577.376,916.9
577.912,905.4
578.448,901.0
578.984,904.4
579.519,905.2
580.055,900.9
580.59,904.5
581.126,902.3
581.661,905.1
582.196,901.7
582.731,903.2
583.267,905.4
583.801,904.0
584.336,902.9
584.871,905.1
585.406,905.1
585.94,906.9
586.475,915.4
587.009,941.5
587.543,951.8
588.078,923.1
588.612,905.0
589.146,908.2
589.68,905.0
590.214,908.0
590.747,908.3
591.281,906.5
591.815,908.4
592.348,906.1
592.881,906.4
593.415,905.6
593.948,909.2
594.481,904.9
595.014,910.9
595.547,907.3
596.08,907.4
596.613,907.3
597.146,908.0
597.678,908.5
598.211,907.6
598.743,911.0
599.276,910.2
599.808,910.1
600.34,910.0
600.872,912.0
601.404,911.7
601.936,909.1
602.468,915.3
603.0,910.9
603.532,911.6
604.064,911.3
604.595,910.1
605.127,911.7
605.658,909.4
606.189,905.0
606.721,909.2
607.252,907.1
607.783,912.5
608.314,910.9
608.845,914.5
609.376,910.4
609.907,913.0
610.438,911.2
610.968,909.6
611.499,913.0
612.029,910.7
612.56,913.0
613.09,913.9
613.621,914.3
614.151,917.3
614.681,917.0
615.211,917.9
615.741,915.9
616.271,918.0
616.801,918.4
617.331,917.1
617.861,912.3
618.39,915.9
618.92,915.3
619.45,917.0
619.979,918.7
620.509,915.9
621.038,918.8
621.567,918.9
622.096,917.7
622.626,924.8
623.155,928.3
623.684,924.2
624.213,920.9
624.742,922.9
625.271,920.7
625.799,918.2
626.328,914.2
626.857,920.3
627.386,923.0
627.914,932.8
628.443,972.9
628.971,963.8
629.5,970.5
630.028,969.6
630.556,1014.7
631.084,1288.8
631.613,1111.5
632.141,1009.0
632.669,997.2
633.197,1072.0
633.725,1041.8
634.253,973.6
634.781,936.1
635.308,923.0
635.836,920.7
636.364,915.1
636.891,921.1
637.419,914.1
637.947,914.9
638.474,914.6
639.002,915.3
639.529,913.2
640.056,919.4
640.584,916.5
641.111,916.4
641.638,915.9
642.165,913.6
642.692,914.6
643.219,913.5
643.746,911.6
644.273,908.8
644.8,912.1
645.327,908.0
645.854,910.3
646.381,910.2
646.908,907.8
647.434,909.8
647.961,910.2
648.488,910.1
649.014,908.5
649.541,908.5
650.067,906.8
650.594,907.6
651.12,904.6
651.646,908.3
652.173,910.6
652.699,904.1
653.225,908.3
653.752,909.4
654.278,909.5
654.804,907.1
655.33,906.3
655.856,907.9
656.382,909.2
656.908,906.1
657.434,907.2
657.96,905.7
658.486,905.5
659.012,907.2
659.538,905.5
660.064,905.1
660.589,905.0
661.115,904.7
661.641,905.0
662.166,904.6
662.692,904.7
663.086,903.0

File: VLFR_08-PLA_nobio_Raman_0a4cea11.csv
cm-1,Intensity
-123.878,1853.35
-105.821,1852.65
-87.8007,1854.4
-69.8161,1852.65
-51.8675,1854.1
-33.9547,1854.15
-16.0776,1880.9
1.76388,2999.8
19.5698,1855.4
37.3403,1854.75
55.0755,1980.4
72.7754,2315.15
90.4402,2300.85
108.07,2308.7
125.665,2310.4
143.225,2290.15
160.75,2307.3
178.241,2289.5
195.697,2304.75
213.119,2296.1
230.506,2285.75
247.859,2318.8
265.178,2299.4
282.463,2328.15
299.713,2344.0
316.93,2364.65
334.113,2347.0
351.263,2369.4
368.379,2397.5
385.461,2418.9
402.51,2436.75
419.526,2404.05
436.508,2422.15
453.458,2408.15
470.374,2402.75
487.257,2399.95
504.107,2442.8
520.925,2422.6
537.71,2416.05
554.462,2436.15
571.182,2435.25
587.87,2425.2
604.525,2449.85
621.148,2444.45
637.739,2468.8
654.297,2455.25
670.824,2482.75
687.319,2469.75
703.782,2475.0
720.213,2477.8
736.613,2495.9
752.981,2491.35
769.317,2512.05
785.623,2504.6
801.897,2489.65
818.139,2507.65
834.351,2516.15
850.532,2512.55
866.681,2664.0
882.8,2611.35
898.888,2559.25
914.945,2552.9
930.972,2549.85
946.968,2568.05
962.934,2569.25
978.869,2575.75
994.774,2592.65
1010.65,2556.6
1026.49,2627.45
1042.31,2688.0
1058.09,2632.9
1073.85,2673.6
1089.57,2783.75
1105.27,2731.0
1120.93,2763.0
1136.57,2715.85
1152.18,2660.05
1167.75,2654.2
1183.3,2651.35
1198.82,2620.1
1214.31,2629.4
1229.77,2646.15
1245.2,2667.25
1260.6,2649.35
1275.97,2644.9
1291.32,2715.3
1306.63,2722.3
1321.92,2733.6
1337.18,2725.75
1352.41,2741.45
1367.61,2731.25
1382.78,2753.9
1397.93,2709.3
1413.05,2711.4
1428.14,2719.2
1443.2,2748.05
1458.23,2774.25
1473.23,2711.8
1488.21,2688.95
1503.16,2666.7
1518.08,2662.2
1532.97,2702.05
1547.84,2670.9
1562.68,2684.0
1577.49,2694.8
1592.27,2672.75
1607.03,2681.95
1621.76,2700.85
1636.46,2669.75
1651.14,2698.1
1665.78,2685.45
1680.41,2718.3
1695.0,2687.85
1709.57,2685.75
1724.11,2675.5
1738.62,2680.25
1753.11,2712.4
1767.57,2772.2
1782.01,2735.05
1796.41,2700.15
1810.8,2691.8
1825.15,2667.05
1839.48,2663.55
1853.79,2688.25
1868.06,2677.4
1882.31,2674.6
1896.54,2678.6
1910.74,2676.65
1924.91,2696.5
1939.06,2686.65
1953.19,2684.75
1967.28,2685.2
1981.35,2686.4
1995.4,2687.9
2009.42,2709.0
2023.42,2705.4
2037.39,2706.55
2051.33,2689.85
2065.25,2711.05
2079.15,2692.2
2093.01,2693.85
2106.86,2703.75
2120.68,2731.0
2134.47,2687.05
2148.24,2714.55
2161.99,2695.2
2175.71,2716.55
2189.41,2698.35
2203.08,2693.95
2216.73,2708.8
2230.35,2698.85
2243.95,2716.3
2257.52,2709.85
2271.07,2703.6
2284.6,2696.25
2298.1,2706.4
2311.58,2698.15
2325.03,2698.15
2338.46,2690.95
2351.87,2727.3
2365.25,2693.3
2378.61,2668.8
2391.94,2694.75
2405.26,2694.25
2418.54,2705.9
2431.81,2708.3
2445.05,2681.4
2458.27,2678.55
2471.46,2684.8
2484.63,2681.15
2497.78,2656.35
2510.9,2674.3
2524.0,2669.8
2537.08,2668.55
2550.14,2658.4
2563.17,2667.9
2576.18,2661.95
2589.17,2665.35
2602.13,2667.35
2615.07,2660.2
2627.99,2668.75
2640.89,2648.7
2653.76,2644.0
2666.61,2660.4
2679.44,2664.6
2692.25,2687.55
2705.03,2662.2
2717.79,2669.2
2730.53,2672.5
2743.25,2669.4
2755.94,2652.55
2768.61,2661.5
2781.27,2621.4
2793.89,2662.2
2806.5,2644.0
2819.09,2666.4
2831.65,2659.25
2844.19,2659.85
2856.71,2689.7
2869.21,2750.5
2881.69,2860.95
2894.14,2867.8
2906.58,2870.3
2918.99,2804.15
2931.38,2884.6
2943.75,3292.85
2956.1,3080.15
2968.42,2836.45
2980.73,2743.95
2993.01,2798.25
3005.28,2820.2
3017.52,2746.85
3029.74,2632.0
3041.94,2588.1
3054.12,2567.1
3066.28,2542.4
3078.42,2549.1
3090.54,2556.65
3102.63,2524.0
3114.71,2533.25
3126.77,2524.6
3138.8,2505.7
3150.82,2511.05
3162.81,2515.95
3174.78,2504.85
3186.74,2494.8
3198.67,2511.1
3210.58,2507.4
3222.47,2481.55
3234.35,2494.6
3246.2,2485.05
3258.03,2474.9
3269.84,2504.45
3281.64,2500.55
3293.41,2490.3
3305.16,2472.8
3316.89,2460.0
3328.61,2460.15
3340.3,2442.0
3351.97,2455.95
3363.63,2446.85
3375.26,2435.4
3386.88,2427.45
3398.47,2416.35
3410.05,2394.55
3421.6,2410.9
3433.14,2414.35
3444.66,2401.75
3456.15,2403.5
3467.63,2380.0
3479.09,2386.55
3490.53,2358.75
3501.96,2383.3
3513.36,2355.45
3524.74,2352.5
3536.11,2358.65
3547.45,2326.8
3558.78,2306.7
3570.09,2320.75
3581.37,2313.5
3592.64,2330.1
3603.9,2308.75
3615.13,2300.75
3626.34,2294.25
3637.54,2289.7
3648.72,2258.85
3659.87,2278.55
3665.45,2261.2