Folder: MPX_specDB/spectra (part 99)

File: VLFR_07-PET_bio_Raman_324d0f71.csv
nm,Intensity
791.377,10327.4
792.477,9449.02
793.576,8853.92
794.676,8651.88
795.775,8511.74
796.874,8406.04
797.973,8419.14
799.072,8465.06
800.171,8397.1
801.27,8359.92
802.368,8437.94
803.467,8310.0
804.565,8269.9
805.664,8096.54
806.762,8047.84
807.86,8012.14
808.958,7914.78
810.056,7844.48
811.153,7811.28
812.251,7826.08
813.349,7615.68
814.446,7603.86
815.543,7578.82
816.64,7584.64
817.737,7438.98
818.834,7402.96
819.931,7299.58
821.028,7268.08
822.125,7231.3
823.221,7089.14
824.317,7079.14
825.414,7100.62
826.51,7078.66
827.606,6943.56
828.702,6842.84
829.797,6792.38
830.893,6967.42
831.988,6679.62
833.084,6692.4
834.179,6632.12
835.274,6680.64
836.369,6594.8
837.464,6658.76
838.559,6554.2
839.654,6580.5
840.748,6668.98
841.843,6776.72
842.937,6527.98
844.031,6433.86
845.125,6363.26
846.219,6203.2
847.313,6171.16
848.407,6119.32
849.5,6116.64
850.593,6034.1
851.687,6110.52
852.78,6136.12
853.873,6085.2
854.966,6003.04
856.059,5933.54
857.151,5922.96
858.244,5949.06
859.336,5978.46
860.428,5967.3
861.52,5918.4
862.612,5810.12
863.704,5732.98
864.796,5815.36
865.888,5715.08
866.979,5672.12
868.07,5655.42
869.162,5659.68
870.253,5655.7
871.344,5735.62
872.434,5814.36
873.525,5908.02
874.615,5766.44
875.706,5563.62
876.796,5525.32
877.886,5478.34
878.976,5430.28
880.066,5415.42
881.156,5396.12
882.245,5399.72
883.335,5382.58
884.424,5352.02
885.513,5357.04
886.602,5332.14
887.691,5268.0
888.78,5208.06
889.868,5219.42
890.957,5225.1
892.045,5231.34
893.133,5175.74
894.221,5140.7
895.309,5106.68
896.397,5089.4
897.484,5271.22
898.571,5693.36
899.659,5395.24
900.746,5021.74
901.833,4974.54
902.92,4958.1
904.006,4941.3
905.093,4924.58
906.179,4968.5
907.266,5232.74
908.352,5273.14
909.438,5055.54
910.523,4863.84
911.609,4753.96
912.695,4743.12
913.78,4720.9
914.865,4691.14
915.95,4652.76
917.035,4633.96
918.12,4634.02
919.204,4604.84
920.289,4581.06
921.373,4555.54
922.457,4524.62
923.541,4521.34
924.625,4494.04
925.709,4471.98
926.792,4453.6
927.876,4444.42
928.959,4404.44
930.042,4371.82
931.125,4380.76
932.208,4365.36
933.29,4323.8
934.373,4329.7
935.455,4302.22
936.537,4283.18
937.619,4260.36
938.701,4256.84
939.782,4233.02
940.864,4242.5
941.945,4210.32
943.026,4185.68
944.107,4169.62
945.188,4172.14
946.269,4156.92
947.349,4150.18
948.43,4129.92
949.51,4117.32
950.59,4106.86
951.67,4090.34
952.75,4083.02
953.829,4074.32
954.909,4063.66
955.988,4059.0
957.067,4041.38
958.146,4033.34
959.224,4031.34
960.303,4021.82
961.381,4011.98
962.459,4003.7
963.537,3997.08
964.615,3988.72
965.693,3989.0
966.771,3975.4
967.848,3969.96
968.925,3967.24
970.002,3958.38
971.079,3946.36
972.156,3946.7
973.232,3942.1
974.309,3934.5
975.385,3935.72
976.461,3924.54
977.537,3918.38
978.612,3918.02
979.688,3907.44
980.763,3912.44
981.838,3901.1
982.913,3894.44
983.988,3895.9
985.063,3888.18
986.137,3888.22
987.211,3883.32
988.285,3880.58
989.359,3875.6
990.433,3871.96
991.506,3865.16
992.58,3860.5
993.653,3859.08
994.726,3860.1
995.799,3851.88
996.872,3852.44
997.944,3848.2
999.016,3846.46
1000.09,3844.5
1001.16,3840.54
1002.23,3839.88
1003.3,3838.4
1004.38,3834.7
1005.45,3831.04
1006.52,3831.24
1007.59,3829.62
1008.66,3826.22
1009.73,3821.48
1010.8,3820.82
1011.87,3820.7
1012.94,3817.9
1014.01,3819.12
1015.08,3815.4
1016.15,3815.98
1017.22,3813.06
1018.29,3811.84
1019.36,3810.18
1020.42,3812.7
1021.49,3813.84
1022.56,3815.66
1023.63,3816.72
1024.7,3811.14
1025.76,3807.3
1026.83,3805.04
1027.9,3802.04
1028.97,3798.74
1030.03,3796.66
1031.1,3795.88
1032.17,3797.52
1033.23,3795.76
1034.3,3798.06
1035.36,3799.06
1036.43,3799.72
1037.5,3795.82
1038.56,3792.08
1039.63,3791.06
1040.69,3791.32
1041.76,3788.44
1042.82,3788.04
1043.89,3788.5
1044.95,3786.82
1046.01,3785.46
1047.08,3786.5
1048.14,3786.48
1049.2,3785.36
1050.27,3785.6
1051.33,3784.9
1052.39,3784.54
1053.46,3784.58
1054.52,3783.6
1055.58,3783.28
1056.64,3784.2
1057.7,3783.88
1058.77,3782.8
1059.83,3783.26
1060.89,3783.02
1061.95,3782.4
1063.01,3782.64
1064.07,3782.34
1065.13,3782.42
1066.19,3782.28
1067.25,3781.2
1068.05,3781.74

File: VLFR_07-PET_bio_Raman_687cd977.csv
nm,Intensity
791.75,6508.35
792.846,6339.55
793.942,6328.8
795.037,6229.65
796.133,6180.9
797.228,6238.05
798.324,6226.3
799.419,6267.35
800.514,6179.25
801.61,6200.2
802.705,6147.6
803.8,6126.1
804.894,6142.25
805.989,6086.65
807.084,6034.4
808.178,6001.1
809.273,5970.6
810.367,5937.8
811.461,5961.35
812.556,5883.7
813.65,5856.7
814.744,5834.65
815.837,5794.15
816.931,5726.1
818.025,5720.25
819.118,5717.9
820.212,5725.45
821.305,5671.05
822.398,5620.0
823.491,5586.1
824.585,5578.35
825.677,5621.9
826.77,5508.95
827.863,5489.1
828.956,5445.0
830.048,5473.15
831.14,5448.55
832.233,5400.35
833.325,5366.55
834.417,5354.45
835.509,5311.05
836.601,5324.7
837.692,5321.8
838.784,5284.9
839.876,5222.45
840.967,5279.8
842.058,5286.2
843.149,5199.9
844.24,5213.5
845.331,5148.15
846.422,5115.7
847.513,5123.1
848.604,5068.25
849.694,5062.05
850.784,5041.25
851.875,5081.05
852.965,5012.2
854.055,5006.4
855.145,4968.9
856.235,5029.5
857.324,5007.5
858.414,4983.2
859.503,5018.15
860.593,4995.55
861.682,4949.75
862.771,4948.55
863.86,4935.9
864.949,4907.2
866.038,4905.35
867.126,4866.35
868.215,4869.2
869.303,4884.5
870.391,4890.35
871.479,4903.05
872.567,4945.15
873.655,4894.15
874.743,4881.25
875.831,4806.45
876.918,4843.2
878.006,4791.25
879.093,4774.3
880.18,4745.9
881.267,4770.95
882.354,4738.8
883.441,4696.6
884.527,4718.0
885.614,4709.55
886.7,4681.55
887.786,4676.2
888.872,4648.55
889.958,4632.4
891.044,4640.45
892.13,4593.85
893.216,4591.15
894.301,4560.0
895.386,4548.85
896.472,4554.6
897.557,4593.45
898.642,4662.45
899.726,4589.3
900.811,4488.6
901.896,4455.6
902.98,4473.75
904.064,4441.05
905.148,4426.65
906.232,4477.4
907.316,4506.1
908.4,4508.6
909.484,4437.4
910.567,4376.05
911.65,4356.45
912.734,4332.0
913.817,4306.5
914.9,4295.95
915.982,4260.6
917.065,4278.8
918.147,4248.2
919.23,4254.6
920.312,4223.05
921.394,4227.15
922.476,4221.75
923.558,4190.3
924.639,4190.2
925.721,4171.05
926.802,4169.75
927.884,4148.1
928.965,4125.45
930.046,4118.6
931.126,4119.6
932.207,4097.1
933.288,4095.05
934.368,4074.3
935.448,4051.95
936.528,4057.4
937.608,4045.55
938.688,4043.8
939.767,4033.05
940.847,4020.95
941.926,4016.45
943.005,3999.35
944.084,3996.75
945.163,3981.35
946.242,3986.5
947.321,3975.9
948.399,3971.3
949.477,3962.65
950.556,3950.2
951.634,3945.7
952.711,3938.5
953.789,3937.9
954.867,3926.9
955.944,3922.85
957.021,3925.3
958.098,3911.35
959.175,3901.8
960.252,3898.45
961.328,3891.15
962.405,3892.75
963.481,3889.55
964.557,3883.7
965.633,3876.45
966.709,3875.75
967.785,3868.25
968.86,3867.75
969.936,3855.75
971.011,3854.25
972.086,3856.2
973.161,3849.85
974.235,3844.0
975.31,3846.85
976.384,3837.1
977.459,3840.55
978.533,3833.0
979.607,3830.05
980.68,3825.1
981.754,3824.8
982.827,3824.2
983.901,3817.35
984.974,3815.8
986.047,3818.0
987.119,3813.2
988.192,3812.1
989.264,3807.8
990.337,3801.75
991.409,3804.35
992.481,3797.0
993.553,3799.4
994.624,3793.3
995.696,3792.05
996.767,3788.15
997.838,3788.05
998.909,3790.45
999.98,3786.85
1001.05,3780.75
1002.12,3782.65
1003.19,3777.8
1004.26,3776.6
1005.33,3775.5
1006.4,3774.25
1007.47,3772.1
1008.54,3768.65
1009.61,3767.65
1010.68,3770.0
1011.75,3767.5
1012.82,3764.4
1013.88,3764.7
1014.95,3762.4
1016.02,3761.95
1017.09,3761.15
1018.16,3759.85
1019.22,3758.45
1020.29,3759.4
1021.36,3760.0
1022.43,3762.85
1023.49,3759.35
1024.56,3756.45
1025.63,3754.9
1026.69,3753.55
1027.76,3753.55
1028.83,3750.4
1029.89,3748.9
1030.96,3749.35
1032.02,3748.85
1033.09,3749.55
1034.15,3749.0
1035.22,3749.8
1036.28,3748.9
1037.35,3747.0
1038.41,3744.4
1039.48,3745.5
1040.54,3744.2
1041.6,3743.6
1042.67,3742.25
1043.73,3742.85
1044.79,3741.35
1045.86,3742.0
1046.92,3741.65
1047.98,3740.55
1049.05,3740.45
1050.11,3740.9
1051.17,3739.85
1052.23,3739.2
1053.29,3740.75
1054.36,3739.0
1055.42,3740.65
1056.48,3739.2
1057.54,3738.6
1058.6,3739.5
1059.66,3738.55
1060.72,3738.95
1061.78,3738.75
1062.84,3738.6
1063.9,3738.3
1064.96,3737.75
1066.02,3738.35
1067.08,3738.25
1067.88,3737.9

File: VLFR_07-PET_bio_Raman_708f4ecb.csv
nm,Intensity
791.588,10274.5
792.685,9875.6
793.781,9613.2
794.878,9475.2
795.975,9371.0
797.071,9348.7
798.168,9368.0
799.264,9414.9
800.36,9360.7
801.456,9326.9
802.552,9216.7
803.648,9079.6
804.744,9094.3
805.84,8989.0
806.936,9006.5
808.031,8849.2
809.127,8799.3
810.222,8800.6
811.317,8683.3
812.412,8593.0
813.507,8462.3
814.602,8492.1
815.697,8393.8
816.792,8232.0
817.887,8348.9
818.981,8182.7
820.076,8101.9
821.17,8017.8
822.265,7893.9
823.359,7860.2
824.453,7795.1
825.547,7846.1
826.641,7771.4
827.735,7593.7
828.828,7633.6
829.922,7541.1
831.016,7642.6
832.109,7464.6
833.202,7408.3
834.295,7255.8
835.388,7233.1
836.481,7220.8
837.574,7272.0
838.667,7244.8
839.76,7164.8
840.852,7213.5
841.945,7246.8
843.037,7094.1
844.129,7070.8
845.221,6931.9
846.314,6899.6
847.405,6828.4
848.497,6776.3
849.589,6679.8
850.68,6733.0
851.772,6715.5
852.863,6678.3
853.955,6627.8
855.046,6572.6
856.137,6513.7
857.228,6487.5
858.318,6505.3
859.409,6508.1
860.5,6526.7
861.59,6372.6
862.681,6382.5
863.771,6332.8
864.861,6294.1
865.951,6219.6
867.041,6116.3
868.131,6137.4
869.22,6126.7
870.31,6134.9
871.399,6203.8
872.488,6229.7
873.578,6243.2
874.667,6099.6
875.756,5986.4
876.845,5950.1
877.933,5905.7
879.022,5844.7
880.11,5821.6
881.199,5783.2
882.287,5796.0
883.375,5760.1
884.463,5740.4
885.551,5741.6
886.639,5666.9
887.726,5593.0
888.814,5586.7
889.901,5541.6
890.988,5537.6
892.075,5503.0
893.162,5443.8
894.249,5406.6
895.336,5351.0
896.423,5302.8
897.509,5393.4
898.595,5577.6
899.682,5395.1
900.768,5160.3
901.854,5180.5
902.94,5103.2
904.025,5115.3
905.111,5111.8
906.196,5134.5
907.282,5191.5
908.367,5211.8
909.452,5045.7
910.537,4917.6
911.622,4912.3
912.706,4840.8
913.791,4835.7
914.875,4766.6
915.959,4785.4
917.044,4733.3
918.128,4730.7
919.211,4692.4
920.295,4656.8
921.379,4620.6
922.462,4628.4
923.546,4579.8
924.629,4576.5
925.712,4536.3
926.795,4504.2
927.877,4490.9
928.96,4440.9
930.043,4432.6
931.125,4415.5
932.207,4378.9
933.289,4342.8
934.371,4315.3
935.453,4326.9
936.535,4284.4
937.616,4266.7
938.697,4269.2
939.779,4265.7
940.86,4235.9
941.941,4223.2
943.022,4199.5
944.102,4183.2
945.183,4166.7
946.263,4143.2
947.343,4139.4
948.423,4131.8
949.503,4125.5
950.583,4109.9
951.663,4084.2
952.742,4085.3
953.822,4069.3
954.901,4056.2
955.98,4057.4
957.059,4028.3
958.137,4030.3
959.216,4018.7
960.294,4007.8
961.373,4002.2
962.451,3989.1
963.529,3979.6
964.607,3977.4
965.684,3969.1
966.762,3952.4
967.839,3943.7
968.917,3956.6
969.994,3942.1
971.071,3930.8
972.147,3927.7
973.224,3922.4
974.3,3913.6
975.377,3899.2
976.453,3894.1
977.529,3887.5
978.605,3890.6
979.68,3882.6
980.756,3881.0
981.831,3875.5
982.907,3870.0
983.982,3864.1
985.057,3859.1
986.131,3856.7
987.206,3852.2
988.28,3846.9
989.355,3846.8
990.429,3837.0
991.503,3836.9
992.576,3830.4
993.65,3827.5
994.723,3820.1
995.797,3818.3
996.87,3817.0
997.943,3812.4
999.016,3809.4
1000.09,3805.2
1001.16,3800.9
1002.23,3799.9
1003.31,3798.2
1004.38,3791.6
1005.45,3796.3
1006.52,3794.0
1007.59,3786.7
1008.66,3787.6
1009.73,3781.8
1010.81,3781.5
1011.88,3777.2
1012.95,3778.4
1014.02,3777.2
1015.09,3773.2
1016.16,3771.3
1017.23,3769.0
1018.3,3769.5
1019.37,3766.4
1020.44,3763.9
1021.51,3764.7
1022.58,3767.2
1023.64,3765.0
1024.71,3762.6
1025.78,3758.3
1026.85,3757.4
1027.92,3755.4
1028.99,3752.2
1030.05,3752.4
1031.12,3750.3
1032.19,3749.4
1033.26,3748.4
1034.32,3750.5
1035.39,3750.2
1036.46,3748.2
1037.52,3748.0
1038.59,3745.7
1039.66,3743.9
1040.72,3742.2
1041.79,3742.3
1042.86,3741.7
1043.92,3740.9
1044.99,3740.0
1046.05,3738.8
1047.12,3738.3
1048.18,3740.0
1049.25,3739.5
1050.31,3737.2
1051.37,3735.8
1052.44,3735.0
1053.5,3737.5
1054.57,3737.3
1055.63,3737.1
1056.69,3738.0
1057.76,3736.4
1058.82,3734.5
1059.88,3737.6
1060.95,3734.4
1062.01,3733.8
1063.07,3734.5
1064.13,3734.7
1065.19,3734.6
1066.26,3733.8
1067.32,3735.1
1068.11,3730.5

File: VLFR_07-PET_bio_Raman_764be8a2.csv
nm,Intensity
791.377,13034.4
792.477,12114.4
793.576,11622.9
794.676,11419.1
795.775,11166.0
796.874,11182.9
797.973,11024.7
799.072,11213.0
800.171,11112.7
801.27,11191.5
802.368,11000.4
803.467,10915.6
804.565,10999.8
805.664,10659.5
806.762,10708.9
807.86,10571.2
808.958,10570.7
810.056,10364.2
811.153,10374.1
812.251,10336.8
813.349,10117.0
814.446,9997.04
815.543,10004.7
816.64,9805.08
817.737,9760.16
818.834,9639.32
819.931,9661.86
821.028,9649.04
822.125,9521.28
823.221,9249.98
824.317,9415.1
825.414,9250.62
826.51,9327.0
827.606,9151.94
828.702,8936.08
829.797,8939.54
830.893,9083.12
831.988,8829.1
833.084,8790.64
834.179,8630.94
835.274,8503.46
836.369,8616.76
837.464,8583.76
838.559,8687.94
839.654,8490.56
840.748,8727.12
841.843,8659.18
842.937,8320.3
844.031,8292.34
845.125,8091.78
846.219,7922.36
847.313,7955.18
848.407,7843.9
849.5,7805.58
850.593,7703.0
851.687,7637.1
852.78,7628.68
853.873,7559.36
854.966,7481.76
856.059,7537.76
857.151,7461.46
858.244,7508.96
859.336,7545.06
860.428,7589.52
861.52,7308.32
862.612,7218.96
863.704,7217.48
864.796,7239.74
865.888,7063.14
866.979,7023.72
868.07,7010.8
869.162,7014.12
870.253,6983.86
871.344,7127.7
872.434,7267.22
873.525,7337.88
874.615,7045.02
875.706,6820.44
876.796,6845.32
877.886,6743.3
878.976,6687.38
880.066,6580.76
881.156,6593.82
882.245,6605.34
883.335,6587.56
884.424,6540.44
885.513,6533.48
886.602,6471.36
887.691,6355.16
888.78,6376.32
889.868,6270.94
890.957,6228.08
892.045,6194.4
893.133,6207.88
894.221,6070.9
895.309,6079.04
896.397,6053.04
897.484,6246.88
898.571,6776.38
899.659,6310.26
900.746,5912.92
901.833,5832.58
902.92,5866.28
904.006,5728.24
905.093,5785.04
906.179,5838.26
907.266,6151.6
908.352,6112.42
909.438,5858.88
910.523,5615.64
911.609,5456.78
912.695,5441.28
913.78,5374.96
914.865,5322.84
915.95,5279.14
917.035,5313.34
918.12,5208.5
919.204,5228.52
920.289,5094.9
921.373,5155.54
922.457,5085.88
923.541,5046.58
924.625,5006.5
925.709,5019.46
926.792,4944.54
927.876,4907.48
928.959,4882.96
930.042,4844.42
931.125,4778.76
932.208,4748.6
933.29,4762.44
934.373,4711.1
935.455,4685.24
936.537,4647.58
937.619,4612.42
938.701,4596.8
939.782,4589.34
940.864,4548.16
941.945,4556.36
943.026,4494.46
944.107,4463.78
945.188,4447.1
946.269,4428.82
947.349,4413.54
948.43,4393.82
949.51,4391.78
950.59,4361.08
951.67,4342.08
952.75,4306.2
953.829,4290.24
954.909,4283.96
955.988,4279.24
957.067,4253.38
958.146,4244.46
959.224,4232.0
960.303,4214.82
961.381,4179.8
962.459,4176.94
963.537,4193.48
964.615,4153.2
965.693,4138.98
966.771,4141.62
967.848,4130.12
968.925,4116.48
970.002,4101.76
971.079,4097.2
972.156,4079.64
973.232,4069.9
974.309,4063.16
975.385,4056.82
976.461,4038.96
977.537,4030.92
978.612,4030.98
979.688,4019.92
980.763,3999.24
981.838,4004.68
982.913,4002.44
983.988,3986.34
985.063,3981.48
986.137,3983.38
987.211,3965.52
988.285,3961.86
989.359,3950.26
990.433,3949.18
991.506,3939.26
992.58,3931.5
993.653,3932.1
994.726,3924.7
995.799,3914.54
996.872,3909.76
997.944,3907.4
999.016,3906.72
1000.09,3895.56
1001.16,3893.24
1002.23,3887.04
1003.3,3881.74
1004.38,3878.12
1005.45,3877.0
1006.52,3873.58
1007.59,3868.08
1008.66,3862.8
1009.73,3856.44
1010.8,3854.4
1011.87,3853.0
1012.94,3849.78
1014.01,3846.56
1015.08,3846.54
1016.15,3842.22
1017.22,3837.36
1018.29,3837.98
1019.36,3836.42
1020.42,3832.1
1021.49,3833.32
1022.56,3841.18
1023.63,3836.52
1024.7,3828.42
1025.76,3823.6
1026.83,3820.46
1027.9,3818.84
1028.97,3812.0
1030.03,3808.9
1031.1,3806.7
1032.17,3807.18
1033.23,3807.54
1034.3,3809.94
1035.36,3809.62
1036.43,3807.58
1037.5,3802.1
1038.56,3798.8
1039.63,3797.38
1040.69,3796.96
1041.76,3794.44
1042.82,3793.78
1043.89,3792.18
1044.95,3791.24
1046.01,3789.28
1047.08,3788.52
1048.14,3788.1
1049.2,3788.04
1050.27,3787.9
1051.33,3786.56
1052.39,3786.54
1053.46,3786.92
1054.52,3784.9
1055.58,3786.46
1056.64,3784.34
1057.7,3784.92
1058.77,3784.24
1059.83,3784.1
1060.89,3783.22
1061.95,3783.18
1063.01,3782.46
1064.07,3783.14
1065.13,3783.02
1066.19,3781.56
1067.25,3782.0
1068.05,3780.56

File: VLFR_07-PET_bio_Raman_889bb726.csv
nm,Intensity
791.75,9528.4
792.846,9146.65
793.942,8957.0
795.037,8855.6
796.133,8811.6
797.228,8805.35
798.324,8868.5
799.419,8806.95
800.514,8752.15
801.61,8711.75
802.705,8663.9
803.8,8643.1
804.894,8538.0
805.989,8585.9
807.084,8515.4
808.178,8528.7
809.273,8375.7
810.367,8325.45
811.461,8395.5
812.556,8243.0
813.65,8176.6
814.744,8052.75
815.837,8031.1
816.931,7900.15
818.025,7896.5
819.118,7742.55
820.212,7903.8
821.305,7804.2
822.398,7674.75
823.491,7583.55
824.585,7539.05
825.677,7639.45
826.77,7386.95
827.863,7354.85
828.956,7368.7
830.048,7267.0
831.14,7262.9
832.233,7178.95
833.325,7116.75
834.417,7073.9
835.509,7086.1
836.601,7033.45
837.692,7026.7
838.784,6994.75
839.876,7007.15
840.967,7114.1
842.058,7009.3
843.149,6917.15
844.24,6788.85
845.331,6720.3
846.422,6667.25
847.513,6650.35
848.604,6581.55
849.694,6611.0
850.784,6555.85
851.875,6550.7
852.965,6551.45
854.055,6520.05
855.145,6410.55
856.235,6341.55
857.324,6342.05
858.414,6392.4
859.503,6460.8
860.593,6375.4
861.682,6259.35
862.771,6269.85
863.86,6247.45
864.949,6212.75
866.038,6113.4
867.126,6093.25
868.215,6043.45
869.303,6078.65
870.391,6057.55
871.479,6159.35
872.567,6172.85
873.655,6176.75
874.743,6010.5
875.831,5977.5
876.918,5943.85
878.006,5904.95
879.093,5824.4
880.18,5810.3
881.267,5838.2
882.354,5807.85
883.441,5726.05
884.527,5733.7
885.614,5737.9
886.7,5665.35
887.786,5561.4
888.872,5627.85
889.958,5580.45
891.044,5538.4
892.13,5537.65
893.216,5479.8
894.301,5406.4
895.386,5416.9
896.472,5374.0
897.557,5493.2
898.642,5689.35
899.726,5400.0
900.811,5262.5
901.896,5199.1
902.98,5192.0
904.064,5158.3
905.148,5230.8
906.232,5229.8
907.316,5357.2
908.4,5281.35
909.484,5128.45
910.567,5026.75
911.65,4972.65
912.734,4945.7
913.817,4881.3
914.9,4873.25
915.982,4847.55
917.065,4838.6
918.147,4814.15
919.23,4762.9
920.312,4755.1
921.394,4729.9
922.476,4705.3
923.558,4682.75
924.639,4636.85
925.721,4623.0
926.802,4588.85
927.884,4567.8
928.965,4525.5
930.046,4493.65
931.126,4476.7
932.207,4441.0
933.288,4448.6
934.368,4388.6
935.448,4396.8
936.528,4350.15
937.608,4339.7
938.688,4344.45
939.767,4313.75
940.847,4306.4
941.926,4265.05
943.005,4278.6
944.084,4245.6
945.163,4229.5
946.242,4188.25
947.321,4221.55
948.399,4169.85
949.477,4178.45
950.556,4169.65
951.634,4145.3
952.711,4141.05
953.789,4112.3
954.867,4115.85
955.944,4088.25
957.021,4081.45
958.098,4077.3
959.175,4059.8
960.252,4036.15
961.328,4046.8
962.405,4034.25
963.481,4010.6
964.557,4018.1
965.633,4009.45
966.709,3998.35
967.785,3994.55
968.86,3984.75
969.936,3976.3
971.011,3966.4
972.086,3961.5
973.161,3955.35
974.235,3946.1
975.31,3936.75
976.384,3923.75
977.459,3922.25
978.533,3922.1
979.607,3912.95
980.68,3904.0
981.754,3903.8
982.827,3899.7
983.901,3898.9
984.974,3887.85
986.047,3881.05
987.119,3878.3
988.192,3872.5
989.264,3867.85
990.337,3864.7
991.409,3863.7
992.481,3855.7
993.553,3845.8
994.624,3846.55
995.696,3843.2
996.767,3836.8
997.838,3837.05
998.909,3836.3
999.98,3829.3
1001.05,3820.8
1002.12,3821.9
1003.19,3820.9
1004.26,3816.45
1005.33,3813.25
1006.4,3810.15
1007.47,3805.0
1008.54,3805.1
1009.61,3795.5
1010.68,3799.05
1011.75,3796.0
1012.82,3790.65
1013.88,3793.6
1014.95,3788.65
1016.02,3786.75
1017.09,3784.0
1018.16,3781.5
1019.22,3784.35
1020.29,3782.45
1021.36,3780.9
1022.43,3778.8
1023.49,3778.45
1024.56,3773.65
1025.63,3775.3
1026.69,3768.55
1027.76,3766.2
1028.83,3761.8
1029.89,3762.15
1030.96,3761.2
1032.02,3760.95
1033.09,3759.9
1034.15,3759.2
1035.22,3760.1
1036.28,3759.3
1037.35,3757.1
1038.41,3752.1
1039.48,3752.1
1040.54,3752.75
1041.6,3749.9
1042.67,3749.3
1043.73,3748.25
1044.79,3746.7
1045.86,3746.5
1046.92,3745.4
1047.98,3745.6
1049.05,3746.85
1050.11,3744.3
1051.17,3744.8
1052.23,3744.15
1053.29,3744.55
1054.36,3743.75
1055.42,3743.5
1056.48,3743.4
1057.54,3741.0
1058.6,3742.55
1059.66,3741.35
1060.72,3741.8
1061.78,3742.5
1062.84,3740.75
1063.9,3740.15
1064.96,3740.3
1066.02,3739.45
1067.08,3740.05
1067.88,3740.05

File: VLFR_07-PET_bio_Raman_1352fdf4.csv
nm,Intensity
791.75,10474.0
792.846,10149.3
793.942,9745.65
795.037,9700.8
796.133,9723.8
797.228,9714.05
798.324,9671.8
799.419,9692.4
800.514,9599.4
801.61,9632.15
802.705,9630.35
803.8,9518.95
804.894,9415.1
805.989,9485.3
807.084,9275.7
808.178,9241.9
809.273,9125.7
810.367,9095.2
811.461,9046.75
812.556,8936.3
813.65,8814.4
814.744,8695.15
815.837,8687.6
816.931,8634.3
818.025,8599.85
819.118,8401.7
820.212,8555.25
821.305,8331.95
822.398,8266.15
823.491,8178.35
824.585,8146.85
825.677,8224.1
826.77,8028.35
827.863,7943.0
828.956,7814.8
830.048,7897.15
831.14,7792.7
832.233,7649.25
833.325,7581.2
834.417,7533.05
835.509,7502.05
836.601,7480.45
837.692,7469.7
838.784,7437.75
839.876,7279.7
840.967,7449.75
842.058,7365.55
843.149,7250.85
844.24,7139.8
845.331,7024.75
846.422,7043.0
847.513,6883.25
848.604,6847.15
849.694,6826.7
850.784,6834.25
851.875,6804.0
852.965,6809.25
854.055,6708.55
855.145,6747.45
856.235,6720.5
857.324,6641.9
858.414,6712.85
859.503,6638.35
860.593,6607.6
861.682,6546.25
862.771,6549.15
863.86,6458.35
864.949,6503.5
866.038,6340.05
867.126,6388.8
868.215,6267.75
869.303,6296.85
870.391,6342.45
871.479,6455.1
872.567,6518.5
873.655,6428.7
874.743,6245.6
875.831,6184.05
876.918,6119.8
878.006,6105.7
879.093,6118.95
880.18,6021.65
881.267,5997.2
882.354,5969.85
883.441,5992.0
884.527,5972.15
885.614,5881.8
886.7,5875.05
887.786,5862.95
888.872,5771.6
889.958,5731.6
891.044,5752.15
892.13,5695.15
893.216,5645.85
894.301,5596.3
895.386,5533.8
896.472,5521.2
897.557,5696.4
898.642,5779.45
899.726,5583.9
900.811,5398.2
901.896,5333.6
902.98,5259.05
904.064,5299.75
905.148,5287.2
906.232,5313.3
907.316,5437.15
908.4,5400.55
909.484,5256.25
910.567,5105.25
911.65,5078.25
912.734,5005.75
913.817,4983.4
914.9,4932.5
915.982,4896.9
917.065,4898.45
918.147,4857.45
919.23,4818.95
920.312,4844.8
921.394,4800.05
922.476,4733.25
923.558,4736.15
924.639,4669.45
925.721,4652.5
926.802,4643.35
927.884,4608.5
928.965,4557.9
930.046,4558.5
931.126,4515.3
932.207,4474.3
933.288,4451.75
934.368,4456.95
935.448,4409.3
936.528,4384.25
937.608,4405.55
938.688,4364.2
939.767,4331.7
940.847,4330.8
941.926,4300.25
943.005,4284.55
944.084,4248.4
945.163,4257.25
946.242,4233.6
947.321,4226.55
948.399,4187.8
949.477,4197.1
950.556,4169.65
951.634,4159.45
952.711,4160.8
953.789,4129.25
954.867,4131.05
955.944,4103.55
957.021,4111.05
958.098,4090.05
959.175,4071.85
960.252,4058.05
961.328,4064.65
962.405,4045.55
963.481,4031.2
964.557,4037.45
965.633,4017.05
966.709,4025.6
967.785,4005.3
968.86,3991.7
969.936,3990.75
971.011,3983.4
972.086,3973.3
973.161,3970.15
974.235,3956.0
975.31,3948.5
976.384,3935.75
977.459,3934.7
978.533,3931.95
979.607,3926.0
980.68,3917.45
981.754,3912.9
982.827,3908.25
983.901,3899.4
984.974,3895.4
986.047,3889.15
987.119,3888.2
988.192,3883.95
989.264,3881.5
990.337,3875.9
991.409,3866.2
992.481,3862.45
993.553,3859.55
994.624,3850.1
995.696,3850.5
996.767,3841.6
997.838,3843.5
998.909,3838.05
999.98,3828.45
1001.05,3824.3
1002.12,3829.1
1003.19,3820.45
1004.26,3816.8
1005.33,3815.9
1006.4,3811.4
1007.47,3810.2
1008.54,3803.3
1009.61,3800.85
1010.68,3799.7
1011.75,3798.4
1012.82,3793.35
1013.88,3793.95
1014.95,3789.6
1016.02,3788.25
1017.09,3785.5
1018.16,3781.5
1019.22,3784.45
1020.29,3780.9
1021.36,3780.05
1022.43,3782.35
1023.49,3779.6
1024.56,3773.85
1025.63,3772.95
1026.69,3765.05
1027.76,3763.95
1028.83,3762.45
1029.89,3763.75
1030.96,3761.8
1032.02,3760.2
1033.09,3760.1
1034.15,3760.35
1035.22,3760.5
1036.28,3758.55
1037.35,3756.75
1038.41,3753.2
1039.48,3752.0
1040.54,3748.9
1041.6,3749.95
1042.67,3749.05
1043.73,3746.9
1044.79,3747.2
1045.86,3745.55
1046.92,3746.2
1047.98,3744.5
1049.05,3745.65
1050.11,3743.5
1051.17,3744.1
1052.23,3743.85
1053.29,3744.25
1054.36,3742.2
1055.42,3742.7
1056.48,3740.9
1057.54,3739.35
1058.6,3741.15
1059.66,3741.15
1060.72,3740.95
1061.78,3739.1
1062.84,3740.45
1063.9,3738.45
1064.96,3739.45
1066.02,3737.95
1067.08,3737.55
1067.88,3737.3