Folder: MPX_specDB/spectra (part 105)

File: VLFR_07-PET_bio_Raman_cba08596.csv
nm,Intensity
791.377,15085.2
792.477,13640.9
793.576,12537.3
794.676,12440.8
795.775,11769.9
796.874,11798.1
797.973,11674.2
799.072,11710.1
800.171,11700.5
801.27,11525.0
802.368,11709.3
803.467,11404.6
804.565,11170.9
805.664,11112.4
806.762,10985.3
807.86,10810.9
808.958,10840.0
810.056,10610.7
811.153,10556.8
812.251,10572.8
813.349,10326.3
814.446,10297.9
815.543,10341.1
816.64,10176.3
817.737,9964.22
818.834,9840.68
819.931,9828.66
821.028,9611.64
822.125,9663.3
823.221,9406.14
824.317,9410.48
825.414,9487.28
826.51,9406.92
827.606,9133.4
828.702,9051.88
829.797,8863.24
830.893,9238.02
831.988,8711.04
833.084,8763.2
834.179,8639.82
835.274,8631.86
836.369,8563.28
837.464,8730.26
838.559,8535.08
839.654,8606.16
840.748,8717.14
841.843,8902.04
842.937,8505.38
844.031,8371.14
845.125,8177.62
846.219,7975.92
847.313,7886.38
848.407,7770.1
849.5,7729.78
850.593,7712.82
851.687,7730.24
852.78,7787.72
853.873,7719.66
854.966,7608.2
856.059,7496.58
857.151,7443.16
858.244,7498.48
859.336,7648.5
860.428,7584.72
861.52,7561.78
862.612,7276.24
863.704,7192.3
864.796,7305.88
865.888,7152.66
866.979,7022.8
868.07,7022.72
869.162,7050.28
870.253,7008.4
871.344,7200.52
872.434,7460.82
873.525,7530.2
874.615,7255.08
875.706,6942.72
876.796,6853.8
877.886,6745.18
878.976,6626.58
880.066,6644.78
881.156,6668.1
882.245,6612.5
883.335,6638.04
884.424,6565.7
885.513,6561.0
886.602,6473.78
887.691,6433.42
888.78,6322.56
889.868,6291.72
890.957,6295.2
892.045,6329.84
893.133,6220.88
894.221,6188.08
895.309,6125.94
896.397,6081.34
897.484,6418.22
898.571,7166.74
899.659,6692.28
900.746,5968.26
901.833,5850.44
902.92,5865.9
904.006,5803.6
905.093,5814.62
906.179,5867.34
907.266,6382.56
908.352,6420.9
909.438,6079.64
910.523,5671.94
911.609,5497.4
912.695,5441.68
913.78,5430.68
914.865,5389.56
915.95,5337.58
917.035,5302.12
918.12,5240.76
919.204,5227.84
920.289,5168.82
921.373,5128.72
922.457,5087.36
923.541,5049.18
924.625,5070.5
925.709,4999.08
926.792,4954.32
927.876,4923.44
928.959,4881.26
930.042,4857.68
931.125,4807.82
932.208,4833.18
933.29,4755.8
934.373,4734.94
935.455,4705.12
936.537,4664.02
937.619,4631.84
938.701,4634.38
939.782,4594.58
940.864,4601.94
941.945,4553.14
943.026,4519.56
944.107,4490.1
945.188,4475.38
946.269,4446.36
947.349,4424.78
948.43,4414.42
949.51,4382.76
950.59,4373.94
951.67,4348.42
952.75,4351.16
953.829,4321.72
954.909,4299.9
955.988,4300.6
957.067,4255.08
958.146,4244.4
959.224,4238.98
960.303,4217.28
961.381,4210.68
962.459,4190.52
963.537,4174.98
964.615,4161.08
965.693,4166.26
966.771,4149.86
967.848,4130.98
968.925,4132.86
970.002,4103.38
971.079,4103.08
972.156,4083.44
973.232,4079.7
974.309,4068.7
975.385,4074.62
976.461,4051.86
977.537,4041.06
978.612,4027.78
979.688,4018.2
980.763,4024.46
981.838,4006.92
982.913,4002.52
983.988,3991.7
985.063,3987.0
986.137,3984.38
987.211,3971.94
988.285,3964.22
989.359,3958.3
990.433,3955.64
991.506,3946.22
992.58,3932.66
993.653,3933.84
994.726,3930.42
995.799,3916.2
996.872,3916.22
997.944,3913.18
999.016,3903.56
1000.09,3902.24
1001.16,3894.38
1002.23,3896.82
1003.3,3888.72
1004.38,3887.46
1005.45,3877.82
1006.52,3877.2
1007.59,3875.2
1008.66,3868.3
1009.73,3865.7
1010.8,3859.6
1011.87,3860.36
1012.94,3855.24
1014.01,3853.72
1015.08,3851.8
1016.15,3849.84
1017.22,3846.56
1018.29,3840.98
1019.36,3842.58
1020.42,3846.56
1021.49,3846.5
1022.56,3853.2
1023.63,3850.62
1024.7,3844.56
1025.76,3833.94
1026.83,3829.66
1027.9,3825.98
1028.97,3818.64
1030.03,3815.9
1031.1,3812.76
1032.17,3814.5
1033.23,3814.66
1034.3,3819.9
1035.36,3821.3
1036.43,3818.82
1037.5,3812.9
1038.56,3804.48
1039.63,3802.26
1040.69,3801.48
1041.76,3798.74
1042.82,3795.94
1043.89,3796.42
1044.95,3795.44
1046.01,3793.0
1047.08,3794.1
1048.14,3792.12
1049.2,3791.46
1050.27,3791.38
1051.33,3792.4
1052.39,3791.18
1053.46,3790.36
1054.52,3789.62
1055.58,3789.98
1056.64,3789.3
1057.7,3789.02
1058.77,3788.54
1059.83,3788.82
1060.89,3787.76
1061.95,3787.78
1063.01,3786.82
1064.07,3788.76
1065.13,3786.98
1066.19,3785.92
1067.25,3785.96
1068.05,3785.26

File: VLFR_07-PET_bio_Raman_ce93eaab.csv
nm,Intensity
791.75,7944.65
792.846,7841.65
793.942,7766.7
795.037,7757.25
796.133,7601.2
797.228,7704.05
798.324,7563.75
799.419,7527.45
800.514,7554.0
801.61,7558.0
802.705,7467.55
803.8,7439.65
804.894,7396.35
805.989,7361.95
807.084,7364.9
808.178,7282.75
809.273,7234.75
810.367,7166.3
811.461,7206.25
812.556,7204.3
813.65,7017.8
814.744,7029.4
815.837,6951.7
816.931,6938.35
818.025,6818.35
819.118,6864.65
820.212,6885.7
821.305,6717.35
822.398,6633.45
823.491,6644.95
824.585,6614.7
825.677,6626.5
826.77,6614.15
827.863,6499.25
828.956,6434.95
830.048,6383.0
831.14,6349.0
832.233,6312.1
833.325,6271.3
834.417,6249.4
835.509,6197.05
836.601,6155.1
837.692,6251.65
838.784,6157.1
839.876,6171.75
840.967,6120.6
842.058,6191.35
843.149,6024.2
844.24,6020.3
845.331,5954.95
846.422,5971.95
847.513,5918.05
848.604,5891.15
849.694,5833.3
850.784,5884.05
851.875,6043.2
852.965,6015.7
854.055,5822.85
855.145,5753.6
856.235,5766.25
857.324,5760.05
858.414,5729.85
859.503,5766.0
860.593,5752.7
861.682,5662.5
862.771,5670.7
863.86,5674.95
864.949,5633.5
866.038,5543.85
867.126,5551.25
868.215,5489.15
869.303,5572.5
870.391,5567.4
871.479,5547.35
872.567,5628.15
873.655,5580.1
874.743,5486.65
875.831,5439.8
876.918,5410.7
878.006,5376.85
879.093,5413.25
880.18,5368.65
881.267,5287.9
882.354,5353.7
883.441,5286.4
884.527,5268.3
885.614,5261.9
886.7,5244.75
887.786,5185.95
888.872,5172.75
889.958,5146.95
891.044,5112.25
892.13,5107.9
893.216,5059.2
894.301,5007.0
895.386,4980.65
896.472,4986.9
897.557,5055.6
898.642,5126.05
899.726,5019.05
900.811,4852.6
901.896,4824.75
902.98,4851.55
904.064,4845.5
905.148,4798.2
906.232,4853.15
907.316,4907.65
908.4,4888.5
909.484,4743.35
910.567,4704.85
911.65,4670.3
912.734,4599.0
913.817,4610.15
914.9,4558.5
915.982,4587.0
917.065,4530.35
918.147,4529.55
919.23,4511.2
920.312,4510.85
921.394,4475.6
922.476,4453.2
923.558,4435.3
924.639,4425.5
925.721,4368.3
926.802,4389.7
927.884,4356.1
928.965,4313.4
930.046,4309.65
931.126,4290.6
932.207,4256.0
933.288,4222.85
934.368,4244.05
935.448,4239.85
936.528,4192.75
937.608,4184.95
938.688,4182.0
939.767,4159.8
940.847,4167.1
941.926,4147.3
943.005,4129.55
944.084,4120.2
945.163,4097.15
946.242,4102.0
947.321,4095.35
948.399,4070.05
949.477,4062.85
950.556,4059.75
951.634,4050.3
952.711,4031.55
953.789,4027.6
954.867,4022.8
955.944,4014.3
957.021,4001.2
958.098,3993.85
959.175,3995.3
960.252,3984.45
961.328,3971.85
962.405,3976.3
963.481,3954.15
964.557,3958.5
965.633,3947.45
966.709,3945.45
967.785,3941.3
968.86,3932.9
969.936,3933.45
971.011,3924.1
972.086,3914.6
973.161,3907.05
974.235,3903.75
975.31,3892.1
976.384,3899.65
977.459,3888.95
978.533,3883.05
979.607,3880.3
980.68,3875.2
981.754,3880.6
982.827,3863.25
983.901,3866.7
984.974,3862.8
986.047,3856.5
987.119,3852.7
988.192,3851.05
989.264,3847.1
990.337,3848.0
991.409,3843.7
992.481,3834.4
993.553,3831.75
994.624,3829.7
995.696,3828.05
996.767,3823.2
997.838,3823.55
998.909,3819.95
999.98,3814.95
1001.05,3809.85
1002.12,3810.4
1003.19,3806.9
1004.26,3804.05
1005.33,3802.7
1006.4,3799.6
1007.47,3796.3
1008.54,3793.6
1009.61,3791.9
1010.68,3788.2
1011.75,3785.35
1012.82,3787.2
1013.88,3785.15
1014.95,3783.95
1016.02,3780.15
1017.09,3779.45
1018.16,3775.95
1019.22,3777.3
1020.29,3776.3
1021.36,3775.05
1022.43,3776.8
1023.49,3774.35
1024.56,3771.3
1025.63,3768.25
1026.69,3764.35
1027.76,3763.9
1028.83,3761.25
1029.89,3760.6
1030.96,3758.7
1032.02,3758.75
1033.09,3759.95
1034.15,3761.25
1035.22,3758.8
1036.28,3757.3
1037.35,3753.5
1038.41,3754.65
1039.48,3752.0
1040.54,3750.45
1041.6,3749.9
1042.67,3748.3
1043.73,3749.6
1044.79,3750.15
1045.86,3747.4
1046.92,3747.7
1047.98,3745.4
1049.05,3745.65
1050.11,3746.95
1051.17,3745.8
1052.23,3746.2
1053.29,3743.7
1054.36,3744.65
1055.42,3745.1
1056.48,3743.5
1057.54,3743.1
1058.6,3744.0
1059.66,3744.8
1060.72,3742.0
1061.78,3743.1
1062.84,3742.7
1063.9,3743.5
1064.96,3741.9
1066.02,3741.4
1067.08,3741.75
1067.88,3742.25

File: VLFR_07-PET_bio_Raman_ce6691d9.csv
nm,Intensity
791.588,9991.4
792.685,9491.3
793.781,9218.4
794.878,9060.4
795.975,8963.2
797.071,9017.0
798.168,9005.8
799.264,9030.8
800.36,9023.0
801.456,9007.8
802.552,8983.4
803.648,8816.4
804.744,8780.1
805.84,8749.9
806.936,8611.9
808.031,8525.3
809.127,8445.0
810.222,8268.8
811.317,8301.4
812.412,8201.0
813.507,8083.9
814.602,8117.8
815.697,7955.6
816.792,7864.6
817.887,7843.4
818.981,7767.2
820.076,7799.1
821.17,7718.3
822.265,7683.5
823.359,7575.6
824.453,7634.8
825.547,7551.2
826.641,7578.5
827.735,7476.9
828.828,7407.7
829.922,7353.2
831.016,7316.2
832.109,7281.4
833.202,7193.9
834.295,7149.2
835.388,7037.1
836.481,7090.3
837.574,7037.2
838.667,7025.2
839.76,7014.8
840.852,7026.6
841.945,7067.8
843.037,6904.4
844.129,6782.1
845.221,6690.2
846.314,6602.0
847.405,6543.1
848.497,6447.4
849.589,6481.4
850.68,6378.6
851.772,6440.0
852.863,6397.6
853.955,6305.9
855.046,6293.3
856.137,6243.2
857.228,6220.2
858.318,6278.8
859.409,6289.0
860.5,6261.3
861.59,6190.0
862.681,6141.8
863.771,6109.5
864.861,6158.6
865.951,6011.5
867.041,6022.1
868.131,5999.1
869.22,5961.1
870.31,6023.5
871.399,5990.7
872.488,6144.0
873.578,6180.2
874.667,5999.6
875.756,5936.9
876.845,5842.2
877.933,5824.6
879.022,5769.6
880.11,5791.1
881.199,5768.6
882.287,5762.2
883.375,5693.1
884.463,5697.9
885.551,5684.4
886.639,5604.9
887.726,5598.4
888.814,5564.8
889.901,5565.4
890.988,5501.2
892.075,5480.4
893.162,5457.3
894.249,5410.1
895.336,5382.4
896.423,5318.9
897.509,5520.2
898.595,5692.3
899.682,5429.6
900.768,5220.9
901.854,5157.7
902.94,5157.2
904.025,5136.0
905.111,5096.3
906.196,5169.9
907.282,5276.6
908.367,5280.8
909.452,5090.9
910.537,4965.6
911.622,4892.0
912.706,4892.0
913.791,4847.7
914.875,4824.9
915.959,4765.4
917.044,4756.2
918.128,4736.1
919.211,4688.1
920.295,4680.8
921.379,4657.5
922.462,4616.3
923.546,4582.3
924.629,4563.0
925.712,4543.6
926.795,4533.1
927.877,4463.6
928.96,4460.0
930.043,4434.7
931.125,4421.5
932.207,4384.5
933.289,4363.9
934.371,4365.4
935.453,4332.2
936.535,4306.3
937.616,4294.8
938.697,4279.5
939.779,4262.4
940.86,4256.4
941.941,4231.8
943.022,4211.4
944.102,4194.6
945.183,4176.5
946.263,4167.8
947.343,4155.0
948.423,4152.5
949.503,4121.7
950.583,4106.8
951.663,4114.0
952.742,4087.8
953.822,4086.3
954.901,4074.9
955.98,4064.8
957.059,4052.9
958.137,4044.4
959.216,4042.2
960.294,4034.1
961.373,4013.5
962.451,4005.3
963.529,3995.8
964.607,3995.7
965.684,3982.1
966.762,3972.3
967.839,3977.4
968.917,3972.9
969.994,3957.8
971.071,3950.6
972.147,3944.5
973.224,3939.1
974.3,3928.1
975.377,3920.9
976.453,3920.5
977.529,3916.2
978.605,3912.3
979.68,3895.8
980.756,3901.0
981.831,3894.8
982.907,3890.3
983.982,3882.2
985.057,3876.4
986.131,3869.9
987.206,3871.5
988.28,3867.9
989.355,3872.4
990.429,3863.5
991.503,3853.3
992.576,3847.1
993.65,3846.8
994.723,3844.6
995.797,3837.4
996.87,3835.5
997.943,3830.7
999.016,3826.2
1000.09,3824.5
1001.16,3823.3
1002.23,3823.9
1003.31,3816.9
1004.38,3811.1
1005.45,3810.8
1006.52,3805.8
1007.59,3803.3
1008.66,3795.2
1009.73,3796.4
1010.81,3794.5
1011.88,3795.8
1012.95,3792.4
1014.02,3788.9
1015.09,3789.7
1016.16,3789.6
1017.23,3785.8
1018.3,3786.2
1019.37,3779.3
1020.44,3779.7
1021.51,3784.4
1022.58,3781.2
1023.64,3779.8
1024.71,3778.7
1025.78,3774.5
1026.85,3765.3
1027.92,3770.0
1028.99,3765.5
1030.05,3765.7
1031.12,3765.2
1032.19,3762.3
1033.26,3762.9
1034.32,3763.8
1035.39,3762.6
1036.46,3764.0
1037.52,3761.9
1038.59,3757.3
1039.66,3756.2
1040.72,3756.1
1041.79,3755.6
1042.86,3755.6
1043.92,3753.5
1044.99,3752.7
1046.05,3752.3
1047.12,3751.9
1048.18,3750.8
1049.25,3750.5
1050.31,3750.1
1051.37,3747.4
1052.44,3748.6
1053.5,3749.9
1054.57,3748.8
1055.63,3748.5
1056.69,3747.7
1057.76,3748.8
1058.82,3748.8
1059.88,3747.6
1060.95,3747.4
1062.01,3747.6
1063.07,3747.4
1064.13,3747.4
1065.19,3746.6
1066.26,3746.6
1067.32,3743.3
1068.11,3744.8

File: VLFR_07-PET_bio_Raman_d3f00772.csv
nm,Intensity
791.496,10157.8
792.594,9537.6
793.692,9291.9
794.79,9151.0
795.888,9056.2
796.986,9111.1
798.083,9051.9
799.181,8964.4
800.278,8943.7
801.375,8985.4
802.473,8970.6
803.57,8743.2
804.667,8712.7
805.764,8723.0
806.86,8569.8
807.957,8537.2
809.054,8525.0
810.15,8367.7
811.246,8307.0
812.343,8330.5
813.439,8281.4
814.535,8187.6
815.631,8171.6
816.727,8079.5
817.822,8013.7
818.918,7886.9
820.013,7849.8
821.109,7775.0
822.204,7688.0
823.299,7622.6
824.394,7550.6
825.489,7733.8
826.584,7515.9
827.679,7422.4
828.774,7395.4
829.868,7343.9
830.963,7262.6
832.057,7173.4
833.151,7096.5
834.245,7095.7
835.339,7024.1
836.433,7074.0
837.527,6996.1
838.621,7005.8
839.714,6962.5
840.808,7196.4
841.901,7000.8
842.994,6863.0
844.087,6736.6
845.18,6693.0
846.273,6560.5
847.366,6534.4
848.458,6501.7
849.551,6484.1
850.643,6442.5
851.735,6436.1
852.828,6433.8
853.92,6312.7
855.012,6332.1
856.103,6288.5
857.195,6256.2
858.287,6319.9
859.378,6397.1
860.469,6335.3
861.56,6123.8
862.651,6127.7
863.742,6111.9
864.833,6123.5
865.924,6046.6
867.014,5980.9
868.105,5949.5
869.195,5955.6
870.285,6012.8
871.376,6081.2
872.465,6182.6
873.555,6098.4
874.645,5960.1
875.735,5835.8
876.824,5757.9
877.913,5748.7
879.002,5678.1
880.092,5697.9
881.18,5674.0
882.269,5669.4
883.358,5602.6
884.446,5563.7
885.535,5593.5
886.623,5547.3
887.711,5466.9
888.799,5436.7
889.887,5452.7
890.975,5431.7
892.062,5395.5
893.15,5375.7
894.237,5301.6
895.325,5315.0
896.412,5342.4
897.499,5671.9
898.585,5673.7
899.672,5357.5
900.759,5173.3
901.845,5109.3
902.931,5083.6
904.017,5070.5
905.103,5082.7
906.189,5243.7
907.275,5388.0
908.361,5264.5
909.446,5041.3
910.531,4918.3
911.616,4871.8
912.701,4865.3
913.786,4828.0
914.871,4783.5
915.956,4750.5
917.04,4748.2
918.124,4722.3
919.209,4680.2
920.293,4656.6
921.376,4622.9
922.46,4602.4
923.544,4589.9
924.627,4564.6
925.711,4507.9
926.794,4494.1
927.877,4491.4
928.96,4457.3
930.042,4450.5
931.125,4401.6
932.207,4409.0
933.29,4370.8
934.372,4362.3
935.454,4331.7
936.536,4325.8
937.617,4297.8
938.699,4290.9
939.78,4259.4
940.861,4262.2
941.943,4214.6
943.023,4216.7
944.104,4189.3
945.185,4160.9
946.265,4169.3
947.346,4156.2
948.426,4137.7
949.506,4126.7
950.586,4109.8
951.665,4088.4
952.745,4088.1
953.824,4070.8
954.904,4060.6
955.983,4038.6
957.062,4033.5
958.141,4027.0
959.219,4025.1
960.298,4006.2
961.376,3987.1
962.454,3981.2
963.532,3973.9
964.61,3953.5
965.688,3951.8
966.765,3951.2
967.842,3941.4
968.92,3937.1
969.997,3929.8
971.074,3919.3
972.15,3911.4
973.227,3906.4
974.303,3894.9
975.379,3884.7
976.455,3880.7
977.531,3880.2
978.607,3872.0
979.683,3861.0
980.758,3861.9
981.833,3857.4
982.908,3849.9
983.983,3842.9
985.058,3839.4
986.133,3834.9
987.207,3833.3
988.281,3829.7
989.355,3824.3
990.429,3814.8
991.503,3816.1
992.577,3813.1
993.65,3807.6
994.723,3800.2
995.796,3798.0
996.869,3795.0
997.942,3792.1
999.014,3789.0
1000.09,3783.1
1001.16,3784.0
1002.23,3778.4
1003.3,3777.8
1004.37,3774.7
1005.45,3771.0
1006.52,3771.0
1007.59,3764.3
1008.66,3762.8
1009.73,3758.9
1010.8,3759.3
1011.87,3759.1
1012.94,3754.8
1014.01,3753.3
1015.08,3749.1
1016.15,3752.2
1017.22,3749.5
1018.29,3745.7
1019.36,3747.1
1020.43,3748.4
1021.5,3748.7
1022.57,3749.9
1023.64,3743.1
1024.7,3743.1
1025.77,3740.5
1026.84,3737.1
1027.91,3734.7
1028.97,3732.6
1030.04,3728.1
1031.11,3727.5
1032.18,3729.2
1033.24,3729.9
1034.31,3732.6
1035.38,3730.1
1036.44,3727.3
1037.51,3726.0
1038.58,3721.2
1039.64,3719.2
1040.71,3720.8
1041.77,3719.6
1042.84,3718.8
1043.9,3716.6
1044.97,3716.8
1046.03,3715.9
1047.1,3715.6
1048.16,3713.9
1049.22,3714.1
1050.29,3714.4
1051.35,3715.9
1052.42,3713.6
1053.48,3715.1
1054.54,3714.0
1055.61,3712.5
1056.67,3711.7
1057.73,3713.9
1058.79,3714.3
1059.86,3713.8
1060.92,3713.0
1061.98,3712.3
1063.04,3712.5
1064.1,3712.0
1065.16,3711.2
1066.22,3711.1
1067.29,3711.2
1068.08,3710.6

File: VLFR_07-PET_bio_Raman_d102cc86.csv
nm,Intensity
528.637,2225.1
529.143,2238.7
529.648,2215.0
530.153,2241.0
530.659,2216.5
531.164,2242.6
531.669,2314.0
532.174,4050.0
532.679,2288.9
533.184,2339.8
533.689,8637.5
534.194,26223.3
534.699,27918.1
535.203,29209.4
535.708,30065.1
536.213,30422.1
536.717,32366.4
537.222,33951.7
537.726,35743.9
538.231,35823.2
538.735,37265.0
539.24,38819.3
539.744,40408.5
540.248,42111.3
540.752,43757.1
541.256,44716.3
541.761,46939.9
542.265,48904.3
542.769,50401.2
543.272,54157.4
543.776,53583.4
544.28,56795.0
544.784,57151.9
545.288,61217.3
545.791,62549.3
546.295,63529.7
546.798,65002.8
547.302,65169.7
547.805,65535.0
548.308,65535.0
548.812,65535.0
549.315,65535.0
549.818,65535.0
550.321,65535.0
550.824,65535.0
551.327,65535.0
551.83,65535.0
552.333,65535.0
552.836,65535.0
553.339,65535.0
553.842,65535.0
554.344,65535.0
554.847,65535.0
555.349,65535.0
555.852,65535.0
556.354,65535.0
556.857,65535.0
557.359,65535.0
557.861,65535.0
558.363,65535.0
558.866,65535.0
559.368,65535.0
559.87,65535.0
560.372,65535.0
560.873,65535.0
561.375,65535.0
561.877,65535.0
562.379,65535.0
562.88,65535.0
563.382,65535.0
563.883,65535.0
564.385,65535.0
564.886,65535.0
565.388,65535.0
565.889,65535.0
566.39,65535.0
566.891,65535.0
567.392,65535.0
567.893,65535.0
568.394,65535.0
568.895,65535.0
569.396,65535.0
569.897,65535.0
570.398,65535.0
570.898,65535.0
571.399,65535.0
571.899,65535.0
572.4,65535.0
572.9,65535.0
573.4,65535.0
573.901,65535.0
574.401,65535.0
574.901,65535.0
575.401,65535.0
575.901,65535.0
576.401,65535.0
576.901,65535.0
577.401,65535.0
577.9,65535.0
578.4,65535.0
578.9,65535.0
579.399,65535.0
579.899,65535.0
580.398,65535.0
580.897,65535.0
581.397,65535.0
581.896,65535.0
582.395,65535.0
582.894,65535.0
583.393,65535.0
583.892,65535.0
584.391,65535.0
584.889,65535.0
585.388,65535.0
585.887,65535.0
586.385,65535.0
586.884,65535.0
587.382,65535.0
587.881,65535.0
588.379,65535.0
588.877,65535.0
589.375,65535.0
589.874,65535.0
590.372,65535.0
590.87,65535.0
591.367,65535.0
591.865,65535.0
592.363,65535.0
592.861,65535.0
593.358,65535.0
593.856,65535.0
594.353,65535.0
594.851,65535.0
595.348,65535.0
595.845,65535.0
596.342,65535.0
596.84,65535.0
597.337,65535.0
597.833,65535.0
598.33,65535.0
598.827,65535.0
599.324,65535.0
599.821,65535.0
600.317,65535.0
600.814,65535.0
601.31,65535.0
601.807,65535.0
602.303,65535.0
602.799,65535.0
603.295,65535.0
603.791,65535.0
604.287,65535.0
604.783,65535.0
605.279,65535.0
605.775,65535.0
606.271,65535.0
606.766,65535.0
607.262,65535.0
607.757,65535.0
608.253,65535.0
608.748,65535.0
609.243,65535.0
609.738,65535.0
610.233,65535.0
610.729,65535.0
611.223,65535.0
611.718,65535.0
612.213,65535.0
612.708,65535.0
613.202,65535.0
613.697,65535.0
614.192,65535.0
614.686,65535.0
615.18,65535.0
615.675,65535.0
616.169,65535.0
616.663,65535.0
617.157,65535.0
617.651,65535.0
618.145,65535.0
618.638,65535.0
619.132,65535.0
619.626,65535.0
620.119,65535.0
620.613,65535.0
621.106,65535.0
621.599,65535.0
622.093,65535.0
622.586,65535.0
623.079,65535.0
623.572,65535.0
624.065,65535.0
624.558,65535.0
625.05,65535.0
625.543,65535.0
626.036,65535.0
626.528,65535.0
627.02,65535.0
627.513,65535.0
628.005,65535.0
628.497,65535.0
628.989,65535.0
629.481,65535.0
629.973,65535.0
630.465,65535.0
630.957,65535.0
631.449,65535.0
631.94,65535.0
632.432,65535.0
632.923,65535.0
633.414,65535.0
633.906,65535.0
634.397,65535.0
634.888,65535.0
635.379,65535.0
635.87,65535.0
636.361,65535.0
636.852,65535.0
637.342,65535.0
637.833,65535.0
638.323,65535.0
638.814,65535.0
639.304,65535.0
639.794,65535.0
640.285,65535.0
640.775,65535.0
641.265,65535.0
641.755,65535.0
642.244,65535.0
642.734,65535.0
643.224,65535.0
643.713,65535.0
644.203,65535.0
644.692,65535.0
645.181,65535.0
645.671,65535.0
646.16,65535.0
646.649,65535.0
647.138,65535.0
647.627,65535.0
648.115,65535.0
648.604,65535.0
649.093,65535.0
649.581,65535.0
650.07,65535.0
650.558,65535.0
651.046,65535.0
651.534,65535.0
652.023,65535.0
652.511,65535.0
652.998,65535.0
653.486,65535.0
653.974,65535.0
654.462,65535.0
654.949,65535.0
655.437,65535.0
655.924,65535.0
656.411,65535.0
656.898,65535.0
657.385,65535.0
657.872,65535.0
658.359,65535.0
658.846,65535.0
659.333,65535.0
659.82,65535.0
660.306,65535.0
660.793,65535.0
661.036,65535.0

File: VLFR_07-PET_bio_Raman_d27384ec.csv
nm,Intensity
791.588,6483.4
792.685,6355.9
793.781,6327.6
794.878,6297.6
795.975,6291.1
797.071,6305.6
798.168,6361.9
799.264,6324.5
800.36,6326.2
801.456,6304.9
802.552,6308.8
803.648,6265.8
804.744,6189.2
805.84,6215.7
806.936,6132.3
808.031,6139.2
809.127,6068.5
810.222,6019.1
811.317,5983.8
812.412,5947.1
813.507,5875.1
814.602,5844.6
815.697,5813.6
816.792,5779.0
817.887,5721.6
818.981,5705.2
820.076,5714.4
821.17,5678.2
822.265,5666.2
823.359,5599.9
824.453,5618.3
825.547,5634.1
826.641,5597.3
827.735,5519.3
828.828,5538.3
829.922,5524.3
831.016,5514.4
832.109,5456.5
833.202,5416.5
834.295,5432.3
835.388,5367.0
836.481,5384.3
837.574,5347.9
838.667,5356.9
839.76,5334.7
840.852,5310.3
841.945,5288.5
843.037,5255.3
844.129,5245.1
845.221,5176.3
846.314,5145.8
847.405,5141.8
848.497,5131.7
849.589,5090.0
850.68,5072.4
851.772,5074.6
852.863,5056.8
853.955,5011.5
855.046,5017.6
856.137,5001.8
857.228,5004.3
858.318,4994.6
859.409,4985.1
860.5,4987.8
861.59,4944.0
862.681,4944.9
863.771,4930.2
864.861,4923.1
865.951,4891.5
867.041,4887.4
868.131,4875.8
869.22,4854.6
870.31,4887.4
871.399,4858.8
872.488,4885.1
873.578,4886.0
874.667,4857.9
875.756,4847.7
876.845,4817.4
877.933,4809.6
879.022,4782.8
880.11,4791.0
881.199,4786.6
882.287,4768.8
883.375,4749.3
884.463,4729.8
885.551,4728.6
886.639,4700.1
887.726,4694.2
888.814,4680.8
889.901,4671.0
890.988,4628.9
892.075,4624.9
893.162,4599.9
894.249,4595.3
895.336,4541.3
896.423,4539.0
897.509,4552.2
898.595,4608.9
899.682,4522.4
900.768,4465.3
901.854,4443.0
902.94,4451.5
904.025,4446.3
905.111,4417.8
906.196,4430.2
907.282,4441.1
908.367,4417.9
909.452,4402.8
910.537,4329.9
911.622,4316.2
912.706,4300.1
913.791,4287.7
914.875,4268.8
915.959,4254.7
917.044,4241.3
918.128,4242.1
919.211,4223.3
920.295,4218.9
921.379,4229.6
922.462,4191.5
923.546,4185.7
924.629,4162.5
925.712,4157.6
926.795,4141.2
927.877,4129.6
928.96,4098.8
930.043,4082.6
931.125,4084.2
932.207,4064.2
933.289,4037.6
934.371,4050.5
935.453,4029.9
936.535,4023.6
937.616,4013.3
938.697,4017.1
939.779,4004.2
940.86,4004.2
941.941,3994.0
943.022,3977.6
944.102,3973.7
945.183,3962.8
946.263,3958.4
947.343,3959.5
948.423,3949.4
949.503,3936.0
950.583,3935.8
951.663,3932.6
952.742,3929.4
953.822,3925.8
954.901,3919.1
955.98,3915.1
957.059,3910.0
958.137,3906.9
959.216,3903.7
960.294,3898.9
961.373,3894.0
962.451,3885.2
963.529,3886.5
964.607,3884.0
965.684,3879.7
966.762,3877.7
967.839,3880.4
968.917,3872.5
969.994,3872.9
971.071,3869.1
972.147,3862.7
973.224,3862.1
974.3,3855.5
975.377,3854.4
976.453,3849.6
977.529,3848.4
978.605,3846.1
979.68,3840.1
980.756,3842.0
981.831,3838.5
982.907,3838.4
983.982,3834.0
985.057,3832.7
986.131,3831.7
987.206,3829.4
988.28,3827.5
989.355,3825.2
990.429,3823.4
991.503,3820.6
992.576,3818.1
993.65,3821.6
994.723,3811.5
995.797,3816.7
996.87,3808.6
997.943,3807.4
999.016,3805.4
1000.09,3804.9
1001.16,3805.4
1002.23,3801.3
1003.31,3798.5
1004.38,3799.6
1005.45,3797.4
1006.52,3792.0
1007.59,3796.3
1008.66,3794.2
1009.73,3788.9
1010.81,3787.5
1011.88,3788.9
1012.95,3787.3
1014.02,3786.9
1015.09,3786.4
1016.16,3781.7
1017.23,3781.5
1018.3,3779.9
1019.37,3782.4
1020.44,3779.0
1021.51,3778.0
1022.58,3777.1
1023.64,3777.5
1024.71,3777.3
1025.78,3775.4
1026.85,3770.1
1027.92,3770.9
1028.99,3771.5
1030.05,3771.0
1031.12,3769.1
1032.19,3768.7
1033.26,3767.9
1034.32,3768.0
1035.39,3770.8
1036.46,3768.9
1037.52,3768.6
1038.59,3767.6
1039.66,3765.4
1040.72,3764.2
1041.79,3765.2
1042.86,3764.3
1043.92,3763.9
1044.99,3762.9
1046.05,3762.0
1047.12,3762.4
1048.18,3760.5
1049.25,3760.4
1050.31,3761.1
1051.37,3762.8
1052.44,3760.4
1053.5,3759.8
1054.57,3760.1
1055.63,3760.7
1056.69,3760.3
1057.76,3760.7
1058.82,3763.3
1059.88,3759.2
1060.95,3761.0
1062.01,3760.0
1063.07,3759.3
1064.13,3757.7
1065.19,3760.3
1066.26,3758.8
1067.32,3759.7
1068.11,3757.6