Folder: MPX_specDB/spectra (part 137)

File: VLFR_08-PLA_bio_Raman_a2489497.csv
nm,Intensity
526.495,829.2
527.042,829.0
527.589,828.75
528.136,829.05
528.682,829.0
529.229,828.75
529.775,829.05
530.321,829.4
530.867,828.6
531.413,829.2
531.959,831.0
532.505,829.65
533.051,829.15
533.596,829.45
534.141,998.1
534.687,967.65
535.232,940.45
535.777,926.35
536.321,922.1
536.866,923.55
537.41,916.1
537.955,915.1
538.499,904.75
539.043,902.5
539.587,901.0
540.131,895.45
540.675,906.55
541.219,905.7
541.762,899.85
542.305,898.4
542.849,900.2
543.392,915.5
543.935,924.55
544.478,912.6
545.02,903.45
545.563,912.3
546.106,921.85
546.648,908.85
547.19,902.55
547.732,900.75
548.274,899.55
548.816,900.15
549.358,907.4
549.9,910.85
550.441,914.95
550.983,926.9
551.524,911.6
552.065,910.15
552.606,910.45
553.147,912.75
553.688,907.25
554.229,915.3
554.769,909.35
555.31,907.3
555.85,903.1
556.391,904.45
556.931,907.65
557.471,917.7
558.011,997.6
558.551,931.45
559.09,918.0
559.63,914.85
560.169,913.3
560.709,914.6
561.248,909.35
561.787,932.85
562.326,1065.4
562.865,948.6
563.404,941.4
563.943,927.35
564.481,925.85
565.02,942.15
565.558,939.7
566.096,962.25
566.634,943.25
567.172,924.0
567.71,924.15
568.248,923.5
568.786,926.6
569.324,924.85
569.861,919.25
570.399,919.7
570.936,923.25
571.473,934.45
572.01,935.7
572.547,931.9
573.084,933.2
573.621,934.3
574.158,934.8
574.694,942.0
575.231,922.2
575.767,928.6
576.303,935.3
576.84,977.55
577.376,942.75
577.912,926.65
578.448,926.6
578.984,924.1
579.519,926.95
580.055,926.1
580.59,921.05
581.126,926.3
581.661,927.35
582.196,925.75
582.731,925.95
583.267,927.05
583.801,929.15
584.336,929.35
584.871,928.05
585.406,926.45
585.94,929.7
586.475,939.35
587.009,961.45
587.543,979.75
588.078,948.05
588.612,928.7
589.146,927.55
589.68,929.25
590.214,925.6
590.747,930.8
591.281,929.1
591.815,926.3
592.348,928.1
592.881,926.3
593.415,926.05
593.948,927.05
594.481,923.0
595.014,928.1
595.547,928.9
596.08,923.8
596.613,927.45
597.146,926.45
597.678,929.45
598.211,928.7
598.743,929.75
599.276,926.0
599.808,928.7
600.34,926.45
600.872,926.6
601.404,926.8
601.936,926.45
602.468,925.35
603.0,924.3
603.532,926.7
604.064,925.25
604.595,925.1
605.127,921.8
605.658,920.65
606.189,920.75
606.721,919.15
607.252,920.9
607.783,919.8
608.314,922.1
608.845,921.1
609.376,921.6
609.907,920.9
610.438,919.95
610.968,918.7
611.499,923.3
612.029,920.6
612.56,922.7
613.09,922.3
613.621,924.4
614.151,924.4
614.681,922.3
615.211,920.75
615.741,919.0
616.271,921.15
616.801,923.0
617.331,921.4
617.861,919.2
618.39,919.35
618.92,918.4
619.45,918.35
619.979,922.65
620.509,918.25
621.038,919.35
621.567,919.4
622.096,918.85
622.626,924.95
623.155,929.2
623.684,924.5
624.213,921.9
624.742,917.2
625.271,915.8
625.799,919.45
626.328,918.1
626.857,916.3
627.386,917.0
627.914,923.55
628.443,967.25
628.971,959.4
629.5,957.6
630.028,961.6
630.556,1002.05
631.084,1263.3
631.613,1093.1
632.141,1008.25
632.669,991.3
633.197,1051.4
633.725,1027.7
634.253,961.9
634.781,928.65
635.308,916.65
635.836,917.9
636.364,914.95
636.891,911.35
637.419,906.1
637.947,909.6
638.474,908.1
639.002,908.25
639.529,906.3
640.056,906.75
640.584,907.0
641.111,906.2
641.638,907.25
642.165,905.3
642.692,905.6
643.219,903.1
643.746,902.75
644.273,901.1
644.8,900.65
645.327,897.35
645.854,900.25
646.381,900.3
646.908,901.45
647.434,899.6
647.961,898.85
648.488,897.65
649.014,898.7
649.541,895.85
650.067,898.05
650.594,895.75
651.12,898.2
651.646,896.45
652.173,898.1
652.699,898.45
653.225,896.0
653.752,895.35
654.278,897.5
654.804,894.2
655.33,893.25
655.856,893.85
656.382,893.5
656.908,891.75
657.434,892.3
657.96,892.05
658.486,892.45
659.012,890.05
659.538,889.65
660.064,887.1
660.589,886.45
661.115,886.35
661.641,886.05
662.166,883.05
662.692,887.85
663.086,884.05

File: VLFR_08-PLA_bio_Raman_ab6cd987.csv
nm,Intensity
526.508,829.8
527.055,830.3
527.602,830.7
528.149,830.0
528.695,830.4
529.241,829.2
529.787,830.5
530.334,829.0
530.879,829.8
531.425,830.3
531.971,833.7
532.516,830.1
533.062,828.9
533.607,832.8
534.152,954.2
534.697,923.4
535.242,909.1
535.786,898.0
536.331,892.9
536.876,893.9
537.42,886.0
537.964,885.6
538.508,880.3
539.052,880.1
539.596,874.8
540.14,872.5
540.683,881.4
541.227,885.5
541.77,876.3
542.313,874.6
542.856,873.1
543.399,889.6
543.942,896.8
544.485,884.4
545.027,875.5
545.57,874.8
546.112,877.5
546.654,889.0
547.196,876.5
547.738,874.6
548.28,874.3
548.822,874.1
549.363,876.5
549.905,879.3
550.446,878.4
550.988,879.1
551.529,883.8
552.07,883.8
552.611,883.6
553.152,885.0
553.692,882.5
554.233,886.7
554.773,884.0
555.314,878.3
555.854,883.0
556.394,880.3
556.934,880.2
557.474,887.0
558.014,957.8
558.553,906.7
559.093,892.1
559.632,889.4
560.172,888.7
560.711,885.7
561.25,882.6
561.789,885.3
562.328,984.5
562.867,894.3
563.406,910.8
563.944,898.7
564.483,893.8
565.021,904.5
565.559,906.9
566.098,927.6
566.636,912.6
567.174,894.3
567.711,893.2
568.249,897.2
568.787,894.1
569.324,896.1
569.862,894.6
570.399,896.9
570.936,892.8
571.474,905.4
572.011,906.7
572.548,900.7
573.084,899.3
573.621,902.8
574.158,900.0
574.694,906.1
575.231,892.9
575.767,886.9
576.303,899.6
576.84,938.0
577.376,905.1
577.912,896.3
578.447,890.9
578.983,891.4
579.519,891.2
580.054,891.9
580.59,889.4
581.125,892.0
581.661,891.5
582.196,889.4
582.731,890.7
583.266,891.5
583.801,888.5
584.336,891.3
584.87,890.3
585.405,889.9
585.94,894.4
586.474,897.4
587.008,917.5
587.543,933.5
588.077,903.9
588.611,890.9
589.145,890.9
589.679,890.5
590.213,891.8
590.747,890.4
591.28,893.6
591.814,893.8
592.347,891.9
592.881,890.5
593.414,890.2
593.947,890.9
594.48,894.1
595.014,887.8
595.547,897.5
596.079,890.6
596.612,890.1
597.145,893.6
597.678,892.7
598.21,894.0
598.743,898.5
599.275,895.5
599.807,895.2
600.34,896.0
600.872,897.3
601.404,895.4
601.936,894.1
602.468,895.5
603.0,896.6
603.532,895.2
604.063,895.9
604.595,894.2
605.126,891.7
605.658,893.9
606.189,894.7
606.721,894.5
607.252,890.4
607.783,892.6
608.314,894.8
608.845,893.9
609.376,891.3
609.907,892.9
610.438,892.0
610.968,892.2
611.499,893.2
612.03,891.8
612.56,894.8
613.091,891.3
613.621,891.1
614.151,890.7
614.681,893.5
615.212,891.9
615.742,891.3
616.272,891.5
616.802,888.5
617.332,892.9
617.861,889.3
618.391,889.7
618.921,891.0
619.45,890.9
619.98,889.6
620.509,886.5
621.039,888.7
621.568,885.3
622.097,891.4
622.627,897.1
623.156,898.5
623.685,890.3
624.214,890.5
624.743,891.5
625.272,886.6
625.801,886.2
626.33,887.0
626.858,889.9
627.387,888.9
627.916,895.3
628.444,934.5
628.973,927.6
629.501,930.7
630.029,932.6
630.558,967.2
631.086,1215.1
631.614,1068.4
632.142,978.3
632.67,960.6
633.198,1014.4
633.726,996.6
634.254,935.5
634.782,898.5
635.31,891.3
635.838,886.1
636.365,885.5
636.893,886.0
637.421,882.6
637.948,881.3
638.476,881.9
639.003,884.1
639.531,880.8
640.058,885.9
640.585,884.7
641.113,882.5
641.64,885.0
642.167,886.1
642.694,880.6
643.221,881.4
643.748,879.7
644.275,876.7
644.802,876.2
645.329,877.0
645.856,880.4
646.382,875.9
646.909,876.2
647.436,879.8
647.962,877.2
648.489,879.4
649.016,876.4
649.542,882.4
650.069,883.2
650.595,879.5
651.121,878.4
651.648,874.8
652.174,874.7
652.7,878.2
653.227,877.2
653.753,875.2
654.279,876.5
654.805,877.5
655.331,873.1
655.857,876.0
656.383,875.7
656.909,874.4
657.435,876.2
657.961,877.9
658.487,870.7
659.013,872.1
659.538,874.7
660.064,869.0
660.59,871.2
661.116,874.6
661.641,870.6
662.167,867.1
662.692,868.5
663.087,870.7

File: VLFR_08-PLA_bio_Raman_ad81c72e.csv
nm,Intensity
526.547,832.4
527.095,832.05
527.642,832.75
528.189,831.5
528.736,831.95
529.283,831.75
529.829,831.55
530.376,831.85
530.922,831.75
531.468,831.65
532.014,838.7
532.56,831.65
533.106,831.5
533.651,833.4
534.196,941.85
534.742,929.65
535.287,915.15
535.832,911.2
536.376,908.6
536.921,912.6
537.465,906.15
538.01,907.2
538.554,904.6
539.098,901.85
539.642,901.45
540.186,899.1
540.729,907.7
541.273,905.6
541.816,905.5
542.36,906.1
542.903,906.85
543.446,914.35
543.988,914.95
544.531,909.25
545.074,907.95
545.616,908.4
546.158,906.3
546.701,906.55
547.243,911.65
547.785,909.65
548.326,910.4
548.868,910.4
549.41,915.95
549.951,912.3
550.492,913.2
551.034,917.2
551.575,913.95
552.116,916.15
552.656,917.3
553.197,919.7
553.738,920.8
554.278,922.25
554.819,918.8
555.359,918.2
555.899,918.2
556.439,916.35
556.979,919.25
557.519,924.75
558.058,965.25
558.598,929.55
559.137,923.65
559.677,924.2
560.216,925.9
560.755,924.0
561.294,922.4
561.833,925.1
562.371,924.65
562.91,926.85
563.449,940.1
563.987,932.25
564.525,933.1
565.064,941.15
565.602,939.5
566.14,948.65
566.678,936.8
567.216,933.0
567.753,934.15
568.291,933.85
568.828,938.15
569.366,935.45
569.903,936.25
570.44,934.95
570.977,935.45
571.514,944.25
572.051,943.55
572.588,940.1
573.125,941.6
573.661,946.45
574.198,944.0
574.734,947.05
575.271,945.2
575.807,940.55
576.343,948.3
576.879,967.15
577.415,947.85
577.951,944.5
578.486,942.7
579.022,944.8
579.557,942.9
580.093,945.25
580.628,945.5
581.164,945.7
581.699,944.1
582.234,946.65
582.769,948.15
583.304,949.2
583.838,948.4
584.373,948.35
584.908,952.7
585.442,947.05
585.977,951.9
586.511,957.85
587.045,968.0
587.58,977.9
588.114,957.9
588.648,955.6
589.182,952.25
589.715,953.05
590.249,951.8
590.783,957.35
591.316,956.55
591.85,951.65
592.383,951.2
592.917,952.55
593.45,953.4
593.983,955.0
594.516,955.5
595.049,955.7
595.582,956.3
596.115,957.1
596.648,955.1
597.18,954.6
597.713,957.35
598.245,958.15
598.778,955.25
599.31,956.7
599.842,957.1
600.375,956.9
600.907,958.25
601.439,959.2
601.971,957.3
602.503,955.55
603.034,958.85
603.566,956.5
604.098,959.1
604.629,956.6
605.161,958.25
605.692,957.2
606.224,953.0
606.755,957.35
607.286,955.35
607.817,958.65
608.348,955.85
608.879,958.5
609.41,957.75
609.941,955.15
610.472,959.4
611.002,956.75
611.533,959.45
612.063,958.35
612.594,959.1
613.124,960.55
613.655,957.75
614.185,962.25
614.715,964.75
615.245,962.5
615.775,961.2
616.305,961.05
616.835,963.8
617.365,963.35
617.895,962.85
618.425,959.6
618.954,963.5
619.484,960.7
620.013,958.45
620.543,958.15
621.072,961.35
621.602,960.95
622.131,961.6
622.66,964.25
623.189,965.75
623.718,963.45
624.247,964.4
624.776,965.35
625.305,960.0
625.834,961.5
626.363,961.2
626.891,959.9
627.42,960.35
627.949,964.7
628.477,993.95
629.006,983.25
629.534,984.1
630.062,984.25
630.591,1011.85
631.119,1159.7
631.647,1055.35
632.175,1009.35
632.703,1004.3
633.231,1034.25
633.759,1022.9
634.287,981.95
634.815,964.1
635.343,958.9
635.871,957.55
636.398,961.0
636.926,959.9
637.454,952.9
637.981,955.05
638.509,956.85
639.036,955.2
639.564,958.3
640.091,954.6
640.618,956.55
641.146,956.3
641.673,956.0
642.2,960.2
642.727,956.85
643.254,954.3
643.781,956.6
644.308,954.6
644.835,953.95
645.362,954.85
645.889,955.9
646.416,954.6
646.942,953.15
647.469,953.35
647.996,955.6
648.522,956.15
649.049,956.35
649.576,957.1
650.102,956.8
650.629,953.3
651.155,955.2
651.682,951.2
652.208,954.35
652.734,953.9
653.261,949.75
653.787,950.0
654.313,948.35
654.839,946.65
655.365,945.05
655.892,942.05
656.418,940.95
656.944,941.5
657.47,942.5
657.996,941.25
658.522,940.4
659.048,935.8
659.574,935.5
660.099,934.9
660.625,935.1
661.151,933.5
661.677,933.1
662.203,931.5
662.728,929.0
663.123,928.15

File: VLFR_08-PLA_bio_Raman_b2b7e8c6.csv
nm,Intensity
528.626,1862.93
529.132,1863.77
529.637,1863.8
530.143,1864.3
530.648,1864.47
531.153,1867.07
531.658,1899.57
532.164,4383.67
532.669,1865.77
533.174,1866.53
533.679,1916.03
534.184,2103.97
534.689,2096.9
535.194,2106.0
535.699,2109.47
536.203,2103.57
536.708,2098.5
537.213,2107.53
537.717,2118.6
538.222,2113.33
538.726,2115.47
539.231,2112.73
539.735,2118.67
540.239,2120.67
540.744,2137.3
541.248,2140.8
541.752,2148.9
542.256,2136.6
542.76,2148.37
543.264,2150.13
543.768,2160.9
544.272,2171.03
544.776,2157.03
545.28,2159.47
545.784,2174.0
546.287,2170.87
546.791,2176.5
547.294,2175.3
547.798,2178.23
548.301,2185.87
548.805,2191.33
549.308,2196.7
549.811,2189.37
550.315,2203.13
550.818,2216.63
551.321,2218.5
551.824,2224.27
552.327,2230.93
552.83,2223.43
553.333,2225.83
553.835,2230.27
554.338,2240.37
554.841,2243.87
555.343,2248.07
555.846,2247.27
556.349,2247.6
556.851,2234.67
557.353,2248.03
557.856,2288.83
558.358,2281.13
558.86,2254.3
559.362,2256.47
559.864,2268.27
560.366,2274.63
560.868,2273.17
561.37,2269.7
561.872,2280.5
562.374,2274.77
562.876,2293.37
563.377,2300.2
563.879,2298.67
564.38,2282.23
564.882,2307.1
565.383,2309.1
565.885,2308.63
566.386,2309.7
566.887,2303.5
567.388,2309.87
567.889,2303.4
568.391,2316.43
568.892,2319.8
569.392,2324.9
569.893,2322.77
570.394,2327.97
570.895,2315.27
571.395,2341.07
571.896,2339.83
572.397,2356.97
572.897,2348.43
573.397,2363.53
573.898,2355.37
574.398,2364.67
574.898,2340.43
575.398,2341.23
575.898,2348.63
576.398,2352.3
576.898,2392.67
577.398,2357.13
577.898,2350.8
578.398,2348.33
578.897,2345.4
579.397,2359.13
579.896,2370.67
580.396,2365.47
580.895,2375.33
581.395,2351.5
581.894,2361.07
582.393,2361.03
582.892,2351.67
583.391,2366.27
583.89,2361.77
584.389,2367.2
584.888,2354.23
585.387,2353.7
585.886,2353.57
586.384,2357.6
586.883,2376.93
587.381,2380.67
587.88,2381.23
588.378,2362.37
588.876,2340.93
589.375,2362.37
589.873,2345.4
590.371,2356.13
590.869,2363.23
591.367,2369.17
591.865,2367.87
592.363,2371.67
592.86,2356.83
593.358,2363.13
593.856,2355.13
594.353,2360.5
594.851,2364.6
595.348,2371.2
595.845,2381.3
596.342,2366.17
596.84,2368.03
597.337,2359.93
597.834,2367.03
598.331,2357.6
598.828,2365.67
599.324,2375.33
599.821,2369.77
600.318,2368.23
600.814,2362.33
601.311,2377.67
601.807,2372.2
602.304,2374.03
602.8,2375.2
603.296,2380.9
603.792,2377.57
604.288,2376.1
604.784,2378.93
605.28,2368.5
605.776,2382.5
606.272,2375.53
606.767,2379.17
607.263,2388.37
607.759,2392.47
608.254,2379.7
608.749,2368.5
609.245,2378.53
609.74,2380.27
610.235,2383.2
610.73,2381.47
611.225,2380.57
611.72,2380.47
612.215,2376.17
612.71,2388.6
613.204,2381.57
613.699,2376.77
614.194,2373.07
614.688,2385.4
615.182,2367.1
615.677,2382.0
616.171,2369.53
616.665,2385.6
617.159,2367.8
617.653,2362.87
618.147,2368.07
618.641,2370.9
619.135,2375.1
619.628,2383.53
620.122,2394.2
620.615,2370.23
621.109,2374.4
621.602,2367.8
622.095,2356.43
622.589,2377.37
623.082,2355.7
623.575,2357.1
624.068,2364.73
624.561,2354.33
625.053,2353.77
625.546,2346.13
626.039,2343.87
626.531,2345.53
627.024,2342.23
627.516,2340.5
628.008,2347.53
628.501,2368.4
628.993,2371.03
629.485,2368.43
629.977,2357.7
630.469,2395.63
630.96,2524.9
631.452,2466.87
631.944,2362.57
632.435,2376.03
632.927,2401.37
633.418,2399.63
633.91,2371.6
634.401,2338.2
634.892,2321.97
635.383,2306.6
635.874,2291.63
636.365,2302.4
636.856,2293.2
637.346,2288.03
637.837,2292.1
638.327,2280.8
638.818,2288.77
639.308,2286.7
639.799,2266.97
640.289,2277.83
640.779,2263.5
641.269,2272.6
641.759,2254.33
642.249,2261.27
642.738,2248.4
643.228,2247.5
643.718,2243.8
644.207,2246.9
644.697,2229.93
645.186,2232.07
645.675,2225.67
646.164,2230.43
646.653,2228.3
647.142,2230.37
647.631,2209.27
648.12,2207.57
648.609,2214.33
649.098,2197.17
649.586,2192.6
650.075,2194.33
650.563,2193.8
651.051,2191.2
651.539,2184.43
652.027,2184.27
652.515,2181.57
653.003,2179.67
653.491,2163.4
653.979,2171.5
654.467,2153.67
654.954,2163.7
655.442,2153.27
655.929,2141.93
656.416,2129.63
656.904,2131.77
657.391,2127.47
657.878,2144.47
658.365,2132.37
658.851,2122.9
659.338,2121.03
659.825,2114.13
660.311,2128.27
660.798,2114.87
661.041,2119.73

File: VLFR_08-PLA_bio_Raman_b3eaa2af.csv
nm,Intensity
528.65,1845.65
529.155,1844.6
529.66,1844.25
530.165,1844.9
530.67,1844.4
531.175,1846.0
531.68,1857.1
532.185,2581.7
532.69,1845.45
533.194,1845.45
533.699,1960.65
534.204,2207.55
534.708,2168.95
535.213,2169.95
535.717,2144.7
536.222,2117.45
536.726,2150.55
537.231,2122.65
537.735,2143.45
538.239,2119.65
538.743,2123.35
539.247,2144.3
539.751,2098.4
540.255,2122.25
540.759,2159.45
541.263,2146.3
541.767,2117.95
542.271,2134.5
542.775,2132.55
543.279,2179.1
543.782,2220.55
544.286,2173.9
544.789,2137.0
545.293,2137.05
545.796,2150.1
546.3,2140.85
546.803,2153.95
547.306,2153.75
547.81,2166.6
548.313,2175.1
548.816,2167.8
549.319,2179.9
549.822,2169.5
550.325,2176.5
550.828,2200.3
551.331,2204.9
551.834,2204.9
552.337,2227.1
552.839,2227.7
553.342,2219.8
553.844,2248.25
554.347,2227.1
554.849,2213.0
555.352,2193.9
555.854,2211.6
556.357,2227.7
556.859,2219.7
557.361,2246.5
557.863,2472.0
558.365,2389.75
558.867,2265.95
559.369,2246.95
559.871,2253.2
560.373,2234.35
560.875,2237.55
561.377,2240.9
561.878,2238.0
562.38,2234.95
562.881,2273.1
563.383,2345.65
563.884,2297.4
564.386,2288.15
564.887,2332.4
565.388,2338.7
565.89,2359.3
566.391,2393.25
566.892,2287.7
567.393,2278.55
567.894,2336.15
568.395,2308.5
568.896,2318.7
569.396,2308.15
569.897,2313.95
570.398,2338.3
570.898,2337.55
571.399,2391.0
571.9,2396.55
572.4,2362.9
572.9,2364.6
573.401,2367.4
573.901,2370.3
574.401,2395.6
574.901,2347.4
575.401,2345.1
575.901,2354.3
576.401,2443.3
576.901,2512.85
577.401,2370.65
577.901,2349.85
578.4,2328.9
578.9,2334.65
579.399,2341.65
579.899,2333.8
580.398,2344.6
580.898,2329.1
581.397,2326.7
581.896,2329.1
582.395,2328.35
582.895,2332.6
583.394,2339.85
583.893,2337.25
584.391,2341.55
584.89,2349.05
585.389,2331.3
585.888,2332.95
586.386,2340.65
586.885,2447.95
587.384,2515.85
587.882,2424.45
588.38,2349.95
588.879,2329.2
589.377,2323.35
589.875,2302.0
590.373,2321.35
590.871,2321.55
591.369,2324.65
591.867,2322.65
592.365,2336.25
592.863,2316.25
593.361,2308.45
593.858,2335.3
594.356,2316.75
594.853,2316.8
595.351,2321.85
595.848,2313.55
596.345,2319.65
596.843,2320.45
597.34,2319.75
597.837,2306.75
598.334,2326.85
598.831,2318.45
599.328,2337.9
599.824,2329.85
600.321,2317.5
600.818,2318.4
601.314,2322.15
601.811,2329.45
602.307,2323.55
602.804,2325.35
603.3,2313.8
603.796,2335.65
604.293,2325.7
604.789,2321.9
605.285,2316.45
605.781,2310.8
606.277,2319.75
606.772,2328.55
607.268,2307.9
607.764,2317.15
608.259,2327.9
608.755,2307.9
609.25,2318.9
609.746,2318.8
610.241,2312.9
610.736,2329.0
611.231,2328.4
611.727,2319.85
612.222,2315.6
612.716,2321.9
613.211,2308.9
613.706,2311.9
614.201,2296.9
614.695,2309.45
615.19,2308.6
615.684,2319.25
616.179,2297.95
616.673,2307.35
617.168,2297.65
617.662,2306.4
618.156,2308.7
618.65,2304.4
619.144,2298.5
619.638,2296.5
620.131,2299.6
620.625,2300.1
621.119,2300.4
621.612,2307.75
622.106,2295.1
622.599,2325.8
623.093,2337.25
623.586,2325.0
624.079,2326.6
624.572,2298.15
625.065,2290.9
625.558,2289.15
626.051,2277.6
626.544,2283.7
627.037,2277.4
627.529,2287.3
628.022,2369.3
628.514,2540.25
629.007,2479.9
629.499,2518.4
629.991,2477.1
630.483,2717.2
630.976,3736.85
631.468,3332.45
631.959,2751.55
632.451,2584.8
632.943,2768.1
633.435,2929.65
633.926,2650.6
634.418,2402.95
634.909,2303.55
635.401,2265.15
635.892,2258.05
636.383,2243.65
636.874,2241.25
637.365,2229.1
637.856,2236.05
638.347,2227.4
638.838,2224.25
639.329,2221.9
639.819,2208.4
640.31,2222.2
640.8,2212.65
641.291,2218.2
641.781,2204.65
642.271,2205.65
642.761,2208.95
643.251,2200.4
643.741,2185.2
644.231,2182.9
644.721,2176.85
645.211,2169.6
645.7,2162.3
646.19,2162.4
646.679,2162.35
647.169,2162.55
647.658,2159.35
648.147,2151.65
648.636,2145.3
649.125,2137.75
649.614,2135.95
650.103,2136.95
650.592,2123.15
651.08,2122.15
651.569,2138.25
652.058,2126.1
652.546,2118.3
653.034,2119.8
653.523,2117.75
654.011,2101.95
654.499,2110.15
654.987,2117.75
655.475,2103.7
655.963,2107.95
656.45,2095.9
656.938,2096.45
657.425,2090.95
657.913,2102.55
658.4,2081.0
658.888,2081.95
659.375,2069.05
659.862,2085.65
660.349,2070.75
660.836,2068.95
661.079,2066.6

File: VLFR_08-PLA_bio_Raman_b44a6a4c.csv
nm,Intensity
528.637,1840.6
529.143,1840.6
529.648,1839.6
530.153,1838.6
530.659,1839.0
531.164,1841.4
531.669,1883.0
532.174,4001.2
532.679,1841.1
533.184,1843.2
533.689,2233.6
534.194,3067.9
534.699,2880.1
535.203,2749.9
535.708,2614.9
536.213,2597.5
536.717,2601.2
537.222,2555.8
537.726,2549.6
538.231,2479.0
538.735,2478.1
539.24,2454.1
539.744,2402.2
540.248,2460.2
540.752,2534.4
541.256,2516.7
541.761,2466.2
542.265,2439.8
542.769,2450.0
543.272,2614.6
543.776,2664.2
544.28,2566.1
544.784,2468.7
545.288,2449.1
545.791,2443.1
546.295,2446.5
546.798,2476.7
547.302,2461.0
547.805,2469.2
548.308,2491.0
548.812,2502.4
549.315,2507.0
549.818,2507.9
550.321,2507.3
550.824,2529.4
551.327,2558.4
551.83,2577.1
552.333,2583.6
552.836,2619.9
553.339,2571.0
553.842,2637.7
554.344,2626.0
554.847,2600.9
555.349,2547.5
555.852,2571.9
556.354,2564.3
556.857,2560.4
557.359,2713.3
557.861,3443.8
558.363,3124.5
558.866,2750.8
559.368,2675.4
559.87,2636.3
560.372,2645.1
560.873,2629.8
561.375,2613.7
561.877,2629.2
562.379,2663.3
562.88,2769.3
563.382,2951.6
563.883,2802.5
564.385,2735.0
564.886,2879.7
565.388,2871.3
565.889,3024.4
566.39,2963.2
566.891,2704.8
567.392,2716.4
567.893,2771.6
568.394,2765.8
568.895,2775.8
569.396,2778.1
569.897,2717.0
570.398,2728.2
570.898,2760.9
571.399,2892.9
571.899,2911.3
572.4,2869.4
572.9,2867.9
573.4,2891.6
573.901,2867.7
574.401,2905.4
574.901,2807.3
575.401,2749.5
575.901,2829.1
576.401,3157.9
576.901,3331.4
577.401,2898.9
577.9,2801.6
578.4,2776.3
578.9,2765.9
579.399,2772.4
579.899,2802.4
580.398,2778.7
580.897,2805.1
581.397,2768.7
581.896,2786.7
582.395,2776.6
582.894,2816.3
583.393,2795.2
583.892,2778.9
584.391,2799.4
584.889,2839.9
585.388,2757.8
585.887,2773.1
586.385,2894.3
586.884,3189.3
587.382,3303.1
587.881,3049.5
588.379,2811.6
588.877,2792.6
589.375,2791.1
589.874,2769.9
590.372,2783.0
590.87,2761.2
591.367,2781.9
591.865,2780.0
592.363,2790.4
592.861,2749.8
593.358,2761.6
593.856,2795.4
594.353,2775.1
594.851,2746.6
595.348,2783.5
595.845,2765.1
596.342,2786.9
596.84,2777.1
597.337,2771.6
597.833,2790.1
598.33,2782.5
598.827,2778.8
599.324,2773.9
599.821,2762.5
600.317,2768.0
600.814,2778.0
601.31,2767.9
601.807,2790.2
602.303,2802.8
602.799,2812.1
603.295,2762.2
603.791,2758.7
604.287,2769.5
604.783,2784.3
605.279,2757.1
605.775,2770.0
606.271,2785.2
606.766,2752.3
607.262,2769.4
607.757,2801.7
608.253,2758.9
608.748,2751.3
609.243,2721.6
609.738,2769.6
610.233,2745.1
610.729,2752.8
611.223,2744.1
611.718,2768.6
612.213,2746.7
612.708,2721.2
613.202,2746.7
613.697,2730.1
614.192,2734.0
614.686,2752.8
615.18,2710.5
615.675,2763.4
616.169,2729.4
616.663,2741.6
617.157,2731.3
617.651,2738.4
618.145,2713.8
618.638,2715.8
619.132,2735.0
619.626,2714.6
620.119,2706.0
620.613,2713.9
621.106,2701.4
621.599,2686.7
622.093,2750.5
622.586,2781.8
623.079,2825.1
623.572,2767.6
624.065,2717.8
624.558,2707.2
625.05,2708.7
625.543,2690.7
626.036,2645.4
626.528,2692.7
627.02,2676.2
627.513,2735.3
628.005,2916.1
628.497,3243.3
628.989,3147.3
629.481,3209.0
629.973,3160.6
630.465,3682.6
630.957,5947.1
631.449,4756.4
631.94,3681.1
632.432,3489.0
632.923,3932.1
633.414,4086.2
633.906,3464.1
634.397,2963.3
634.888,2729.2
635.379,2648.7
635.87,2621.7
636.361,2619.0
636.852,2576.3
637.342,2590.5
637.833,2562.8
638.323,2569.9
638.814,2577.1
639.304,2552.0
639.794,2550.4
640.285,2559.8
640.775,2556.7
641.265,2571.7
641.755,2540.8
642.244,2568.0
642.734,2542.5
643.224,2524.0
643.713,2518.5
644.203,2518.3
644.692,2505.7
645.181,2509.2
645.671,2494.5
646.16,2456.3
646.649,2495.6
647.138,2483.5
647.627,2462.7
648.115,2460.4
648.604,2478.8
649.093,2449.3
649.581,2478.5
650.07,2426.6
650.558,2439.9
651.046,2436.6
651.534,2411.4
652.023,2405.3
652.511,2406.4
652.998,2410.1
653.486,2389.1
653.974,2374.5
654.462,2345.9
654.949,2340.5
655.437,2325.4
655.924,2337.7
656.411,2320.7
656.898,2315.8
657.385,2293.2
657.872,2300.4
658.359,2299.2
658.846,2282.9
659.333,2264.3
659.82,2269.8
660.306,2237.3
660.793,2261.1
661.036,2240.5