Folder: MPX_specDB/spectra (part 101)

File: VLFR_07-PET_bio_Raman_5900c760.csv
nm,Intensity
791.496,11672.2
792.594,10853.0
793.692,10327.3
794.79,10276.1
795.888,10188.4
796.986,10067.2
798.083,10141.0
799.181,10075.4
800.278,10129.7
801.375,10233.9
802.473,10018.4
803.57,9946.2
804.667,9788.7
805.764,9749.7
806.86,9560.0
807.957,9601.0
809.054,9440.2
810.15,9306.4
811.246,9345.4
812.343,9273.8
813.439,9088.8
814.535,9011.6
815.631,8867.9
816.727,8914.3
817.822,8648.7
818.918,8694.3
820.013,8671.3
821.109,8598.0
822.204,8377.2
823.299,8425.1
824.394,8387.0
825.489,8552.8
826.584,8227.8
827.679,8194.6
828.774,8058.3
829.868,8073.9
830.963,8047.3
832.057,7966.7
833.151,7788.3
834.245,7825.2
835.339,7746.0
836.433,7823.4
837.527,7813.8
838.621,7734.5
839.714,7701.9
840.808,7848.1
841.901,7681.3
842.994,7570.9
844.087,7489.0
845.18,7230.2
846.273,7254.7
847.366,7146.6
848.458,7102.0
849.551,7074.6
850.643,6939.4
851.735,6997.2
852.828,6937.1
853.92,6973.9
855.012,6915.5
856.103,6776.1
857.195,6782.6
858.287,6842.0
859.378,6884.9
860.469,6894.5
861.56,6652.4
862.651,6676.5
863.742,6616.4
864.833,6633.1
865.924,6465.0
867.014,6442.2
868.105,6360.5
869.195,6487.8
870.285,6477.5
871.376,6577.8
872.465,6693.7
873.555,6613.2
874.645,6377.4
875.735,6259.3
876.824,6245.5
877.913,6163.8
879.002,6098.5
880.092,6103.8
881.18,6186.2
882.269,6078.8
883.358,6076.1
884.446,6047.8
885.535,6001.7
886.623,5974.3
887.711,5857.9
888.799,5899.3
889.887,5819.8
890.975,5770.5
892.062,5802.1
893.15,5716.7
894.237,5690.5
895.325,5636.3
896.412,5621.6
897.499,6035.9
898.585,6092.6
899.672,5709.6
900.759,5459.5
901.845,5440.1
902.931,5374.9
904.017,5396.6
905.103,5388.9
906.189,5502.7
907.275,5679.7
908.361,5587.2
909.446,5374.5
910.531,5139.9
911.616,5126.6
912.701,5069.4
913.786,5028.1
914.871,5003.4
915.956,4943.5
917.04,4929.7
918.124,4912.1
919.209,4879.1
920.293,4846.1
921.376,4803.2
922.46,4741.9
923.544,4759.2
924.627,4710.9
925.711,4686.6
926.794,4671.9
927.877,4622.9
928.96,4568.6
930.042,4542.6
931.125,4509.0
932.207,4484.3
933.29,4470.0
934.372,4444.3
935.454,4406.4
936.536,4410.5
937.617,4382.9
938.699,4340.9
939.78,4332.8
940.861,4321.4
941.943,4280.3
943.023,4296.7
944.104,4244.9
945.185,4225.7
946.265,4234.7
947.346,4209.1
948.426,4192.2
949.506,4175.4
950.586,4147.9
951.665,4151.5
952.745,4131.5
953.824,4117.3
954.904,4104.2
955.983,4091.9
957.062,4091.7
958.141,4071.0
959.219,4046.2
960.298,4041.1
961.376,4031.4
962.454,4016.0
963.532,4003.3
964.61,4000.9
965.688,3989.5
966.765,3975.1
967.842,3979.2
968.92,3964.4
969.997,3961.2
971.074,3950.4
972.15,3941.7
973.227,3929.8
974.303,3923.9
975.379,3913.9
976.455,3908.5
977.531,3900.5
978.607,3899.3
979.683,3893.3
980.758,3886.2
981.833,3879.7
982.908,3877.7
983.983,3861.3
985.058,3860.6
986.133,3856.3
987.207,3852.5
988.281,3849.6
989.355,3841.2
990.429,3829.1
991.503,3833.7
992.577,3829.3
993.65,3823.5
994.723,3812.3
995.796,3806.9
996.869,3806.2
997.942,3798.3
999.014,3796.1
1000.09,3800.0
1001.16,3789.3
1002.23,3790.0
1003.3,3781.4
1004.37,3781.2
1005.45,3774.9
1006.52,3770.5
1007.59,3769.6
1008.66,3765.6
1009.73,3763.6
1010.8,3761.2
1011.87,3758.6
1012.94,3753.7
1014.01,3756.5
1015.08,3753.3
1016.15,3747.4
1017.22,3744.2
1018.29,3745.7
1019.36,3742.6
1020.43,3741.8
1021.5,3744.7
1022.57,3742.5
1023.64,3742.7
1024.7,3738.2
1025.77,3735.4
1026.84,3728.6
1027.91,3729.3
1028.97,3729.1
1030.04,3720.6
1031.11,3721.2
1032.18,3719.6
1033.24,3719.7
1034.31,3723.8
1035.38,3721.4
1036.44,3721.1
1037.51,3714.8
1038.58,3712.9
1039.64,3714.6
1040.71,3709.5
1041.77,3708.7
1042.84,3706.9
1043.9,3706.8
1044.97,3707.4
1046.03,3702.0
1047.1,3703.3
1048.16,3702.7
1049.22,3703.1
1050.29,3704.2
1051.35,3702.7
1052.42,3703.5
1053.48,3701.4
1054.54,3701.0
1055.61,3701.8
1056.67,3700.7
1057.73,3699.4
1058.79,3700.4
1059.86,3700.1
1060.92,3698.8
1061.98,3698.8
1063.04,3698.4
1064.1,3698.8
1065.16,3698.4
1066.22,3699.0
1067.29,3698.8
1068.08,3694.9

File: VLFR_07-PET_bio_Raman_39536b30.csv
nm,Intensity
791.377,12438.0
792.477,11379.7
793.576,10847.2
794.676,10492.8
795.775,10312.8
796.874,10115.5
797.973,10127.8
799.072,10138.5
800.171,9981.0
801.27,10052.8
802.368,9992.95
803.467,9729.15
804.565,9479.1
805.664,9519.45
806.762,9380.55
807.86,9315.9
808.958,9238.95
810.056,9094.95
811.153,8943.55
812.251,8990.3
813.349,8692.5
814.446,8594.3
815.543,8580.95
816.64,8527.8
817.737,8446.55
818.834,8333.15
819.931,8262.15
821.028,8320.7
822.125,8176.45
823.221,8024.8
824.317,8043.35
825.414,8001.75
826.51,8028.15
827.606,7982.25
828.702,7660.65
829.797,7672.85
830.893,7801.8
831.988,7524.65
833.084,7569.1
834.179,7451.55
835.274,7308.7
836.369,7384.75
837.464,7450.45
838.559,7400.35
839.654,7320.6
840.748,7493.0
841.843,7481.75
842.937,7288.2
844.031,7072.05
845.125,7008.05
846.219,6922.9
847.313,6803.75
848.407,6801.55
849.5,6676.8
850.593,6669.65
851.687,6666.8
852.78,6628.5
853.873,6551.1
854.966,6601.65
856.059,6460.45
857.151,6480.8
858.244,6483.75
859.336,6555.5
860.428,6627.85
861.52,6353.35
862.612,6276.05
863.704,6234.15
864.796,6211.35
865.888,6131.15
866.979,6147.8
868.07,6117.0
869.162,6097.9
870.253,6090.0
871.344,6229.15
872.434,6359.0
873.525,6388.05
874.615,6199.7
875.706,5987.35
876.796,5896.4
877.886,5915.85
878.976,5772.5
880.066,5786.95
881.156,5819.85
882.245,5718.6
883.335,5668.75
884.424,5703.6
885.513,5705.5
886.602,5643.5
887.691,5566.7
888.78,5492.85
889.868,5491.75
890.957,5489.25
892.045,5485.9
893.133,5417.8
894.221,5310.05
895.309,5327.1
896.397,5312.9
897.484,5435.6
898.571,5909.0
899.659,5599.65
900.746,5143.85
901.833,5167.1
902.92,5096.0
904.006,5057.65
905.093,5077.7
906.179,5185.65
907.266,5418.55
908.352,5394.05
909.438,5131.45
910.523,4961.45
911.609,4873.95
912.695,4809.05
913.78,4803.85
914.865,4795.45
915.95,4744.85
917.035,4729.1
918.12,4671.1
919.204,4689.9
920.289,4669.9
921.373,4625.65
922.457,4617.7
923.541,4554.85
924.625,4545.85
925.709,4544.7
926.792,4497.15
927.876,4472.25
928.959,4447.75
930.042,4421.15
931.125,4401.7
932.208,4373.8
933.29,4342.5
934.373,4330.25
935.455,4312.15
936.537,4293.15
937.619,4279.9
938.701,4261.35
939.782,4255.8
940.864,4252.45
941.945,4219.2
943.026,4209.75
944.107,4203.6
945.188,4171.75
946.269,4164.0
947.349,4149.15
948.43,4145.0
949.51,4114.6
950.59,4129.7
951.67,4110.55
952.75,4091.5
953.829,4083.1
954.909,4086.55
955.988,4056.15
957.067,4057.7
958.146,4055.15
959.224,4034.2
960.303,4032.35
961.381,4026.7
962.459,4030.35
963.537,4011.55
964.615,3999.25
965.693,4002.6
966.771,3995.6
967.848,3989.85
968.925,3989.0
970.002,3981.45
971.079,3966.0
972.156,3971.5
973.232,3956.65
974.309,3944.75
975.385,3944.05
976.461,3937.95
977.537,3938.15
978.612,3926.95
979.688,3924.15
980.763,3922.3
981.838,3915.85
982.913,3918.2
983.988,3908.25
985.063,3908.45
986.137,3901.7
987.211,3902.5
988.285,3897.95
989.359,3891.1
990.433,3886.15
991.506,3881.55
992.58,3879.95
993.653,3873.3
994.726,3870.8
995.799,3872.75
996.872,3866.05
997.944,3862.2
999.016,3858.25
1000.09,3856.55
1001.16,3849.55
1002.23,3849.95
1003.3,3846.4
1004.38,3842.25
1005.45,3844.6
1006.52,3835.7
1007.59,3836.4
1008.66,3833.7
1009.73,3830.3
1010.8,3835.15
1011.87,3834.9
1012.94,3834.6
1014.01,3833.1
1015.08,3830.95
1016.15,3824.8
1017.22,3823.5
1018.29,3818.9
1019.36,3817.9
1020.42,3819.1
1021.49,3818.75
1022.56,3818.85
1023.63,3815.65
1024.7,3813.95
1025.76,3810.3
1026.83,3802.9
1027.9,3804.5
1028.97,3800.6
1030.03,3797.4
1031.1,3796.65
1032.17,3797.05
1033.23,3795.65
1034.3,3798.0
1035.36,3798.8
1036.43,3796.9
1037.5,3793.3
1038.56,3792.05
1039.63,3789.9
1040.69,3790.95
1041.76,3786.8
1042.82,3788.85
1043.89,3788.75
1044.95,3786.2
1046.01,3784.05
1047.08,3785.9
1048.14,3785.35
1049.2,3783.9
1050.27,3783.5
1051.33,3783.65
1052.39,3783.45
1053.46,3784.1
1054.52,3782.55
1055.58,3784.75
1056.64,3780.9
1057.7,3782.0
1058.77,3780.1
1059.83,3781.15
1060.89,3782.05
1061.95,3779.65
1063.01,3782.0
1064.07,3780.8
1065.13,3779.5
1066.19,3778.4
1067.25,3781.1
1068.05,3779.85

File: VLFR_07-PET_bio_Raman_52134ace.csv
nm,Intensity
791.588,6093.5
792.685,6004.2
793.781,6011.6
794.878,5962.5
795.975,5954.5
797.071,5986.2
798.168,5927.5
799.264,5941.1
800.36,5928.8
801.456,5888.6
802.552,5892.8
803.648,5837.9
804.744,5808.0
805.84,5820.9
806.936,5843.5
808.031,5761.0
809.127,5751.6
810.222,5679.2
811.317,5678.3
812.412,5673.3
813.507,5592.7
814.602,5566.9
815.697,5551.9
816.792,5498.8
817.887,5483.2
818.981,5447.8
820.076,5460.8
821.17,5448.7
822.265,5371.7
823.359,5324.8
824.453,5336.8
825.547,5317.6
826.641,5323.4
827.735,5230.2
828.828,5220.8
829.922,5215.9
831.016,5178.6
832.109,5153.4
833.202,5156.9
834.295,5132.0
835.388,5098.1
836.481,5062.9
837.574,5091.1
838.667,5079.4
839.76,5029.1
840.852,5072.2
841.945,5057.7
843.037,5014.0
844.129,4980.7
845.221,4951.5
846.314,4912.7
847.405,4929.7
848.497,4915.1
849.589,4896.4
850.68,4871.4
851.772,4911.1
852.863,4851.6
853.955,4824.2
855.046,4842.8
856.137,4815.4
857.228,4813.2
858.318,4800.9
859.409,4811.9
860.5,4811.4
861.59,4763.2
862.681,4757.8
863.771,4748.9
864.861,4771.4
865.951,4724.0
867.041,4704.1
868.131,4710.9
869.22,4697.5
870.31,4680.5
871.399,4709.0
872.488,4701.7
873.578,4691.8
874.667,4696.1
875.756,4656.1
876.845,4646.4
877.933,4613.8
879.022,4608.7
880.11,4619.1
881.199,4605.9
882.287,4585.9
883.375,4562.2
884.463,4590.7
885.551,4554.4
886.639,4552.8
887.726,4510.6
888.814,4526.2
889.901,4500.2
890.988,4482.0
892.075,4484.0
893.162,4456.9
894.249,4450.4
895.336,4444.5
896.423,4431.7
897.509,4453.6
898.595,4474.0
899.682,4424.9
900.768,4349.9
901.854,4358.3
902.94,4343.3
904.025,4333.6
905.111,4335.3
906.196,4329.7
907.282,4354.8
908.367,4353.8
909.452,4302.9
910.537,4273.5
911.622,4260.2
912.706,4245.3
913.791,4218.5
914.875,4191.4
915.959,4191.9
917.044,4206.0
918.128,4167.7
919.211,4177.1
920.295,4152.4
921.379,4162.9
922.462,4136.8
923.546,4129.4
924.629,4120.4
925.712,4103.9
926.795,4100.1
927.877,4076.1
928.96,4053.6
930.043,4056.0
931.125,4044.8
932.207,4036.5
933.289,4020.9
934.371,4020.0
935.453,4009.4
936.535,3997.1
937.616,3994.6
938.697,3983.8
939.779,3996.0
940.86,3971.2
941.941,3963.4
943.022,3965.1
944.102,3951.8
945.183,3940.5
946.263,3940.2
947.343,3941.7
948.423,3934.2
949.503,3918.0
950.583,3916.4
951.663,3916.6
952.742,3909.9
953.822,3899.1
954.901,3897.5
955.98,3894.0
957.059,3881.3
958.137,3880.6
959.216,3874.0
960.294,3872.7
961.373,3870.9
962.451,3860.7
963.529,3860.9
964.607,3859.8
965.684,3848.1
966.762,3854.5
967.839,3851.5
968.917,3840.9
969.994,3846.1
971.071,3836.8
972.147,3835.7
973.224,3839.8
974.3,3831.9
975.377,3828.6
976.453,3828.2
977.529,3827.1
978.605,3822.4
979.68,3823.8
980.756,3817.8
981.831,3816.5
982.907,3808.8
983.982,3813.0
985.057,3811.5
986.131,3806.8
987.206,3805.7
988.28,3804.7
989.355,3802.7
990.429,3800.3
991.503,3798.4
992.576,3796.3
993.65,3797.8
994.723,3796.9
995.797,3793.6
996.87,3790.7
997.943,3788.3
999.016,3789.2
1000.09,3784.2
1001.16,3785.5
1002.23,3783.6
1003.31,3780.9
1004.38,3777.5
1005.45,3779.6
1006.52,3779.3
1007.59,3777.6
1008.66,3776.4
1009.73,3774.1
1010.81,3772.5
1011.88,3774.3
1012.95,3773.5
1014.02,3774.1
1015.09,3770.8
1016.16,3772.2
1017.23,3771.6
1018.3,3768.4
1019.37,3768.6
1020.44,3767.3
1021.51,3766.4
1022.58,3767.5
1023.64,3765.3
1024.71,3765.0
1025.78,3764.9
1026.85,3761.7
1027.92,3763.6
1028.99,3760.4
1030.05,3761.7
1031.12,3759.8
1032.19,3760.1
1033.26,3758.3
1034.32,3759.3
1035.39,3758.4
1036.46,3758.9
1037.52,3759.7
1038.59,3756.0
1039.66,3755.8
1040.72,3756.1
1041.79,3754.9
1042.86,3754.6
1043.92,3756.6
1044.99,3755.9
1046.05,3752.9
1047.12,3754.6
1048.18,3754.2
1049.25,3752.7
1050.31,3751.6
1051.37,3752.6
1052.44,3752.7
1053.5,3751.4
1054.57,3751.0
1055.63,3750.6
1056.69,3752.2
1057.76,3751.5
1058.82,3750.2
1059.88,3752.0
1060.95,3752.3
1062.01,3751.8
1063.07,3751.8
1064.13,3752.3
1065.19,3750.6
1066.26,3749.1
1067.32,3752.3
1068.11,3747.5

File: VLFR_07-PET_bio_Raman_61857a49.csv
nm,Intensity
791.588,9393.4
792.685,8916.6
793.781,8738.3
794.878,8607.9
795.975,8550.0
797.071,8555.1
798.168,8558.7
799.264,8599.5
800.36,8623.9
801.456,8557.9
802.552,8538.9
803.648,8428.3
804.744,8417.0
805.84,8342.0
806.936,8235.7
808.031,8183.2
809.127,8114.9
810.222,7961.0
811.317,7985.4
812.412,7911.0
813.507,7784.7
814.602,7805.5
815.697,7616.7
816.792,7595.2
817.887,7570.1
818.981,7459.9
820.076,7533.7
821.17,7442.9
822.265,7391.5
823.359,7288.7
824.453,7346.3
825.547,7231.2
826.641,7292.1
827.735,7180.5
828.828,7116.2
829.922,7043.6
831.016,7033.0
832.109,6968.8
833.202,6863.4
834.295,6825.1
835.388,6755.2
836.481,6800.6
837.574,6709.1
838.667,6686.0
839.76,6686.4
840.852,6688.9
841.945,6738.8
843.037,6584.1
844.129,6471.6
845.221,6382.7
846.314,6299.4
847.405,6270.9
848.497,6212.4
849.589,6231.4
850.68,6189.9
851.772,6183.2
852.863,6126.6
853.955,6082.0
855.046,6024.5
856.137,6024.2
857.228,5995.5
858.318,6052.0
859.409,6068.0
860.5,6049.9
861.59,5963.5
862.681,5915.4
863.771,5881.5
864.861,5920.0
865.951,5788.2
867.041,5805.1
868.131,5777.2
869.22,5771.7
870.31,5776.1
871.399,5811.4
872.488,5897.3
873.578,5955.8
874.667,5768.0
875.756,5729.5
876.845,5670.1
877.933,5633.2
879.022,5586.7
880.11,5616.8
881.199,5603.3
882.287,5587.4
883.375,5513.5
884.463,5521.0
885.551,5528.6
886.639,5441.5
887.726,5427.7
888.814,5411.4
889.901,5393.1
890.988,5338.7
892.075,5329.8
893.162,5301.7
894.249,5241.5
895.336,5226.5
896.423,5181.7
897.509,5313.0
898.595,5470.9
899.682,5271.8
900.768,5072.2
901.854,5040.3
902.94,5034.8
904.025,4990.9
905.111,4982.4
906.196,5015.5
907.282,5128.7
908.367,5134.0
909.452,4960.3
910.537,4860.0
911.622,4794.6
912.706,4795.9
913.791,4742.0
914.875,4724.8
915.959,4670.3
917.044,4662.2
918.128,4628.4
919.211,4604.2
920.295,4588.6
921.379,4589.8
922.462,4546.7
923.546,4507.7
924.629,4478.7
925.712,4461.8
926.795,4469.4
927.877,4406.5
928.96,4399.5
930.043,4364.2
931.125,4358.9
932.207,4323.9
933.289,4299.3
934.371,4292.6
935.453,4275.8
936.535,4252.1
937.616,4227.1
938.697,4228.9
939.779,4221.4
940.86,4198.4
941.941,4190.8
943.022,4163.8
944.102,4150.1
945.183,4126.0
946.263,4119.1
947.343,4117.8
948.423,4120.0
949.503,4083.4
950.583,4075.0
951.663,4070.9
952.742,4056.5
953.822,4060.3
954.901,4027.4
955.98,4024.9
957.059,4021.6
958.137,4002.1
959.216,4011.9
960.294,3996.8
961.373,3987.5
962.451,3982.6
963.529,3976.2
964.607,3968.2
965.684,3957.0
966.762,3949.0
967.839,3954.2
968.917,3950.9
969.994,3941.1
971.071,3932.7
972.147,3926.3
973.224,3922.4
974.3,3910.1
975.377,3906.3
976.453,3901.1
977.529,3897.4
978.605,3903.4
979.68,3877.1
980.756,3884.2
981.831,3878.8
982.907,3873.9
983.982,3865.8
985.057,3871.7
986.131,3860.7
987.206,3857.8
988.28,3856.6
989.355,3853.3
990.429,3849.2
991.503,3842.8
992.576,3838.0
993.65,3838.9
994.723,3834.5
995.797,3830.8
996.87,3828.7
997.943,3824.9
999.016,3822.0
1000.09,3819.2
1001.16,3811.4
1002.23,3810.3
1003.31,3814.9
1004.38,3806.4
1005.45,3800.1
1006.52,3802.6
1007.59,3798.1
1008.66,3795.8
1009.73,3794.1
1010.81,3790.5
1011.88,3795.3
1012.95,3786.1
1014.02,3788.4
1015.09,3790.4
1016.16,3783.1
1017.23,3784.6
1018.3,3778.7
1019.37,3777.6
1020.44,3779.0
1021.51,3778.5
1022.58,3777.4
1023.64,3777.5
1024.71,3774.0
1025.78,3773.2
1026.85,3769.6
1027.92,3767.6
1028.99,3766.3
1030.05,3764.0
1031.12,3761.9
1032.19,3764.3
1033.26,3761.5
1034.32,3763.0
1035.39,3762.3
1036.46,3761.2
1037.52,3757.5
1038.59,3759.3
1039.66,3755.7
1040.72,3755.7
1041.79,3754.0
1042.86,3755.8
1043.92,3754.7
1044.99,3753.8
1046.05,3753.6
1047.12,3750.2
1048.18,3752.2
1049.25,3753.9
1050.31,3751.3
1051.37,3750.3
1052.44,3752.7
1053.5,3751.1
1054.57,3749.3
1055.63,3752.9
1056.69,3750.5
1057.76,3748.3
1058.82,3747.8
1059.88,3751.2
1060.95,3751.3
1062.01,3748.9
1063.07,3747.5
1064.13,3749.9
1065.19,3749.2
1066.26,3748.6
1067.32,3746.0
1068.11,3746.4

File: VLFR_07-PET_bio_Raman_82455de9.csv
nm,Intensity
791.588,11131.6
792.685,10472.3
793.781,10165.9
794.878,9931.9
795.975,9925.1
797.071,9836.2
798.168,9774.8
799.264,9744.1
800.36,9813.4
801.456,9773.6
802.552,9788.1
803.648,9594.0
804.744,9491.5
805.84,9546.5
806.936,9393.7
808.031,9397.3
809.127,9322.6
810.222,9232.7
811.317,9118.9
812.412,9118.6
813.507,9033.8
814.602,8966.5
815.697,8897.4
816.792,8815.0
817.887,8689.2
818.981,8659.2
820.076,8595.1
821.17,8622.8
822.265,8405.4
823.359,8276.6
824.453,8293.9
825.547,8332.9
826.641,8212.1
827.735,8100.4
828.828,8066.9
829.922,8037.3
831.016,8069.0
832.109,7933.9
833.202,7873.6
834.295,7808.7
835.388,7689.0
836.481,7695.8
837.574,7783.0
838.667,7713.0
839.76,7640.5
840.852,7636.9
841.945,7675.4
843.037,7574.7
844.129,7435.6
845.221,7242.5
846.314,7211.0
847.405,7118.4
848.497,7167.8
849.589,7101.2
850.68,7057.8
851.772,7047.5
852.863,6967.6
853.955,6951.1
855.046,6907.2
856.137,6842.1
857.228,6836.1
858.318,6850.3
859.409,6853.5
860.5,6824.7
861.59,6771.9
862.681,6658.1
863.771,6649.2
864.861,6662.8
865.951,6535.4
867.041,6547.1
868.131,6494.5
869.22,6489.5
870.31,6497.0
871.399,6632.4
872.488,6632.8
873.578,6670.9
874.667,6523.3
875.756,6408.4
876.845,6346.1
877.933,6261.3
879.022,6216.9
880.11,6163.7
881.199,6155.2
882.287,6189.6
883.375,6060.2
884.463,6136.4
885.551,6049.8
886.639,6044.6
887.726,5954.8
888.814,5946.7
889.901,5907.3
890.988,5871.2
892.075,5850.9
893.162,5818.1
894.249,5743.8
895.336,5685.5
896.423,5711.6
897.509,5769.9
898.595,6035.6
899.682,5817.3
900.768,5519.3
901.854,5474.7
902.94,5467.6
904.025,5405.7
905.111,5418.9
906.196,5468.0
907.282,5606.3
908.367,5570.7
909.452,5408.2
910.537,5242.7
911.622,5192.3
912.706,5138.8
913.791,5075.9
914.875,5057.5
915.959,5009.6
917.044,5024.0
918.128,4963.9
919.211,4934.8
920.295,4888.4
921.379,4874.7
922.462,4878.0
923.546,4821.0
924.629,4776.4
925.712,4755.4
926.795,4710.1
927.877,4690.1
928.96,4645.0
930.043,4635.7
931.125,4599.7
932.207,4565.3
933.289,4527.2
934.371,4523.6
935.453,4501.5
936.535,4473.0
937.616,4457.3
938.697,4420.6
939.779,4415.0
940.86,4379.8
941.941,4366.0
943.022,4352.2
944.102,4318.2
945.183,4309.9
946.263,4296.3
947.343,4277.3
948.423,4245.3
949.503,4245.6
950.583,4229.1
951.663,4208.4
952.742,4205.0
953.822,4181.3
954.901,4173.5
955.98,4157.3
957.059,4138.8
958.137,4114.9
959.216,4123.0
960.294,4096.5
961.373,4090.1
962.451,4080.4
963.529,4071.1
964.607,4064.9
965.684,4059.3
966.762,4052.7
967.839,4028.2
968.917,4028.5
969.994,4021.3
971.071,4008.2
972.147,4003.4
973.224,3995.6
974.3,3983.4
975.377,3974.4
976.453,3971.1
977.529,3953.4
978.605,3951.4
979.68,3941.4
980.756,3952.2
981.831,3938.2
982.907,3933.2
983.982,3924.0
985.057,3918.4
986.131,3916.6
987.206,3914.1
988.28,3904.1
989.355,3891.5
990.429,3894.6
991.503,3888.9
992.576,3883.4
993.65,3876.6
994.723,3872.3
995.797,3869.2
996.87,3863.3
997.943,3861.9
999.016,3855.1
1000.09,3853.6
1001.16,3845.8
1002.23,3844.4
1003.31,3836.9
1004.38,3836.8
1005.45,3829.6
1006.52,3828.0
1007.59,3826.6
1008.66,3821.6
1009.73,3824.1
1010.81,3814.6
1011.88,3818.5
1012.95,3815.7
1014.02,3813.2
1015.09,3810.5
1016.16,3806.2
1017.23,3804.5
1018.3,3803.7
1019.37,3797.8
1020.44,3799.6
1021.51,3798.6
1022.58,3800.8
1023.64,3800.2
1024.71,3798.1
1025.78,3792.5
1026.85,3787.0
1027.92,3785.8
1028.99,3783.0
1030.05,3778.3
1031.12,3776.8
1032.19,3780.3
1033.26,3780.4
1034.32,3779.5
1035.39,3779.6
1036.46,3778.4
1037.52,3776.6
1038.59,3773.1
1039.66,3772.7
1040.72,3771.3
1041.79,3768.3
1042.86,3765.8
1043.92,3768.4
1044.99,3766.6
1046.05,3765.4
1047.12,3765.2
1048.18,3764.2
1049.25,3764.1
1050.31,3764.8
1051.37,3763.7
1052.44,3762.4
1053.5,3763.3
1054.57,3760.3
1055.63,3761.8
1056.69,3761.6
1057.76,3763.0
1058.82,3761.8
1059.88,3759.1
1060.95,3760.3
1062.01,3760.4
1063.07,3759.5
1064.13,3760.3
1065.19,3760.7
1066.26,3759.2
1067.32,3757.8
1068.11,3757.7

File: VLFR_07-PET_bio_Raman_308939de.csv
nm,Intensity
791.588,6157.5
792.685,6115.0
793.781,6056.9
794.878,6109.0
795.975,6070.8
797.071,6046.3
798.168,6066.0
799.264,6065.4
800.36,6096.3
801.456,6025.1
802.552,6020.6
803.648,6016.9
804.744,5952.9
805.84,5933.9
806.936,5908.4
808.031,5856.0
809.127,5891.6
810.222,5773.3
811.317,5764.3
812.412,5698.4
813.507,5677.0
814.602,5629.5
815.697,5594.6
816.792,5557.1
817.887,5538.2
818.981,5528.1
820.076,5548.3
821.17,5529.2
822.265,5439.6
823.359,5381.3
824.453,5440.8
825.547,5375.6
826.641,5431.2
827.735,5375.3
828.828,5317.2
829.922,5319.2
831.016,5308.5
832.109,5292.8
833.202,5249.9
834.295,5244.1
835.388,5208.6
836.481,5213.8
837.574,5191.2
838.667,5177.3
839.76,5143.6
840.852,5148.6
841.945,5164.8
843.037,5099.4
844.129,5086.1
845.221,5034.3
846.314,5033.0
847.405,5018.6
848.497,4983.8
849.589,4972.2
850.68,4953.5
851.772,4959.8
852.863,4942.1
853.955,4894.9
855.046,4902.7
856.137,4889.4
857.228,4868.0
858.318,4906.4
859.409,4888.5
860.5,4897.0
861.59,4835.9
862.681,4848.1
863.771,4824.8
864.861,4842.5
865.951,4768.0
867.041,4815.4
868.131,4774.4
869.22,4782.8
870.31,4763.4
871.399,4764.3
872.488,4797.3
873.578,4793.4
874.667,4755.1
875.756,4738.8
876.845,4722.0
877.933,4697.3
879.022,4693.2
880.11,4693.4
881.199,4694.1
882.287,4678.4
883.375,4660.5
884.463,4634.4
885.551,4665.8
886.639,4615.0
887.726,4600.0
888.814,4602.2
889.901,4591.3
890.988,4568.1
892.075,4561.9
893.162,4534.8
894.249,4519.8
895.336,4495.5
896.423,4473.3
897.509,4491.7
898.595,4492.3
899.682,4446.6
900.768,4402.3
901.854,4387.0
902.94,4398.5
904.025,4397.0
905.111,4375.7
906.196,4387.0
907.282,4384.2
908.367,4371.6
909.452,4333.0
910.537,4305.8
911.622,4292.7
912.706,4262.0
913.791,4243.0
914.875,4243.4
915.959,4231.2
917.044,4217.2
918.128,4210.1
919.211,4204.2
920.295,4203.1
921.379,4193.5
922.462,4168.2
923.546,4150.1
924.629,4150.6
925.712,4131.7
926.795,4128.3
927.877,4102.2
928.96,4080.5
930.043,4067.6
931.125,4051.9
932.207,4048.4
933.289,4030.5
934.371,4024.5
935.453,4018.4
936.535,4010.9
937.616,3994.3
938.697,4005.5
939.779,3990.0
940.86,3984.8
941.941,3974.9
943.022,3972.4
944.102,3961.5
945.183,3948.9
946.263,3951.4
947.343,3944.2
948.423,3941.4
949.503,3926.0
950.583,3925.8
951.663,3927.0
952.742,3911.0
953.822,3915.8
954.901,3912.3
955.98,3900.9
957.059,3898.6
958.137,3893.4
959.216,3892.2
960.294,3879.6
961.373,3880.5
962.451,3882.8
963.529,3874.4
964.607,3874.3
965.684,3870.4
966.762,3864.2
967.839,3867.7
968.917,3871.8
969.994,3869.7
971.071,3856.3
972.147,3854.1
973.224,3854.7
974.3,3848.3
975.377,3843.2
976.453,3839.2
977.529,3838.0
978.605,3839.1
979.68,3834.8
980.756,3831.8
981.831,3833.3
982.907,3831.3
983.982,3831.2
985.057,3825.8
986.131,3821.4
987.206,3825.2
988.28,3822.6
989.355,3820.2
990.429,3816.3
991.503,3814.0
992.576,3813.6
993.65,3808.1
994.723,3808.0
995.797,3811.4
996.87,3803.9
997.943,3801.8
999.016,3800.1
1000.09,3798.9
1001.16,3797.1
1002.23,3793.1
1003.31,3794.0
1004.38,3791.9
1005.45,3789.1
1006.52,3787.4
1007.59,3786.4
1008.66,3783.1
1009.73,3787.4
1010.81,3783.6
1011.88,3780.5
1012.95,3777.7
1014.02,3778.6
1015.09,3779.2
1016.16,3776.5
1017.23,3776.7
1018.3,3774.4
1019.37,3777.4
1020.44,3774.6
1021.51,3770.9
1022.58,3772.1
1023.64,3770.1
1024.71,3770.6
1025.78,3767.1
1026.85,3767.2
1027.92,3767.1
1028.99,3765.0
1030.05,3766.2
1031.12,3763.3
1032.19,3761.7
1033.26,3764.9
1034.32,3764.8
1035.39,3765.3
1036.46,3761.6
1037.52,3761.9
1038.59,3759.7
1039.66,3760.3
1040.72,3759.8
1041.79,3758.5
1042.86,3760.1
1043.92,3757.0
1044.99,3758.3
1046.05,3756.2
1047.12,3756.3
1048.18,3757.8
1049.25,3756.5
1050.31,3758.3
1051.37,3757.3
1052.44,3756.9
1053.5,3756.7
1054.57,3755.6
1055.63,3756.6
1056.69,3755.2
1057.76,3753.6
1058.82,3755.1
1059.88,3755.4
1060.95,3755.8
1062.01,3754.4
1063.07,3755.0
1064.13,3754.3
1065.19,3755.0
1066.26,3752.5
1067.32,3752.5
1068.11,3753.0