Folder: MPX_specDB/spectra (part 129)

File: VLFR_08-PLA_bio_Raman_8d72bcc1.csv
nm,Intensity
526.547,831.8
527.095,832.4
527.642,831.25
528.189,831.7
528.736,831.4
529.283,831.75
529.829,831.4
530.376,832.4
530.922,831.7
531.468,831.75
532.014,847.75
532.56,833.4
533.106,831.7
533.651,832.5
534.196,875.05
534.742,873.1
535.287,865.4
535.832,862.95
536.376,862.95
536.921,861.1
537.465,866.1
538.01,869.0
538.554,873.45
539.098,875.9
539.642,871.7
540.186,865.6
540.729,864.25
541.273,864.1
541.816,865.1
542.36,864.15
542.903,866.6
543.446,864.6
543.988,865.65
544.531,867.55
545.074,879.4
545.616,890.6
546.158,875.15
546.701,867.75
547.243,867.15
547.785,865.85
548.326,866.45
548.868,870.55
549.41,875.6
549.951,880.35
550.492,880.5
551.034,874.0
551.575,871.85
552.116,868.85
552.656,869.65
553.197,868.7
553.738,870.6
554.278,870.6
554.819,869.2
555.359,871.35
555.899,870.4
556.439,869.15
556.979,870.4
557.519,870.1
558.058,873.8
558.598,869.7
559.137,871.45
559.677,871.9
560.216,873.95
560.755,875.8
561.294,894.4
561.833,924.45
562.371,877.05
562.91,881.05
563.449,899.9
563.987,881.85
564.525,880.2
565.064,881.3
565.602,880.55
566.14,883.65
566.678,887.65
567.216,882.4
567.753,878.6
568.291,876.65
568.828,881.0
569.366,876.6
569.903,878.75
570.44,877.15
570.977,879.5
571.514,878.6
572.051,878.2
572.588,879.5
573.125,880.55
573.661,880.55
574.198,878.85
574.734,880.5
575.271,879.95
575.807,880.15
576.343,881.95
576.879,881.2
577.415,881.8
577.951,880.95
578.486,882.0
579.022,882.15
579.557,883.1
580.093,883.4
580.628,881.3
581.164,883.6
581.699,882.4
582.234,883.85
582.769,885.85
583.304,888.15
583.838,883.8
584.373,887.4
584.908,888.4
585.442,884.5
585.977,884.35
586.511,888.8
587.045,885.9
587.58,887.9
588.114,887.6
588.648,884.9
589.182,885.85
589.715,886.05
590.249,886.8
590.783,885.45
591.316,884.5
591.85,886.95
592.383,887.45
592.917,885.35
593.45,885.05
593.983,886.65
594.516,889.25
595.049,887.85
595.582,887.75
596.115,886.0
596.648,885.4
597.18,888.3
597.713,885.5
598.245,886.75
598.778,888.25
599.31,889.0
599.842,888.75
600.375,887.95
600.907,888.85
601.439,888.5
601.971,887.15
602.503,889.7
603.034,890.0
603.566,886.35
604.098,888.35
604.629,888.2
605.161,887.9
605.692,887.6
606.224,888.8
606.755,886.45
607.286,888.25
607.817,886.45
608.348,887.05
608.879,888.9
609.41,889.4
609.941,886.6
610.472,884.85
611.002,889.45
611.533,886.35
612.063,888.3
612.594,887.75
613.124,887.8
613.655,888.2
614.185,887.65
614.715,887.65
615.245,887.55
615.775,887.0
616.305,888.05
616.835,885.9
617.365,889.0
617.895,885.25
618.425,888.1
618.954,889.85
619.484,887.9
620.013,887.65
620.543,887.35
621.072,886.9
621.602,889.2
622.131,887.95
622.66,884.8
623.189,886.25
623.718,886.75
624.247,885.9
624.776,885.1
625.305,885.2
625.834,887.45
626.363,885.85
626.891,886.2
627.42,888.55
627.949,884.6
628.477,888.0
629.006,889.25
629.534,889.15
630.062,887.05
630.591,890.0
631.119,896.1
631.647,887.75
632.175,888.2
632.703,889.35
633.231,888.8
633.759,888.15
634.287,885.45
634.815,887.6
635.343,884.9
635.871,886.7
636.398,885.95
636.926,887.95
637.454,886.95
637.981,888.1
638.509,888.5
639.036,887.5
639.564,890.25
640.091,891.7
640.618,892.8
641.146,892.5
641.673,896.2
642.2,897.85
642.727,899.85
643.254,900.15
643.781,899.6
644.308,900.0
644.835,899.2
645.362,900.65
645.889,902.25
646.416,904.45
646.942,905.2
647.469,908.05
647.996,911.1
648.522,915.2
649.049,917.5
649.576,919.65
650.102,919.5
650.629,920.05
651.155,920.35
651.682,921.55
652.208,915.55
652.734,910.0
653.261,902.85
653.787,901.05
654.313,899.55
654.839,895.6
655.365,895.75
655.892,891.95
656.418,889.95
656.944,887.05
657.47,885.9
657.996,883.35
658.522,881.4
659.048,881.8
659.574,880.95
660.099,878.75
660.625,875.75
661.151,875.75
661.677,875.05
662.203,874.2
662.728,873.85
663.123,873.75

File: VLFR_08-PLA_bio_Raman_8ee738dd.csv
nm,Intensity
526.547,832.35
527.095,833.05
527.642,832.8
528.189,832.9
528.736,832.7
529.283,832.55
529.829,831.75
530.376,832.15
530.922,833.05
531.468,832.35
532.014,846.65
532.56,832.1
533.106,832.15
533.651,834.55
534.196,991.7
534.742,967.35
535.287,944.55
535.832,935.95
536.376,933.5
536.921,930.95
537.465,926.95
538.01,927.25
538.554,920.9
539.098,918.7
539.642,917.3
540.186,913.2
540.729,922.35
541.273,923.65
541.816,919.4
542.36,918.05
542.903,923.85
543.446,928.05
543.988,936.25
544.531,925.6
545.074,920.45
545.616,918.2
546.158,919.0
546.701,920.55
547.243,920.6
547.785,922.95
548.326,920.9
548.868,921.25
549.41,925.3
549.951,926.85
550.492,927.5
551.034,926.8
551.575,931.5
552.116,933.2
552.656,934.5
553.197,933.05
553.738,933.15
554.278,936.6
554.819,933.0
555.359,930.55
555.899,931.2
556.439,930.35
556.979,930.8
557.519,941.25
558.058,1001.95
558.598,946.45
559.137,941.95
559.677,939.8
560.216,940.05
560.755,939.9
561.294,938.9
561.833,939.75
562.371,937.25
562.91,944.7
563.449,962.2
563.987,950.05
564.525,946.35
565.064,959.9
565.602,957.1
566.14,974.85
566.678,953.8
567.216,947.8
567.753,950.05
568.291,950.6
568.828,952.9
569.366,952.3
569.903,952.5
570.44,953.2
570.977,950.7
571.514,964.05
572.051,964.05
572.588,964.25
573.125,963.15
573.661,965.35
574.198,962.0
574.734,966.45
575.271,957.8
575.807,958.25
576.343,969.3
576.879,1002.1
577.415,970.55
577.951,965.3
578.486,960.55
579.022,966.4
579.557,966.85
580.093,965.35
580.628,962.75
581.164,966.9
581.699,963.95
582.234,967.45
582.769,965.5
583.304,969.15
583.838,971.75
584.373,968.85
584.908,968.9
585.442,970.4
585.977,969.75
586.511,980.25
587.045,999.2
587.58,1008.4
588.114,984.6
588.648,974.15
589.182,973.05
589.715,973.9
590.249,973.3
590.783,975.4
591.316,974.75
591.85,975.65
592.383,975.85
592.917,977.2
593.45,977.5
593.983,977.3
594.516,978.0
595.049,978.8
595.582,981.9
596.115,978.2
596.648,981.4
597.18,981.0
597.713,981.7
598.245,984.0
598.778,985.6
599.31,985.35
599.842,986.05
600.375,985.25
600.907,987.15
601.439,987.8
601.971,985.7
602.503,987.8
603.034,990.25
603.566,990.5
604.098,991.35
604.629,990.95
605.161,991.1
605.692,986.95
606.224,985.25
606.755,984.45
607.286,987.45
607.817,985.25
608.348,990.95
608.879,992.1
609.41,993.85
609.941,990.45
610.472,995.85
611.002,994.6
611.533,996.35
612.063,1000.65
612.594,999.5
613.124,1000.3
613.655,1003.85
614.185,1003.9
614.715,1004.1
615.245,1007.8
615.775,1007.45
616.305,1009.1
616.835,1008.35
617.365,1013.95
617.895,1011.25
618.425,1012.7
618.954,1013.5
619.484,1016.4
620.013,1014.05
620.543,1015.25
621.072,1016.45
621.602,1016.45
622.131,1019.9
622.66,1028.8
623.189,1027.1
623.718,1031.0
624.247,1029.0
624.776,1033.1
625.305,1031.6
625.834,1030.7
626.363,1033.65
626.891,1034.05
627.42,1036.85
627.949,1042.65
628.477,1071.6
629.006,1070.9
629.534,1071.45
630.062,1079.15
630.591,1106.45
631.119,1274.05
631.647,1161.0
632.175,1105.0
632.703,1096.55
633.231,1140.8
633.759,1129.35
634.287,1084.65
634.815,1068.6
635.343,1058.6
635.871,1059.0
636.398,1065.85
636.926,1066.95
637.454,1064.25
637.981,1067.6
638.509,1066.2
639.036,1071.4
639.564,1069.25
640.091,1074.6
640.618,1070.05
641.146,1078.75
641.673,1076.0
642.2,1083.3
642.727,1077.95
643.254,1078.35
643.781,1080.8
644.308,1084.6
644.835,1082.15
645.362,1083.45
645.889,1088.25
646.416,1091.0
646.942,1085.3
647.469,1088.7
647.996,1092.35
648.522,1088.85
649.049,1094.65
649.576,1093.4
650.102,1098.85
650.629,1096.9
651.155,1097.2
651.682,1101.05
652.208,1105.1
652.734,1105.7
653.261,1108.65
653.787,1108.35
654.313,1111.6
654.839,1116.05
655.365,1117.7
655.892,1122.4
656.418,1124.1
656.944,1133.35
657.47,1136.5
657.996,1139.0
658.522,1146.55
659.048,1148.4
659.574,1152.95
660.099,1157.05
660.625,1161.15
661.151,1161.75
661.677,1162.4
662.203,1172.7
662.728,1179.8
663.123,1178.35

File: VLFR_08-PLA_bio_Raman_9a408c6c.csv
nm,Intensity
526.508,829.6
527.055,829.8
527.602,829.3
528.149,828.4
528.695,827.6
529.241,827.2
529.787,827.5
530.334,828.1
530.879,830.1
531.425,828.9
531.971,834.4
532.516,829.6
533.062,828.4
533.607,831.5
534.152,1061.7
534.697,1010.2
535.242,976.1
535.786,958.4
536.331,945.9
536.876,950.6
537.42,940.6
537.964,936.2
538.508,928.1
539.052,924.0
539.596,919.5
540.14,914.1
540.683,935.4
541.227,933.0
541.77,931.1
542.313,923.5
542.856,926.2
543.399,946.7
543.942,957.1
544.485,938.7
545.027,919.5
545.57,923.2
546.112,920.6
546.654,920.5
547.196,921.5
547.738,925.7
548.28,931.2
548.822,927.4
549.363,929.5
549.905,928.4
550.446,926.9
550.988,931.3
551.529,935.6
552.07,939.9
552.611,940.3
553.152,946.4
553.692,938.6
554.233,949.6
554.773,942.4
555.314,935.4
555.854,930.2
556.394,933.8
556.934,938.0
557.474,950.0
558.014,1080.6
558.553,974.7
559.093,952.5
559.632,949.2
560.172,943.1
560.711,940.9
561.25,939.8
561.789,938.3
562.328,942.2
562.867,951.2
563.406,982.2
563.944,965.7
564.483,953.6
565.021,977.4
565.559,970.9
566.098,1008.2
566.636,969.6
567.174,948.9
567.711,958.9
568.249,956.5
568.787,958.0
569.324,960.5
569.862,952.3
570.399,955.4
570.936,955.2
571.474,973.8
572.011,978.6
572.548,971.2
573.084,969.8
573.621,977.8
574.158,973.5
574.694,981.6
575.231,962.4
575.767,967.6
576.303,978.4
576.84,1049.4
577.376,980.8
577.912,965.3
578.447,963.5
578.983,961.9
579.519,963.6
580.054,959.8
580.59,962.2
581.125,961.0
581.661,960.2
582.196,962.7
582.731,963.3
583.266,964.5
583.801,966.8
584.336,966.5
584.87,965.6
585.405,969.1
585.94,972.9
586.474,980.7
587.008,1018.7
587.543,1038.0
588.077,993.6
588.611,971.9
589.145,968.2
589.679,964.9
590.213,965.1
590.747,959.9
591.28,963.5
591.814,962.6
592.347,962.3
592.881,963.5
593.414,957.5
593.947,963.7
594.48,960.8
595.014,971.6
595.547,960.1
596.079,966.3
596.612,962.4
597.145,964.2
597.678,961.2
598.21,962.1
598.743,967.3
599.275,965.0
599.807,960.6
600.34,963.8
600.872,960.0
601.404,960.5
601.936,961.6
602.468,962.4
603.0,962.9
603.532,962.1
604.063,956.8
604.595,956.8
605.126,955.9
605.658,957.2
606.189,954.3
606.721,956.5
607.252,957.4
607.783,958.4
608.314,957.3
608.845,954.5
609.376,955.8
609.907,955.2
610.438,956.3
610.968,954.3
611.499,956.5
612.03,953.4
612.56,960.2
613.091,956.7
613.621,958.5
614.151,958.2
614.681,953.6
615.212,957.6
615.742,957.4
616.272,951.8
616.802,952.8
617.332,961.0
617.861,955.9
618.391,956.2
618.921,959.2
619.45,952.0
619.98,953.8
620.509,950.8
621.039,951.1
621.568,956.8
622.097,952.9
622.627,962.0
623.156,973.1
623.685,967.3
624.214,957.6
624.743,958.3
625.272,955.9
625.801,957.9
626.33,952.0
626.858,952.8
627.387,960.6
627.916,968.6
628.444,1043.8
628.973,1024.0
629.501,1028.7
630.029,1034.2
630.558,1098.3
631.086,1533.7
631.614,1253.3
632.142,1101.3
632.67,1073.2
633.198,1175.0
633.726,1134.7
634.254,1033.5
634.782,971.6
635.31,957.9
635.838,953.4
636.365,945.3
636.893,946.6
637.421,943.7
637.948,942.2
638.476,942.2
639.003,937.3
639.531,936.6
640.058,944.3
640.585,938.8
641.113,940.7
641.64,943.0
642.167,941.1
642.694,937.8
643.221,931.2
643.748,933.7
644.275,928.2
644.802,931.0
645.329,930.7
645.856,930.4
646.382,932.5
646.909,930.4
647.436,922.5
647.962,927.1
648.489,923.6
649.016,926.6
649.542,929.4
650.069,926.2
650.595,925.9
651.121,922.0
651.648,924.7
652.174,922.4
652.7,919.2
653.227,921.0
653.753,922.3
654.279,920.8
654.805,921.7
655.331,920.2
655.857,922.4
656.383,921.2
656.909,924.1
657.435,920.3
657.961,922.9
658.487,919.4
659.013,919.4
659.538,919.0
660.064,917.1
660.59,917.0
661.116,916.7
661.641,914.5
662.167,914.9
662.692,911.7
663.087,910.8

File: VLFR_08-PLA_bio_Raman_18d64c87.csv
nm,Intensity
526.495,828.7
527.042,828.3
527.589,829.7
528.136,830.9
528.682,828.9
529.229,829.9
529.775,830.1
530.321,828.8
530.867,829.3
531.413,827.7
531.959,832.2
532.505,830.3
533.051,828.2
533.596,831.7
534.141,1021.4
534.687,984.1
535.232,946.2
535.777,936.0
536.321,930.1
536.866,934.4
537.41,924.1
537.955,922.2
538.499,914.4
539.043,914.3
539.587,909.4
540.131,908.5
540.675,922.5
541.219,919.6
541.762,910.0
542.305,910.4
542.849,914.5
543.392,927.4
543.935,938.9
544.478,920.7
545.02,910.1
545.563,910.4
546.106,909.2
546.648,906.5
547.19,912.3
547.732,909.9
548.274,912.0
548.816,909.8
549.358,914.3
549.9,914.1
550.441,919.4
550.983,919.4
551.524,918.7
552.065,926.0
552.606,922.6
553.147,922.9
553.688,920.4
554.229,927.8
554.769,925.0
555.31,924.1
555.85,916.5
556.391,920.3
556.931,921.4
557.471,932.6
558.011,1026.0
558.551,948.2
559.09,936.4
559.63,934.9
560.169,927.7
560.709,927.3
561.248,925.4
561.787,928.0
562.326,927.0
562.865,936.5
563.404,967.6
563.943,948.2
564.481,938.9
565.02,958.3
565.558,950.3
566.096,973.5
566.634,954.6
567.172,936.9
567.71,937.5
568.248,943.1
568.786,943.7
569.324,942.1
569.861,942.4
570.399,941.6
570.936,944.5
571.473,960.6
572.01,959.9
572.547,957.8
573.084,960.6
573.621,957.7
574.158,954.8
574.694,967.0
575.231,951.8
575.767,952.9
576.303,964.2
576.84,1017.7
577.376,967.7
577.912,953.1
578.448,953.1
578.984,948.3
579.519,947.3
580.055,956.4
580.59,952.6
581.126,951.6
581.661,954.0
582.196,951.1
582.731,951.9
583.267,953.8
583.801,953.3
584.336,958.7
584.871,952.6
585.406,955.2
585.94,955.0
586.475,966.3
587.009,997.9
587.543,1011.2
588.078,974.8
588.612,957.7
589.146,956.6
589.68,955.0
590.214,956.7
590.747,949.6
591.281,956.1
591.815,954.2
592.348,955.9
592.881,952.1
593.415,953.3
593.948,954.0
594.481,960.0
595.014,955.0
595.547,954.3
596.08,957.4
596.613,954.6
597.146,954.1
597.678,954.2
598.211,961.2
598.743,958.1
599.276,955.1
599.808,952.6
600.34,955.5
600.872,956.7
601.404,959.4
601.936,954.3
602.468,954.4
603.0,957.4
603.532,952.5
604.064,956.9
604.595,953.0
605.127,951.2
605.658,952.9
606.189,945.1
606.721,953.6
607.252,951.1
607.783,952.2
608.314,953.2
608.845,952.4
609.376,953.4
609.907,951.3
610.438,953.5
610.968,951.2
611.499,947.1
612.029,951.4
612.56,958.3
613.09,952.2
613.621,954.8
614.151,955.4
614.681,960.4
615.211,952.3
615.741,952.3
616.271,957.3
616.801,954.6
617.331,954.8
617.861,950.8
618.39,951.8
618.92,956.2
619.45,957.6
619.979,954.0
620.509,950.4
621.038,952.5
621.567,951.0
622.096,951.0
622.626,959.5
623.155,966.6
623.684,959.4
624.213,960.0
624.742,955.7
625.271,952.5
625.799,950.9
626.328,955.4
626.857,951.0
627.386,952.6
627.914,961.7
628.443,1011.0
628.971,996.0
629.5,996.3
630.028,999.8
630.556,1045.9
631.084,1315.3
631.613,1138.7
632.141,1048.6
632.669,1036.4
633.197,1097.9
633.725,1074.9
634.253,1003.0
634.781,962.3
635.308,954.2
635.836,948.5
636.364,948.3
636.891,944.6
637.419,943.6
637.947,941.3
638.474,938.6
639.002,943.7
639.529,938.6
640.056,943.0
640.584,938.0
641.111,941.4
641.638,943.3
642.165,941.2
642.692,935.3
643.219,936.5
643.746,933.0
644.273,931.3
644.8,932.9
645.327,929.2
645.854,928.7
646.381,932.0
646.908,928.8
647.434,931.0
647.961,928.1
648.488,927.8
649.014,924.6
649.541,923.0
650.067,925.7
650.594,923.1
651.12,923.3
651.646,924.0
652.173,921.2
652.699,926.0
653.225,921.5
653.752,924.6
654.278,924.1
654.804,922.0
655.33,921.5
655.856,920.9
656.382,920.7
656.908,922.4
657.434,918.1
657.96,920.2
658.486,918.4
659.012,917.5
659.538,915.1
660.064,918.1
660.589,914.1
661.115,917.8
661.641,915.1
662.166,913.0
662.692,914.7
663.086,911.7

File: VLFR_08-PLA_bio_Raman_22cf8370.csv
nm,Intensity
526.495,829.6
527.042,829.3
527.589,828.8
528.136,828.5
528.682,830.5
529.229,829.3
529.775,830.5
530.321,829.1
530.867,829.1
531.413,827.7
531.959,830.5
532.505,829.8
533.051,829.2
533.596,830.7
534.141,1037.4
534.687,1003.9
535.232,969.7
535.777,953.1
536.321,940.2
536.866,944.1
537.41,936.2
537.955,933.0
538.499,922.9
539.043,920.4
539.587,916.7
540.131,913.8
540.675,930.7
541.219,930.7
541.762,921.3
542.305,918.2
542.849,924.6
543.392,941.1
543.935,950.7
544.478,928.7
545.02,922.0
545.563,919.1
546.106,916.0
546.648,922.8
547.19,921.3
547.732,920.3
548.274,917.4
548.816,921.5
549.358,928.7
549.9,930.0
550.441,927.6
550.983,931.5
551.524,929.9
552.065,934.8
552.606,939.3
553.147,940.9
553.688,932.5
554.229,946.4
554.769,935.7
555.31,932.7
555.85,929.4
556.391,932.6
556.931,933.8
557.471,948.9
558.011,1063.2
558.551,971.2
559.09,951.1
559.63,947.5
560.169,940.5
560.709,939.6
561.248,939.7
561.787,938.9
562.326,942.6
562.865,951.2
563.404,975.8
563.943,962.9
564.481,954.7
565.02,971.3
565.558,968.8
566.096,998.1
566.634,969.2
567.172,954.8
567.71,956.9
568.248,959.4
568.786,958.5
569.324,960.5
569.861,957.5
570.399,957.7
570.936,957.4
571.473,977.0
572.01,978.5
572.547,973.0
573.084,975.5
573.621,978.2
574.158,976.4
574.694,988.3
575.231,968.0
575.767,962.1
576.303,979.7
576.84,1036.8
577.376,986.3
577.912,971.6
578.448,971.3
578.984,966.3
579.519,968.8
580.055,967.1
580.59,968.6
581.126,963.9
581.661,968.4
582.196,970.8
582.731,968.5
583.267,971.1
583.801,973.3
584.336,971.4
584.871,972.9
585.406,977.1
585.94,973.9
586.475,987.3
587.009,1025.8
587.543,1047.7
588.078,998.6
588.612,979.6
589.146,973.8
589.68,977.3
590.214,979.0
590.747,977.8
591.281,980.2
591.815,976.6
592.348,974.3
592.881,976.5
593.415,979.5
593.948,983.0
594.481,981.8
595.014,984.8
595.547,986.5
596.08,983.7
596.613,987.2
597.146,990.5
597.678,993.8
598.211,994.5
598.743,991.5
599.276,988.7
599.808,993.0
600.34,995.9
600.872,990.3
601.404,996.6
601.936,997.3
602.468,1002.8
603.0,1003.1
603.532,1003.9
604.064,1005.9
604.595,1005.6
605.127,998.3
605.658,1002.8
606.189,1006.2
606.721,1010.0
607.252,1015.1
607.783,1012.2
608.314,1013.9
608.845,1018.5
609.376,1017.1
609.907,1021.0
610.438,1020.8
610.968,1019.4
611.499,1027.8
612.029,1025.2
612.56,1030.7
613.09,1033.5
613.621,1035.9
614.151,1042.6
614.681,1043.7
615.211,1037.5
615.741,1042.3
616.271,1045.7
616.801,1044.2
617.331,1050.1
617.861,1044.3
618.39,1049.3
618.92,1052.4
619.45,1054.3
619.979,1047.2
620.509,1049.6
621.038,1054.7
621.567,1053.1
622.096,1057.0
622.626,1066.4
623.155,1072.4
623.684,1072.2
624.213,1061.9
624.742,1058.1
625.271,1059.0
625.799,1058.0
626.328,1059.6
626.857,1054.5
627.386,1057.2
627.914,1065.1
628.443,1139.0
628.971,1124.9
629.5,1123.2
630.028,1129.5
630.556,1189.2
631.084,1597.8
631.613,1327.0
632.141,1195.0
632.669,1168.9
633.197,1266.3
633.725,1229.1
634.253,1126.4
634.781,1065.2
635.308,1050.3
635.836,1043.7
636.364,1044.2
636.891,1038.6
637.419,1038.6
637.947,1031.9
638.474,1026.3
639.002,1031.6
639.529,1034.3
640.056,1028.0
640.584,1026.5
641.111,1029.1
641.638,1027.4
642.165,1026.8
642.692,1024.3
643.219,1013.4
643.746,1011.8
644.273,1011.6
644.8,1010.9
645.327,1005.8
645.854,1008.2
646.381,1005.5
646.908,1000.7
647.434,999.2
647.961,1002.2
648.488,997.3
649.014,997.3
649.541,993.8
650.067,996.3
650.594,995.2
651.12,986.1
651.646,985.6
652.173,991.5
652.699,984.8
653.225,987.6
653.752,983.8
654.278,984.9
654.804,978.7
655.33,982.0
655.856,979.5
656.382,977.0
656.908,979.5
657.434,976.3
657.96,977.1
658.486,974.6
659.012,977.1
659.538,970.7
660.064,971.1
660.589,970.1
661.115,967.6
661.641,967.5
662.166,965.9
662.692,967.7
663.086,960.4

File: VLFR_08-PLA_bio_Raman_23b24765.csv
nm,Intensity
528.637,1836.1
529.143,1837.3
529.648,1836.8
530.153,1838.7
530.659,1838.5
531.164,1839.8
531.669,1932.9
532.174,5196.4
532.679,1841.9
533.184,1842.3
533.689,2328.9
534.194,3406.9
534.699,3129.2
535.203,2862.5
535.708,2723.9
536.213,2660.7
536.717,2699.3
537.222,2620.5
537.726,2624.7
538.231,2525.0
538.735,2456.7
539.24,2483.3
539.744,2399.0
540.248,2485.5
540.752,2600.9
541.256,2557.9
541.761,2490.8
542.265,2469.4
542.769,2475.7
543.272,2672.6
543.776,2772.3
544.28,2610.9
544.784,2471.2
545.288,2422.9
545.791,2420.9
546.295,2411.2
546.798,2445.7
547.302,2439.2
547.805,2452.0
548.308,2470.2
548.812,2482.4
549.315,2519.0
549.818,2479.0
550.321,2484.2
550.824,2508.5
551.327,2542.9
551.83,2589.0
552.333,2619.1
552.836,2621.5
553.339,2558.6
553.842,2687.5
554.344,2635.0
554.847,2580.5
555.349,2537.6
555.852,2527.3
556.354,2526.3
556.857,2551.5
557.359,2722.2
557.861,3749.1
558.363,3278.2
558.866,2749.3
559.368,2688.5
559.87,2630.6
560.372,2612.9
560.873,2593.4
561.375,2546.6
561.877,2573.1
562.379,2594.7
562.88,2749.6
563.382,3051.0
563.883,2821.4
564.385,2691.1
564.886,2929.8
565.388,2924.6
565.889,3127.6
566.39,3023.9
566.891,2693.0
567.392,2648.6
567.893,2780.2
568.394,2702.5
568.895,2751.2
569.396,2718.4
569.897,2690.1
570.398,2734.7
570.898,2698.6
571.399,2906.1
571.899,2964.1
572.4,2860.0
572.9,2875.9
573.4,2911.4
573.901,2864.6
574.401,2926.2
574.901,2797.0
575.401,2716.5
575.901,2801.5
576.401,3256.3
576.901,3516.0
577.401,2902.3
577.9,2758.5
578.4,2743.3
578.9,2704.2
579.399,2725.1
579.899,2707.2
580.398,2747.0
580.897,2718.6
581.397,2723.9
581.896,2684.5
582.395,2710.7
582.894,2750.6
583.393,2707.3
583.892,2739.5
584.391,2723.9
584.889,2730.0
585.388,2718.8
585.887,2739.0
586.385,2865.9
586.884,3270.3
587.382,3503.0
587.881,3112.8
588.379,2811.5
588.877,2731.4
589.375,2721.5
589.874,2702.1
590.372,2739.7
590.87,2701.7
591.367,2723.2
591.865,2704.4
592.363,2709.2
592.861,2706.7
593.358,2691.3
593.856,2690.1
594.353,2691.9
594.851,2693.2
595.348,2713.4
595.845,2700.4
596.342,2715.1
596.84,2698.1
597.337,2700.8
597.833,2725.1
598.33,2702.2
598.827,2693.3
599.324,2705.0
599.821,2677.9
600.317,2734.4
600.814,2708.6
601.31,2708.1
601.807,2701.8
602.303,2736.1
602.799,2698.3
603.295,2691.7
603.791,2736.9
604.287,2690.9
604.783,2707.0
605.279,2687.7
605.775,2686.7
606.271,2696.3
606.766,2717.2
607.262,2675.6
607.757,2724.2
608.253,2674.3
608.748,2691.9
609.243,2710.2
609.738,2684.2
610.233,2683.2
610.729,2691.9
611.223,2706.5
611.718,2691.7
612.213,2686.6
612.708,2666.3
613.202,2696.5
613.697,2665.7
614.192,2679.7
614.686,2665.7
615.18,2673.5
615.675,2691.3
616.169,2683.5
616.663,2699.9
617.157,2687.1
617.651,2680.4
618.145,2648.6
618.638,2660.8
619.132,2662.8
619.626,2634.8
620.119,2663.8
620.613,2624.9
621.106,2646.3
621.599,2642.1
622.093,2675.8
622.586,2763.6
623.079,2795.4
623.572,2745.6
624.065,2704.4
624.558,2675.0
625.05,2662.1
625.543,2637.7
626.036,2632.8
626.528,2659.0
627.02,2653.0
627.513,2682.3
628.005,2939.3
628.497,3435.6
628.989,3240.5
629.481,3288.8
629.973,3300.5
630.465,4032.5
630.957,7184.5
631.449,5628.3
631.94,4024.2
632.432,3722.0
632.923,4478.2
633.414,4669.0
633.906,3795.2
634.397,2996.1
634.888,2733.9
635.379,2648.8
635.87,2578.3
636.361,2574.1
636.852,2565.0
637.342,2562.2
637.833,2523.8
638.323,2515.2
638.814,2527.9
639.304,2490.7
639.794,2502.2
640.285,2485.7
640.775,2501.3
641.265,2509.7
641.755,2490.0
642.244,2510.2
642.734,2463.9
643.224,2472.8
643.713,2481.1
644.203,2446.4
644.692,2445.9
645.181,2439.6
645.671,2461.1
646.16,2400.2
646.649,2411.2
647.138,2386.4
647.627,2413.2
648.115,2388.3
648.604,2371.5
649.093,2384.2
649.581,2385.0
650.07,2365.9
650.558,2365.8
651.046,2347.1
651.534,2347.9
652.023,2363.0
652.511,2325.2
652.998,2318.6
653.486,2329.8
653.974,2335.2
654.462,2308.5
654.949,2291.2
655.437,2292.0
655.924,2279.6
656.411,2286.9
656.898,2298.7
657.385,2277.8
657.872,2275.6
658.359,2279.2
658.846,2257.7
659.333,2232.7
659.82,2231.9
660.306,2247.8
660.793,2238.6
661.036,2219.0