Folder: MPX_specDB/spectra (part 21)

File: VLFR_01-LDPE_nobio_Raman_7efa561d.csv
nm,Intensity
526.5,830.2
527.047,828.9
527.594,828.4
528.14,829.3
528.687,828.9
529.233,828.8
529.779,829.3
530.325,829.1
530.871,829.4
531.417,828.9
531.962,831.9
532.508,829.2
533.053,828.6
533.599,829.9
534.144,900.1
534.689,890.7
535.234,875.9
535.778,865.5
536.323,860.2
536.867,858.6
537.412,857.2
537.956,855.6
538.5,853.3
539.044,852.0
539.588,852.6
540.132,848.2
540.675,848.6
541.219,848.9
541.762,847.0
542.305,847.2
542.848,845.6
543.391,843.2
543.934,847.3
544.477,843.9
545.02,845.3
545.562,844.1
546.105,842.3
546.647,843.5
547.189,843.1
547.731,843.5
548.273,842.8
548.815,842.4
549.356,843.7
549.898,842.1
550.439,843.0
550.981,842.3
551.522,843.0
552.063,843.5
552.604,842.9
553.145,840.8
553.686,844.7
554.226,844.8
554.767,844.8
555.307,845.2
555.848,846.7
556.388,847.9
556.928,850.6
557.468,851.4
558.008,853.4
558.547,854.8
559.087,851.2
559.626,849.2
560.166,849.7
560.705,848.1
561.244,848.2
561.783,849.2
562.322,851.3
562.861,854.9
563.4,857.6
563.939,903.6
564.477,874.6
565.015,866.8
565.554,861.5
566.092,912.4
566.63,867.8
567.168,858.8
567.706,862.1
568.244,856.9
568.781,857.4
569.319,857.8
569.857,858.8
570.394,861.7
570.931,867.8
571.468,940.4
572.005,891.5
572.542,874.1
573.079,866.7
573.616,868.0
574.153,876.1
574.689,868.0
575.226,873.4
575.762,906.7
576.298,999.3
576.834,952.2
577.371,928.6
577.907,894.8
578.442,895.4
578.978,893.9
579.514,897.8
580.049,904.3
580.585,903.5
581.12,905.9
581.656,912.3
582.191,916.0
582.726,921.3
583.261,923.0
583.796,934.2
584.331,933.5
584.865,937.7
585.4,942.9
585.935,950.0
586.469,959.4
587.004,964.3
587.538,971.4
588.072,985.3
588.606,992.9
589.14,999.5
589.674,1007.5
590.208,1026.0
590.742,1029.6
591.275,1047.8
591.809,1050.2
592.342,1049.4
592.876,1061.7
593.409,1070.4
593.942,1076.2
594.476,1087.7
595.009,1092.1
595.542,1107.8
596.075,1114.6
596.607,1126.4
597.14,1139.6
597.673,1147.8
598.205,1164.2
598.738,1173.7
599.27,1174.7
599.803,1183.4
600.335,1189.8
600.867,1182.0
601.399,1179.0
601.931,1177.7
602.463,1172.1
602.995,1167.2
603.527,1152.1
604.058,1141.6
604.59,1126.7
605.122,1107.1
605.653,1097.3
606.184,1082.3
606.716,1066.6
607.247,1060.4
607.778,1052.6
608.309,1044.4
608.84,1041.3
609.371,1033.0
609.902,1023.6
610.433,1014.9
610.964,1011.8
611.494,1011.3
612.025,1003.3
612.556,998.6
613.086,995.5
613.616,994.7
614.147,991.3
614.677,984.2
615.207,984.1
615.737,978.3
616.267,975.7
616.797,975.0
617.327,975.3
617.857,978.8
618.387,972.7
618.917,968.6
619.446,968.0
619.976,963.1
620.505,966.1
621.035,967.0
621.564,973.9
622.093,994.1
622.623,989.8
623.152,962.1
623.681,957.9
624.21,955.7
624.739,949.1
625.268,954.7
625.797,955.4
626.326,980.8
626.855,1178.0
627.383,1576.5
627.912,1326.1
628.441,1513.3
628.969,1361.2
629.498,1277.6
630.026,1178.5
630.554,1159.9
631.083,1045.3
631.611,982.0
632.139,961.0
632.667,944.8
633.195,943.3
633.724,939.0
634.252,937.0
634.779,935.0
635.307,940.8
635.835,933.7
636.363,937.2
636.891,938.3
637.418,932.7
637.946,936.8
638.474,940.2
639.001,938.8
639.529,940.9
640.056,939.6
640.583,943.2
641.111,942.6
641.638,948.0
642.165,951.4
642.692,951.9
643.22,951.3
643.747,952.0
644.274,956.5
644.801,954.0
645.328,957.2
645.854,959.6
646.381,961.9
646.908,959.4
647.435,962.9
647.962,966.3
648.488,962.6
649.015,969.1
649.542,965.8
650.068,971.7
650.595,972.5
651.121,969.3
651.648,968.9
652.174,976.3
652.7,971.3
653.227,970.7
653.753,980.6
654.279,979.3
654.805,972.0
655.331,976.2
655.858,972.2
656.384,970.4
656.91,972.6
657.436,965.2
657.962,963.4
658.488,959.0
659.013,956.9
659.539,949.4
660.065,946.4
660.591,943.3
661.117,935.9
661.642,932.0
662.168,926.8
662.694,922.5
663.088,916.6

File: VLFR_01-LDPE_nobio_Raman_8b051ab0.csv
cm-1,Intensity
-123.878,1851.55
-105.821,1853.45
-87.8007,1852.8
-69.8161,1852.35
-51.8675,1852.45
-33.9547,1853.55
-16.0776,1877.25
1.76388,3060.35
19.5698,1853.6
37.3403,1853.45
55.0755,1921.05
72.7754,2113.0
90.4402,2114.15
108.07,2105.6
125.665,2103.15
143.225,2092.45
160.75,2083.7
178.241,2086.45
195.697,2107.15
213.119,2117.8
230.506,2097.65
247.859,2093.45
265.178,2107.65
282.463,2110.2
299.713,2102.05
316.93,2089.7
334.113,2087.85
351.263,2083.35
368.379,2092.8
385.461,2088.05
402.51,2097.6
419.526,2093.35
436.508,2080.0
453.458,2087.15
470.374,2086.0
487.257,2100.8
504.107,2090.9
520.925,2093.0
537.71,2096.15
554.462,2096.15
571.182,2101.3
587.87,2100.35
604.525,2104.7
621.148,2091.7
637.739,2098.6
654.297,2106.6
670.824,2112.4
687.319,2108.9
703.782,2100.4
720.213,2115.85
736.613,2123.6
752.981,2110.2
769.317,2120.25
785.623,2117.25
801.897,2122.75
818.139,2120.75
834.351,2119.8
850.532,2130.6
866.681,2132.2
882.8,2133.45
898.888,2132.4
914.945,2144.0
930.972,2132.85
946.968,2139.4
962.934,2144.75
978.869,2141.8
994.774,2150.0
1010.65,2160.15
1026.49,2158.85
1042.31,2182.75
1058.09,2257.3
1073.85,2219.25
1089.57,2213.65
1105.27,2196.85
1120.93,2243.7
1136.57,2227.55
1152.18,2201.3
1167.75,2206.4
1183.3,2207.8
1198.82,2194.5
1214.31,2212.7
1229.77,2226.05
1245.2,2224.05
1260.6,2222.9
1275.97,2246.05
1291.32,2396.8
1306.63,2314.25
1321.92,2280.1
1337.18,2249.4
1352.41,2259.75
1367.61,2261.0
1382.78,2232.8
1397.93,2236.4
1413.05,2280.75
1428.14,2338.25
1443.2,2441.85
1458.23,2380.15
1473.23,2303.8
1488.21,2254.35
1503.16,2247.8
1518.08,2242.9
1532.97,2254.15
1547.84,2251.7
1562.68,2263.3
1577.49,2270.9
1592.27,2265.65
1607.03,2250.5
1621.76,2253.0
1636.46,2242.7
1651.14,2246.2
1665.78,2251.0
1680.41,2251.55
1695.0,2250.8
1709.57,2246.7
1724.11,2241.0
1738.62,2246.6
1753.11,2250.2
1767.57,2269.95
1782.01,2269.3
1796.41,2274.55
1810.8,2242.4
1825.15,2262.4
1839.48,2259.3
1853.79,2275.6
1868.06,2281.3
1882.31,2279.0
1896.54,2281.7
1910.74,2293.9
1924.91,2289.75
1939.06,2306.8
1953.19,2291.15
1967.28,2299.5
1981.35,2300.3
1995.4,2303.95
2009.42,2298.8
2023.42,2319.15
2037.39,2314.95
2051.33,2314.25
2065.25,2326.35
2079.15,2327.6
2093.01,2324.7
2106.86,2342.95
2120.68,2343.0
2134.47,2332.05
2148.24,2346.6
2161.99,2336.3
2175.71,2328.6
2189.41,2328.8
2203.08,2337.55
2216.73,2319.35
2230.35,2326.6
2243.95,2311.1
2257.52,2314.5
2271.07,2309.65
2284.6,2305.4
2298.1,2311.3
2311.58,2288.45
2325.03,2286.3
2338.46,2282.6
2351.87,2290.55
2365.25,2298.6
2378.61,2280.2
2391.94,2279.75
2405.26,2271.2
2418.54,2273.1
2431.81,2274.8
2445.05,2276.5
2458.27,2274.4
2471.46,2263.35
2484.63,2266.4
2497.78,2251.95
2510.9,2261.75
2524.0,2261.65
2537.08,2256.4
2550.14,2262.4
2563.17,2263.45
2576.18,2252.45
2589.17,2268.5
2602.13,2276.7
2615.07,2274.6
2627.99,2270.15
2640.89,2273.35
2653.76,2287.1
2666.61,2275.65
2679.44,2283.85
2692.25,2280.1
2705.03,2313.95
2717.79,2348.2
2730.53,2335.55
2743.25,2281.55
2755.94,2281.35
2768.61,2268.9
2781.27,2264.55
2793.89,2270.7
2806.5,2280.95
2819.09,2316.35
2831.65,2462.7
2844.19,3322.35
2856.71,3393.2
2869.21,3059.8
2881.69,3578.4
2894.14,3160.4
2906.58,2966.35
2918.99,2850.05
2931.38,2779.5
2943.75,2519.25
2956.1,2343.0
2968.42,2297.65
2980.73,2282.1
2993.01,2261.4
3005.28,2246.5
3017.52,2235.35
3029.74,2223.75
3041.94,2223.85
3054.12,2213.25
3066.28,2205.85
3078.42,2228.85
3090.54,2212.15
3102.63,2210.65
3114.71,2207.9
3126.77,2216.8
3138.8,2202.05
3150.82,2197.05
3162.81,2202.8
3174.78,2191.55
3186.74,2197.5
3198.67,2197.45
3210.58,2205.2
3222.47,2196.9
3234.35,2194.7
3246.2,2189.1
3258.03,2193.45
3269.84,2187.2
3281.64,2183.0
3293.41,2187.05
3305.16,2182.7
3316.89,2184.05
3328.61,2186.6
3340.3,2177.75
3351.97,2161.15
3363.63,2185.15
3375.26,2170.5
3386.88,2165.0
3398.47,2155.65
3410.05,2155.25
3421.6,2174.4
3433.14,2174.0
3444.66,2152.2
3456.15,2165.2
3467.63,2153.8
3479.09,2156.25
3490.53,2149.3
3501.96,2154.9
3513.36,2144.7
3524.74,2136.4
3536.11,2129.35
3547.45,2131.8
3558.78,2121.2
3570.09,2117.05
3581.37,2122.75
3592.64,2117.3
3603.9,2107.45
3615.13,2112.65
3626.34,2101.8
3637.54,2089.75
3648.72,2098.6
3659.87,2097.45
3665.45,2094.0

File: VLFR_01-LDPE_nobio_Raman_8ba3fdb7.csv
nm,Intensity
526.5,828.9
527.047,829.6
527.594,828.9
528.14,830.1
528.687,829.3
529.233,829.9
529.779,829.3
530.325,828.6
530.871,830.3
531.417,830.1
531.962,838.0
532.508,830.5
533.053,830.2
533.599,832.3
534.144,981.0
534.689,988.3
535.234,981.7
535.778,993.4
536.323,998.0
536.867,996.1
537.412,995.9
537.956,1004.9
538.5,1004.3
539.044,1003.2
539.588,1010.6
540.132,1011.4
540.675,1012.3
541.219,1021.2
541.762,1026.7
542.305,1030.4
542.848,1039.8
543.391,1034.4
543.934,1040.7
544.477,1048.1
545.02,1041.3
545.562,1053.4
546.105,1058.4
546.647,1052.0
547.189,1062.7
547.731,1063.7
548.273,1066.2
548.815,1065.3
549.356,1072.6
549.898,1070.1
550.439,1070.4
550.981,1075.2
551.522,1080.0
552.063,1082.6
552.604,1087.3
553.145,1086.7
553.686,1089.2
554.226,1090.8
554.767,1086.1
555.307,1089.6
555.848,1094.8
556.388,1097.4
556.928,1098.0
557.468,1104.0
558.008,1096.5
558.547,1099.9
559.087,1109.3
559.626,1114.1
560.166,1113.3
560.705,1113.8
561.244,1118.2
561.783,1117.2
562.322,1117.8
562.861,1127.9
563.4,1126.9
563.939,1141.6
564.477,1150.0
565.015,1162.7
565.554,1156.4
566.092,1159.5
566.63,1153.9
567.168,1145.7
567.706,1152.0
568.244,1151.2
568.781,1157.3
569.319,1157.3
569.857,1162.3
570.394,1163.1
570.931,1166.7
571.468,1167.5
572.005,1171.5
572.542,1182.5
573.079,1187.9
573.616,1180.6
574.153,1194.7
574.689,1187.2
575.226,1189.1
575.762,1188.8
576.298,1198.6
576.834,1195.8
577.371,1189.4
577.907,1193.2
578.442,1190.9
578.978,1193.9
579.514,1191.9
580.049,1192.7
580.585,1188.3
581.12,1191.2
581.656,1195.7
582.191,1200.6
582.726,1208.3
583.261,1205.7
583.796,1204.9
584.331,1210.3
584.865,1208.6
585.4,1213.3
585.935,1203.8
586.469,1213.0
587.004,1224.9
587.538,1221.8
588.072,1216.3
588.606,1217.2
589.14,1219.6
589.674,1226.1
590.208,1222.8
590.742,1231.7
591.275,1238.2
591.809,1238.4
592.342,1241.0
592.876,1230.1
593.409,1225.3
593.942,1234.4
594.476,1236.8
595.009,1237.9
595.542,1252.5
596.075,1242.2
596.607,1244.6
597.14,1252.6
597.673,1266.9
598.205,1258.1
598.738,1267.3
599.27,1266.1
599.803,1265.2
600.335,1265.8
600.867,1260.6
601.399,1262.5
601.931,1263.6
602.463,1257.8
602.995,1261.0
603.527,1254.6
604.058,1254.3
604.59,1250.3
605.122,1245.3
605.653,1228.9
606.184,1223.5
606.716,1218.0
607.247,1223.9
607.778,1218.5
608.309,1213.3
608.84,1220.5
609.371,1222.1
609.902,1212.4
610.433,1205.8
610.964,1207.6
611.494,1217.0
612.025,1213.5
612.556,1216.1
613.086,1209.4
613.616,1218.5
614.147,1212.5
614.677,1212.6
615.207,1202.0
615.737,1202.2
616.267,1198.4
616.797,1202.2
617.327,1202.2
617.857,1197.9
618.387,1200.1
618.917,1190.1
619.446,1196.0
619.976,1185.5
620.505,1188.6
621.035,1182.8
621.564,1186.9
622.093,1188.6
622.623,1182.4
623.152,1190.9
623.681,1190.9
624.21,1185.8
624.739,1182.0
625.268,1185.3
625.797,1193.1
626.326,1188.7
626.855,1191.2
627.383,1200.9
627.912,1194.0
628.441,1215.7
628.969,1214.5
629.498,1214.7
630.026,1203.4
630.554,1201.2
631.083,1197.5
631.611,1187.8
632.139,1175.0
632.667,1168.2
633.195,1170.8
633.724,1157.8
634.252,1161.5
634.779,1161.0
635.307,1153.8
635.835,1156.2
636.363,1153.1
636.891,1157.1
637.418,1150.8
637.946,1147.3
638.474,1145.6
639.001,1151.2
639.529,1145.6
640.056,1141.9
640.583,1137.9
641.111,1133.7
641.638,1145.7
642.165,1142.6
642.692,1134.4
643.22,1129.1
643.747,1134.1
644.274,1131.2
644.801,1132.4
645.328,1123.8
645.854,1133.8
646.381,1123.8
646.908,1125.0
647.435,1128.5
647.962,1134.3
648.488,1122.7
649.015,1127.2
649.542,1130.1
650.068,1126.3
650.595,1127.7
651.121,1113.7
651.648,1129.4
652.174,1127.4
652.7,1126.3
653.227,1126.8
653.753,1122.4
654.279,1122.0
654.805,1120.0
655.331,1121.2
655.858,1118.2
656.384,1115.0
656.91,1114.5
657.436,1112.7
657.962,1111.8
658.488,1114.5
659.013,1103.8
659.539,1109.2
660.065,1104.2
660.591,1105.0
661.117,1103.1
661.642,1095.1
662.168,1093.6
662.694,1093.8
663.088,1090.9

File: VLFR_01-LDPE_nobio_Raman_8da42f06.csv
cm-1,Intensity
-123.878,1853.8
-105.821,1850.55
-87.8007,1852.75
-69.8161,1853.5
-51.8675,1853.1
-33.9547,1852.95
-16.0776,1871.85
1.76388,2929.35
19.5698,1853.05
37.3403,1852.75
55.0755,1984.35
72.7754,2281.4
90.4402,2267.05
108.07,2236.9
125.665,2202.75
143.225,2172.55
160.75,2163.75
178.241,2156.9
195.697,2175.25
213.119,2155.25
230.506,2143.55
247.859,2139.85
265.178,2129.65
282.463,2120.1
299.713,2121.0
316.93,2125.55
334.113,2119.2
351.263,2120.65
368.379,2122.4
385.461,2104.55
402.51,2112.3
419.526,2108.35
436.508,2109.3
453.458,2109.8
470.374,2111.0
487.257,2101.95
504.107,2105.05
520.925,2110.35
537.71,2101.65
554.462,2110.7
571.182,2093.3
587.87,2096.15
604.525,2097.25
621.148,2095.75
637.739,2095.05
654.297,2102.1
670.824,2107.85
687.319,2104.8
703.782,2091.45
720.213,2115.5
736.613,2119.5
752.981,2118.9
769.317,2124.1
785.623,2113.35
801.897,2139.0
818.139,2139.25
834.351,2147.55
850.532,2162.6
866.681,2180.4
882.8,2188.55
898.888,2181.7
914.945,2169.3
930.972,2164.95
946.968,2157.85
962.934,2159.55
978.869,2165.85
994.774,2183.4
1010.65,2197.7
1026.49,2219.85
1042.31,2244.1
1058.09,2536.4
1073.85,2343.35
1089.57,2316.85
1105.27,2270.3
1120.93,2462.5
1136.57,2439.15
1152.18,2261.05
1167.75,2271.8
1183.3,2234.85
1198.82,2218.3
1214.31,2217.55
1229.77,2227.25
1245.2,2228.45
1260.6,2245.65
1275.97,2283.8
1291.32,2828.1
1306.63,2487.8
1321.92,2316.95
1337.18,2266.75
1352.41,2262.3
1367.61,2295.8
1382.78,2237.9
1397.93,2247.8
1413.05,2409.35
1428.14,2597.45
1443.2,2918.9
1458.23,2694.95
1473.23,2445.85
1488.21,2292.0
1503.16,2246.75
1518.08,2252.5
1532.97,2254.85
1547.84,2241.35
1562.68,2248.2
1577.49,2251.0
1592.27,2249.1
1607.03,2253.35
1621.76,2257.85
1636.46,2256.55
1651.14,2258.3
1665.78,2269.0
1680.41,2272.55
1695.0,2272.8
1709.57,2261.7
1724.11,2271.6
1738.62,2281.55
1753.11,2276.1
1767.57,2295.95
1782.01,2291.65
1796.41,2311.35
1810.8,2283.15
1825.15,2281.8
1839.48,2298.7
1853.79,2323.55
1868.06,2327.85
1882.31,2338.4
1896.54,2345.15
1910.74,2367.9
1924.91,2390.75
1939.06,2421.0
1953.19,2425.9
1967.28,2454.45
1981.35,2461.35
1995.4,2510.45
2009.42,2554.05
2023.42,2598.75
2037.39,2620.65
2051.33,2678.2
2065.25,2716.8
2079.15,2743.05
2093.01,2782.05
2106.86,2834.65
2120.68,2874.65
2134.47,2851.45
2148.24,2873.8
2161.99,2883.3
2175.71,2887.7
2189.41,2878.45
2203.08,2871.8
2216.73,2816.5
2230.35,2844.2
2243.95,2794.05
2257.52,2772.85
2271.07,2738.35
2284.6,2712.0
2298.1,2689.45
2311.58,2650.6
2325.03,2629.35
2338.46,2607.2
2351.87,2584.7
2365.25,2573.05
2378.61,2526.7
2391.94,2543.2
2405.26,2504.05
2418.54,2515.9
2431.81,2515.65
2445.05,2495.75
2458.27,2478.6
2471.46,2456.95
2484.63,2450.5
2497.78,2424.35
2510.9,2431.4
2524.0,2412.1
2537.08,2405.85
2550.14,2400.5
2563.17,2404.4
2576.18,2403.75
2589.17,2402.95
2602.13,2408.25
2615.07,2402.4
2627.99,2384.2
2640.89,2390.05
2653.76,2419.25
2666.61,2400.85
2679.44,2398.8
2692.25,2434.45
2705.03,2514.0
2717.79,2588.1
2730.53,2539.75
2743.25,2426.4
2755.94,2374.3
2768.61,2362.85
2781.27,2359.2
2793.89,2364.35
2806.5,2402.55
2819.09,2474.0
2831.65,2932.45
2844.19,5411.1
2856.71,5206.75
2869.21,4436.6
2881.69,6072.9
2894.14,4718.1
2906.58,4182.9
2918.99,3681.0
2931.38,3517.85
2943.75,2939.55
2956.1,2534.0
2968.42,2412.55
2980.73,2322.9
2993.01,2268.5
3005.28,2255.85
3017.52,2258.4
3029.74,2234.0
3041.94,2230.1
3054.12,2210.05
3066.28,2180.9
3078.42,2205.05
3090.54,2190.1
3102.63,2185.2
3114.71,2171.85
3126.77,2171.9
3138.8,2174.1
3150.82,2164.2
3162.81,2160.95
3174.78,2159.9
3186.74,2151.85
3198.67,2159.25
3210.58,2157.95
3222.47,2161.05
3234.35,2156.35
3246.2,2161.05
3258.03,2166.1
3269.84,2156.55
3281.64,2152.75
3293.41,2170.0
3305.16,2164.75
3316.89,2162.5
3328.61,2154.15
3340.3,2157.35
3351.97,2163.85
3363.63,2167.35
3375.26,2165.1
3386.88,2181.1
3398.47,2167.85
3410.05,2177.55
3421.6,2190.25
3433.14,2202.9
3444.66,2188.5
3456.15,2198.65
3467.63,2198.2
3479.09,2204.7
3490.53,2183.1
3501.96,2201.95
3513.36,2200.8
3524.74,2182.35
3536.11,2184.9
3547.45,2179.0
3558.78,2158.5
3570.09,2166.7
3581.37,2173.55
3592.64,2164.3
3603.9,2150.75
3615.13,2149.0
3626.34,2118.8
3637.54,2122.25
3648.72,2121.75
3659.87,2117.85
3665.45,2099.2

File: VLFR_01-LDPE_nobio_Raman_8f1ab1c6.csv
nm,Intensity
526.547,833.6
527.094,832.0
527.641,832.3
528.188,831.9
528.734,832.8
529.281,832.3
529.827,832.1
530.373,832.2
530.92,831.2
531.466,831.6
532.011,836.7
532.557,833.3
533.103,833.4
533.648,832.3
534.193,906.8
534.738,902.0
535.283,891.0
535.828,882.9
536.373,879.1
536.917,876.4
537.462,873.1
538.006,873.8
538.55,872.3
539.094,870.9
539.638,866.1
540.182,865.2
540.726,866.1
541.269,867.1
541.812,863.0
542.356,862.3
542.899,860.9
543.442,864.0
543.985,860.5
544.527,859.7
545.07,861.2
545.612,858.3
546.155,864.3
546.697,861.2
547.239,860.5
547.781,857.7
548.323,860.1
548.865,857.6
549.406,859.2
549.948,858.6
550.489,858.5
551.03,857.7
551.572,858.2
552.113,859.7
552.654,857.4
553.194,859.4
553.735,859.2
554.276,863.9
554.816,862.0
555.356,863.0
555.896,861.6
556.437,860.7
556.977,866.2
557.516,868.5
558.056,870.6
558.596,869.7
559.135,867.7
559.675,868.1
560.214,869.8
560.753,869.0
561.292,871.4
561.831,873.5
562.37,871.6
562.909,876.7
563.448,877.9
563.986,917.9
564.525,893.6
565.063,887.1
565.601,892.0
566.139,918.9
566.677,892.2
567.215,886.8
567.753,890.7
568.291,887.1
568.828,892.3
569.366,896.4
569.903,894.6
570.441,896.2
570.978,903.8
571.515,972.6
572.052,921.9
572.589,915.8
573.126,906.6
573.662,912.1
574.199,915.3
574.735,917.9
575.272,919.1
575.808,940.6
576.344,1012.2
576.88,979.0
577.416,961.4
577.952,951.1
578.488,954.4
579.024,959.7
579.559,961.9
580.095,971.8
580.63,978.3
581.166,987.3
581.701,989.4
582.236,1000.9
582.771,1012.5
583.306,1026.3
583.841,1028.5
584.376,1045.0
584.911,1049.4
585.445,1070.6
585.98,1084.6
586.514,1108.3
587.048,1111.9
587.583,1139.4
588.117,1163.4
588.651,1175.6
589.185,1196.6
589.719,1217.0
590.253,1233.7
590.786,1247.7
591.32,1274.4
591.853,1290.9
592.387,1308.5
592.92,1315.5
593.454,1323.6
593.987,1345.9
594.52,1373.6
595.053,1396.4
595.586,1416.2
596.119,1443.9
596.651,1476.4
597.184,1503.1
597.717,1534.6
598.249,1572.2
598.782,1604.1
599.314,1622.2
599.846,1641.1
600.379,1654.2
600.911,1660.3
601.443,1654.1
601.975,1645.9
602.507,1629.7
603.038,1608.2
603.57,1593.7
604.102,1572.4
604.633,1527.6
605.165,1488.8
605.696,1451.6
606.228,1423.1
606.759,1403.9
607.29,1371.7
607.821,1369.2
608.352,1343.4
608.883,1316.7
609.414,1299.2
609.945,1288.1
610.476,1270.4
611.006,1266.1
611.537,1254.6
612.067,1236.5
612.598,1238.5
613.128,1233.2
613.659,1227.7
614.189,1212.3
614.719,1210.1
615.249,1189.8
615.779,1186.6
616.309,1180.5
616.839,1174.9
617.369,1171.5
617.899,1169.5
618.428,1155.4
618.958,1145.1
619.487,1146.0
620.017,1140.5
620.546,1139.6
621.076,1131.4
621.605,1132.7
622.134,1149.6
622.663,1141.1
623.193,1125.0
623.722,1118.2
624.251,1108.3
624.78,1108.0
625.308,1110.1
625.837,1110.7
626.366,1128.6
626.895,1324.5
627.423,1599.9
627.952,1400.5
628.48,1610.4
629.009,1416.2
629.537,1344.3
630.065,1267.8
630.594,1260.1
631.122,1154.2
631.65,1116.1
632.178,1101.4
632.706,1085.0
633.234,1085.8
633.762,1077.1
634.29,1080.2
634.818,1084.1
635.346,1088.8
635.873,1087.3
636.401,1087.9
636.929,1095.0
637.456,1095.1
637.984,1103.7
638.511,1103.2
639.039,1105.0
639.566,1110.9
640.093,1117.6
640.62,1129.2
641.148,1137.4
641.675,1137.4
642.202,1144.9
642.729,1150.9
643.256,1156.9
643.783,1154.3
644.31,1150.8
644.837,1163.9
645.364,1161.7
645.891,1180.3
646.417,1175.0
646.944,1180.1
647.471,1182.2
647.997,1195.1
648.524,1185.0
649.051,1199.1
649.577,1197.6
650.104,1203.4
650.63,1209.2
651.157,1208.0
651.683,1216.6
652.209,1225.0
652.736,1223.7
653.262,1228.9
653.788,1231.7
654.314,1229.3
654.84,1233.9
655.366,1235.9
655.893,1226.9
656.419,1218.5
656.945,1218.1
657.471,1212.9
657.997,1214.3
658.522,1195.7
659.048,1186.2
659.574,1177.1
660.1,1169.1
660.626,1152.9
661.152,1135.2
661.677,1123.0
662.203,1114.2
662.729,1102.5
663.123,1100.1

File: VLFR_01-LDPE_nobio_Raman_9db99332.csv
cm-1,Intensity
-123.878,1852.55
-105.821,1852.15
-87.8007,1853.3
-69.8161,1852.4
-51.8675,1853.75
-33.9547,1855.25
-16.0776,1886.1
1.76388,3031.8
19.5698,1854.9
37.3403,1854.15
55.0755,1951.75
72.7754,2189.55
90.4402,2171.75
108.07,2162.15
125.665,2128.4
143.225,2116.2
160.75,2103.95
178.241,2093.2
195.697,2108.7
213.119,2105.9
230.506,2108.7
247.859,2115.45
265.178,2086.7
282.463,2073.6
299.713,2075.0
316.93,2072.4
334.113,2075.35
351.263,2074.05
368.379,2076.45
385.461,2074.55
402.51,2069.75
419.526,2067.7
436.508,2065.6
453.458,2063.3
470.374,2067.3
487.257,2062.6
504.107,2073.6
520.925,2054.0
537.71,2063.6
554.462,2067.05
571.182,2059.5
587.87,2069.9
604.525,2067.85
621.148,2068.25
637.739,2072.85
654.297,2075.45
670.824,2075.8
687.319,2065.6
703.782,2058.7
720.213,2074.9
736.613,2072.7
752.981,2079.3
769.317,2083.5
785.623,2082.7
801.897,2093.6
818.139,2087.65
834.351,2101.8
850.532,2107.05
866.681,2130.7
882.8,2128.6
898.888,2127.35
914.945,2112.65
930.972,2108.45
946.968,2094.4
962.934,2105.7
978.869,2108.0
994.774,2129.7
1010.65,2137.45
1026.49,2146.6
1042.31,2178.3
1058.09,2402.4
1073.85,2262.25
1089.57,2242.45
1105.27,2197.1
1120.93,2348.75
1136.57,2318.95
1152.18,2195.95
1167.75,2214.3
1183.3,2171.25
1198.82,2180.25
1214.31,2178.75
1229.77,2188.2
1245.2,2194.15
1260.6,2226.0
1275.97,2267.75
1291.32,2682.45
1306.63,2441.15
1321.92,2317.7
1337.18,2265.45
1352.41,2255.85
1367.61,2315.2
1382.78,2245.8
1397.93,2262.15
1413.05,2410.4
1428.14,2589.1
1443.2,2839.0
1458.23,2680.0
1473.23,2506.85
1488.21,2408.6
1503.16,2368.8
1518.08,2393.2
1532.97,2415.25
1547.84,2423.75
1562.68,2470.7
1577.49,2503.55
1592.27,2528.5
1607.03,2558.55
1621.76,2564.0
1636.46,2574.45
1651.14,2652.35
1665.78,2669.15
1680.41,2677.85
1695.0,2689.2
1709.57,2735.5
1724.11,2776.65
1738.62,2848.4
1753.11,2848.1
1767.57,2899.75
1782.01,2960.95
1796.41,3007.1
1810.8,3044.1
1825.15,3112.25
1839.48,3107.25
1853.79,3214.65
1868.06,3271.1
1882.31,3314.55
1896.54,3330.35
1910.74,3375.9
1924.91,3379.65
1939.06,3452.7
1953.19,3452.7
1967.28,3426.0
1981.35,3523.75
1995.4,3538.45
2009.42,3581.55
2023.42,3600.85
2037.39,3616.2
2051.33,3670.35
2065.25,3709.6
2079.15,3656.95
2093.01,3753.35
2106.86,3698.05
2120.68,3796.95
2134.47,3740.95
2148.24,3778.05
2161.99,3720.65
2175.71,3744.5
2189.41,3701.25
2203.08,3704.75
2216.73,3604.35
2230.35,3536.65
2243.95,3499.9
2257.52,3480.9
2271.07,3442.4
2284.6,3355.35
2298.1,3366.95
2311.58,3266.85
2325.03,3203.05
2338.46,3185.55
2351.87,3142.55
2365.25,3065.45
2378.61,3025.95
2391.94,3036.1
2405.26,2985.1
2418.54,2968.2
2431.81,2981.65
2445.05,2947.05
2458.27,2941.6
2471.46,2861.2
2484.63,2866.6
2497.78,2807.15
2510.9,2822.2
2524.0,2828.55
2537.08,2776.45
2550.14,2721.35
2563.17,2737.15
2576.18,2712.8
2589.17,2718.2
2602.13,2721.3
2615.07,2707.9
2627.99,2679.45
2640.89,2688.2
2653.76,2691.35
2666.61,2671.5
2679.44,2679.35
2692.25,2708.35
2705.03,2760.05
2717.79,2844.25
2730.53,2783.1
2743.25,2675.9
2755.94,2625.5
2768.61,2618.35
2781.27,2570.45
2793.89,2621.0
2806.5,2655.95
2819.09,2727.75
2831.65,3175.3
2844.19,5491.2
2856.71,5341.1
2869.21,4695.35
2881.69,6280.5
2894.14,4994.15
2906.58,4506.9
2918.99,3994.9
2931.38,3837.3
2943.75,3300.7
2956.1,2851.15
2968.42,2717.9
2980.73,2615.9
2993.01,2600.8
3005.28,2601.6
3017.52,2599.45
3029.74,2590.8
3041.94,2595.65
3054.12,2587.0
3066.28,2537.85
3078.42,2573.85
3090.54,2554.95
3102.63,2571.4
3114.71,2536.7
3126.77,2560.9
3138.8,2563.15
3150.82,2561.7
3162.81,2611.35
3174.78,2561.45
3186.74,2607.25
3198.67,2621.35
3210.58,2596.15
3222.47,2616.45
3234.35,2614.2
3246.2,2584.25
3258.03,2660.65
3269.84,2639.4
3281.64,2619.5
3293.41,2632.7
3305.16,2616.0
3316.89,2630.15
3328.61,2632.75
3340.3,2580.15
3351.97,2629.4
3363.63,2628.4
3375.26,2590.75
3386.88,2595.5
3398.47,2577.1
3410.05,2565.95
3421.6,2587.05
3433.14,2594.85
3444.66,2543.9
3456.15,2587.55
3467.63,2578.05
3479.09,2590.5
3490.53,2534.2
3501.96,2546.35
3513.36,2487.25
3524.74,2485.1
3536.11,2492.0
3547.45,2473.45
3558.78,2455.75
3570.09,2454.45
3581.37,2474.05
3592.64,2415.15
3603.9,2413.75
3615.13,2421.5
3626.34,2327.5
3637.54,2328.95
3648.72,2355.5
3659.87,2321.7
3665.45,2332.7