Folder: MPX_specDB/spectra (part 87)

File: VLFR_06-PET_nobio_Raman_8338e6c5.csv
nm,Intensity
526.5,830.7
527.047,829.4
527.594,830.5
528.14,829.1
528.687,829.7
529.233,830.4
529.779,832.5
530.325,830.5
530.871,831.4
531.417,830.5
531.962,834.9
532.508,833.3
533.053,830.3
533.599,848.8
534.144,3129.5
534.689,3339.6
535.234,3306.2
535.778,3443.7
536.323,3486.4
536.867,3516.9
537.412,3541.1
537.956,3619.7
538.5,3663.9
539.044,3687.1
539.588,3738.2
540.132,3775.5
540.675,3786.8
541.219,3855.0
541.762,3932.3
542.305,3957.1
542.848,4013.7
543.391,4073.1
543.934,4128.4
544.477,4159.7
545.02,4260.1
545.562,4274.6
546.105,4329.6
546.647,4377.1
547.189,4407.8
547.731,4436.9
548.273,4489.3
548.815,4562.7
549.356,4596.2
549.898,4646.1
550.439,4670.6
550.981,4749.8
551.522,4781.9
552.063,4830.5
552.604,4868.0
553.145,4910.4
553.686,4967.3
554.226,5030.6
554.767,5043.7
555.307,5052.2
555.848,5086.8
556.388,5140.1
556.928,5196.0
557.468,5223.8
558.008,5257.5
558.547,5259.4
559.087,5330.5
559.626,5391.8
560.166,5480.6
560.705,5508.3
561.244,5524.1
561.783,5544.8
562.322,5585.0
562.861,5703.1
563.4,5757.4
563.939,5843.3
564.477,5916.9
565.015,5979.9
565.554,6025.2
566.092,6062.6
566.63,6056.3
567.168,6052.5
567.706,6121.1
568.244,6169.5
568.781,6244.9
569.319,6361.7
569.857,6406.6
570.394,6453.1
570.931,6441.1
571.468,6485.4
572.005,6558.8
572.542,6639.6
573.079,6693.5
573.616,6800.3
574.153,6824.0
574.689,6875.0
575.226,6916.5
575.762,6962.7
576.298,6992.8
576.834,7024.0
577.371,7094.3
577.907,7160.8
578.442,7173.9
578.978,7252.0
579.514,7294.0
580.049,7326.0
580.585,7378.1
581.12,7403.2
581.656,7453.9
582.191,7499.2
582.726,7542.6
583.261,7589.1
583.796,7649.7
584.331,7684.0
584.865,7710.5
585.4,7740.9
585.935,7853.3
586.469,7913.7
587.004,7965.4
587.538,7986.3
588.072,7997.9
588.606,7994.4
589.14,7974.6
589.674,8002.4
590.208,8059.2
590.742,8126.1
591.275,8196.7
591.809,8218.7
592.342,8219.2
592.876,8188.5
593.409,8239.3
593.942,8238.7
594.476,8320.6
595.009,8346.8
595.542,8432.3
596.075,8485.4
596.607,8523.5
597.14,8560.6
597.673,8588.5
598.205,8682.4
598.738,8773.9
599.27,8788.7
599.803,8782.2
600.335,8797.7
600.867,8741.6
601.399,8765.0
601.931,8781.9
602.463,8859.4
602.995,8917.6
603.527,8909.7
604.058,8969.8
604.59,8923.4
605.122,8864.7
605.653,8792.1
606.184,8790.5
606.716,8788.6
607.247,8870.6
607.778,8972.8
608.309,8975.4
608.84,9030.7
609.371,9070.5
609.902,9066.9
610.433,9060.9
610.964,9061.3
611.494,9129.6
612.025,9212.3
612.556,9317.1
613.086,9405.4
613.616,9504.7
614.147,9534.3
614.677,9510.6
615.207,9507.5
615.737,9506.4
616.267,9489.1
616.797,9559.8
617.327,9621.5
617.857,9614.9
618.387,9637.7
618.917,9661.0
619.446,9683.2
619.976,9672.7
620.505,9669.5
621.035,9660.3
621.564,9695.0
622.093,9725.8
622.623,9764.0
623.152,9841.8
623.681,9886.2
624.21,9902.2
624.739,9913.0
625.268,9943.6
625.797,9917.9
626.326,9874.4
626.855,9922.7
627.383,9865.8
627.912,9899.3
628.441,9919.1
628.969,9936.5
629.498,9971.9
630.026,9953.6
630.554,9958.7
631.083,9972.8
631.611,10053.0
632.139,9984.7
632.667,9970.5
633.195,9975.8
633.724,9916.6
634.252,9909.5
634.779,9890.1
635.307,9939.5
635.835,9980.0
636.363,10006.9
636.891,10014.8
637.418,9982.9
637.946,9994.0
638.474,10018.7
639.001,10015.4
639.529,9994.0
640.056,9983.2
640.583,9959.4
641.111,9980.9
641.638,10005.8
642.165,9979.5
642.692,9910.0
643.22,9873.9
643.747,9814.9
644.274,9743.9
644.801,9705.5
645.328,9696.8
645.854,9718.0
646.381,9688.3
646.908,9716.8
647.435,9760.7
647.962,9712.5
648.488,9686.5
649.015,9634.8
649.542,9646.1
650.068,9575.5
650.595,9554.6
651.121,9576.7
651.648,9560.6
652.174,9601.4
652.7,9591.8
653.227,9613.0
653.753,9563.2
654.279,9598.0
654.805,9540.9
655.331,9495.3
655.858,9553.9
656.384,9549.6
656.91,9580.0
657.436,9588.4
657.962,9569.7
658.488,9629.7
659.013,9613.0
659.539,9621.7
660.065,9633.0
660.591,9595.7
661.117,9512.3
661.642,9496.7
662.168,9461.9
662.694,9475.1
663.088,9429.8

File: VLFR_06-PET_nobio_Raman_8660aefd.csv
nm,Intensity
526.532,833.0
527.079,833.6
527.625,833.25
528.172,832.75
528.718,832.5
529.265,833.15
529.811,833.5
530.357,834.0
530.903,833.55
531.449,833.5
531.994,840.05
532.54,833.85
533.085,833.7
533.63,859.15
534.176,2465.25
534.721,1979.05
535.266,1537.7
535.81,1272.85
536.355,1119.7
536.9,1053.05
537.444,1027.35
537.988,1018.55
538.533,1027.7
539.077,1022.05
539.621,1043.45
540.165,1045.9
540.708,1000.4
541.252,984.9
541.795,976.1
542.339,981.55
542.882,983.8
543.425,982.65
543.968,991.7
544.511,982.3
545.054,991.2
545.597,994.2
546.139,995.45
546.682,998.25
547.224,1004.0
547.766,1003.3
548.308,1008.2
548.85,1007.9
549.392,1012.6
549.934,1016.75
550.475,1054.75
551.017,1040.8
551.558,1029.35
552.1,1037.45
552.641,1056.75
553.182,1056.3
553.723,1091.3
554.264,1046.35
554.804,1054.25
555.345,1073.85
555.885,1137.25
556.426,1155.25
556.966,1165.45
557.506,1373.15
558.046,1192.3
558.586,1194.1
559.126,1128.4
559.665,1096.35
560.205,1099.6
560.745,1105.45
561.284,1114.0
561.823,1120.55
562.362,1139.0
562.901,1168.05
563.44,1169.65
563.979,1155.0
564.518,1164.65
565.056,1238.7
565.595,1323.3
566.133,1310.95
566.671,1198.1
567.21,1181.0
567.748,1296.45
568.285,1197.6
568.823,1197.45
569.361,1210.15
569.899,1246.55
570.436,1318.3
570.974,1483.5
571.511,1607.2
572.048,1413.05
572.585,1280.75
573.122,1252.6
573.659,1261.55
574.196,1292.0
574.733,1277.4
575.269,1326.7
575.806,1287.5
576.342,1335.55
576.878,1350.15
577.414,1305.75
577.951,1299.8
578.486,1305.05
579.022,1304.7
579.558,1313.85
580.094,1324.7
580.629,1335.5
581.165,1358.9
581.7,1502.6
582.236,3030.95
582.771,1418.4
583.306,1370.2
583.841,1367.35
584.376,1384.35
584.911,1408.05
585.445,1577.1
585.98,2245.65
586.514,1837.7
587.049,1457.75
587.583,1418.9
588.117,1410.95
588.651,1407.95
589.186,1407.9
589.72,1403.4
590.253,1414.25
590.787,1415.5
591.321,1417.8
591.854,1416.25
592.388,1417.1
592.921,1419.55
593.455,1420.8
593.988,1428.6
594.521,1435.65
595.054,1438.75
595.587,1444.5
596.12,1443.85
596.653,1452.35
597.186,1459.45
597.718,1452.1
598.251,1467.6
598.783,1469.4
599.316,1472.9
599.848,1464.5
600.38,1473.7
600.912,1475.0
601.444,1474.0
601.976,1470.7
602.508,1474.5
603.04,1478.8
603.572,1485.65
604.103,1489.05
604.635,1485.95
605.167,1482.0
605.698,1475.4
606.229,1476.25
606.761,1475.45
607.292,1479.3
607.823,1493.7
608.354,1498.1
608.885,1485.85
609.416,1498.8
609.947,1497.7
610.477,1494.3
611.008,1500.1
611.539,1502.6
612.069,1508.75
612.6,1520.3
613.13,1526.4
613.66,1534.95
614.19,1538.95
614.721,1540.35
615.251,1541.9
615.781,1538.15
616.311,1543.85
616.841,1553.7
617.37,1568.2
617.9,1578.7
618.43,1583.3
618.96,1573.0
619.489,1575.1
620.019,1571.25
620.548,1574.8
621.077,1574.05
621.607,1583.55
622.136,1583.95
622.665,1602.15
623.194,1611.45
623.723,1616.85
624.252,1621.0
624.781,1636.5
625.31,1647.1
625.839,1647.1
626.368,1640.95
626.896,1653.25
627.425,1650.45
627.953,1677.45
628.482,1695.8
629.01,1728.15
629.539,1737.5
630.067,1740.15
630.596,1747.75
631.124,1829.45
631.652,2000.8
632.18,1970.65
632.708,1870.5
633.236,1856.45
633.764,1832.85
634.292,1804.65
634.82,1788.15
635.348,1817.35
635.876,1917.6
636.403,2087.25
636.931,2038.55
637.459,1886.45
637.986,1852.4
638.514,1847.7
639.041,1853.2
639.568,1866.0
640.096,1869.5
640.623,1876.65
641.15,1886.05
641.678,1889.55
642.205,1914.65
642.732,1918.35
643.259,1900.35
643.786,1902.8
644.313,1904.8
644.84,1907.5
645.367,1908.05
645.894,1917.2
646.421,1921.55
646.948,1941.3
647.474,1946.3
648.001,1945.85
648.528,1948.5
649.054,1943.45
649.581,1943.75
650.108,1946.75
650.634,1953.05
651.161,1949.85
651.687,1955.55
652.214,1961.4
652.74,1971.65
653.266,1971.45
653.793,1979.2
654.319,1974.95
654.845,1974.95
655.371,1977.8
655.897,1990.35
656.424,1989.65
656.95,1982.65
657.476,1988.5
658.002,1985.05
658.528,1993.15
659.054,1984.85
659.58,1990.25
660.106,1982.9
660.631,1987.35
661.157,1971.95
661.683,1968.2
662.209,1966.65
662.735,1961.2
663.129,1968.55

File: VLFR_06-PET_nobio_Raman_9666e84d.csv
nm,Intensity
526.532,834.15
527.079,833.4
527.625,834.0
528.172,832.85
528.718,833.95
529.265,832.7
529.811,834.35
530.357,833.25
530.903,834.1
531.449,833.85
531.994,842.95
532.54,834.1
533.085,833.15
533.63,846.7
534.176,1651.85
534.721,1409.9
535.266,1200.25
535.81,1078.9
536.355,1006.2
536.9,977.0
537.444,962.95
537.988,960.1
538.533,968.0
539.077,965.15
539.621,979.3
540.165,978.25
540.708,957.1
541.252,949.5
541.795,950.65
542.339,950.95
542.882,950.0
543.425,953.65
543.968,961.15
544.511,958.65
545.054,963.55
545.597,960.75
546.139,965.6
546.682,966.65
547.224,971.1
547.766,973.3
548.308,975.0
548.85,977.75
549.392,981.3
549.934,983.0
550.475,1001.3
551.017,998.1
551.558,990.0
552.1,996.15
552.641,1005.8
553.182,1014.45
553.723,1008.15
554.264,1008.8
554.804,1010.5
555.345,1019.5
555.885,1051.1
556.426,1060.65
556.966,1069.45
557.506,1170.75
558.046,1082.3
558.586,1089.0
559.126,1054.35
559.665,1044.1
560.205,1048.95
560.745,1050.3
561.284,1049.6
561.823,1058.5
562.362,1070.75
562.901,1083.6
563.44,1088.85
563.979,1079.15
564.518,1091.2
565.056,1125.9
565.595,1175.85
566.133,1167.15
566.671,1110.6
567.21,1107.25
567.748,1163.45
568.285,1116.0
568.823,1119.7
569.361,1128.0
569.899,1148.15
570.436,1180.7
570.974,1268.6
571.511,1332.7
572.048,1237.45
572.585,1173.5
573.122,1162.2
573.659,1169.25
574.196,1189.9
574.733,1184.5
575.269,1210.3
575.806,1191.05
576.342,1217.8
576.878,1228.55
577.414,1208.7
577.951,1202.55
578.486,1207.3
579.022,1211.25
579.558,1213.2
580.094,1219.25
580.629,1226.55
581.165,1242.65
581.7,1309.6
582.236,2099.0
582.771,1271.8
583.306,1256.0
583.841,1254.4
584.376,1267.85
584.911,1276.05
585.445,1371.0
585.98,1709.3
586.514,1500.95
587.049,1310.2
587.583,1292.4
588.117,1287.8
588.651,1284.25
589.186,1285.4
589.72,1286.9
590.253,1290.4
590.787,1301.35
591.321,1301.0
591.854,1298.5
592.388,1302.15
592.921,1303.45
593.455,1300.5
593.988,1303.25
594.521,1312.0
595.054,1313.55
595.587,1324.6
596.12,1324.5
596.653,1321.95
597.186,1329.0
597.718,1330.3
598.251,1333.15
598.783,1340.25
599.316,1345.95
599.848,1341.95
600.38,1343.55
600.912,1344.55
601.444,1344.85
601.976,1344.1
602.508,1341.05
603.04,1354.3
603.572,1349.95
604.103,1361.5
604.635,1354.35
605.167,1351.7
605.698,1348.5
606.229,1347.95
606.761,1350.55
607.292,1359.25
607.823,1357.3
608.354,1357.5
608.885,1362.75
609.416,1365.3
609.947,1371.4
610.477,1375.25
611.008,1371.45
611.539,1376.55
612.069,1377.8
612.6,1384.25
613.13,1401.5
613.66,1406.55
614.19,1407.25
614.721,1408.75
615.251,1409.5
615.781,1406.8
616.311,1416.15
616.841,1422.1
617.37,1427.4
617.9,1434.05
618.43,1440.95
618.96,1437.55
619.489,1435.05
620.019,1441.35
620.548,1434.15
621.077,1453.15
621.607,1450.5
622.136,1455.3
622.665,1470.25
623.194,1466.15
623.723,1479.7
624.252,1486.4
624.781,1495.6
625.31,1505.2
625.839,1500.1
626.368,1505.05
626.896,1508.1
627.425,1519.7
627.953,1526.45
628.482,1539.4
629.01,1567.75
629.539,1568.15
630.067,1565.2
630.596,1577.6
631.124,1638.6
631.652,1740.75
632.18,1724.1
632.708,1663.9
633.236,1658.1
633.764,1643.3
634.292,1630.4
634.82,1626.3
635.348,1643.8
635.876,1693.4
636.403,1815.65
636.931,1777.85
637.459,1685.65
637.986,1668.75
638.514,1667.5
639.041,1665.45
639.568,1673.65
640.096,1680.7
640.623,1684.8
641.15,1696.85
641.678,1695.65
642.205,1712.8
642.732,1708.9
643.259,1712.3
643.786,1707.15
644.313,1705.55
644.84,1709.8
645.367,1711.5
645.894,1721.5
646.421,1723.95
646.948,1733.45
647.474,1737.7
648.001,1735.85
648.528,1729.6
649.054,1733.15
649.581,1735.95
650.108,1737.3
650.634,1745.25
651.161,1744.9
651.687,1753.2
652.214,1749.65
652.74,1749.75
653.266,1758.2
653.793,1769.75
654.319,1766.35
654.845,1759.2
655.371,1757.1
655.897,1757.9
656.424,1766.9
656.95,1773.1
657.476,1767.3
658.002,1764.0
658.528,1776.35
659.054,1779.1
659.58,1775.95
660.106,1773.15
660.631,1772.7
661.157,1763.1
661.683,1751.3
662.209,1755.9
662.735,1762.7
663.129,1752.25

File: VLFR_06-PET_nobio_Raman_064754f6.csv
nm,Intensity
526.508,828.9
527.055,830.1
527.602,828.4
528.149,828.6
528.695,830.4
529.241,828.9
529.787,829.3
530.334,830.0
530.879,831.1
531.425,830.5
531.971,833.5
532.516,830.8
533.062,831.2
533.607,841.7
534.152,2292.5
534.697,1881.4
535.242,1480.2
535.786,1219.2
536.331,1070.2
536.876,1007.2
537.42,980.8
537.964,967.7
538.508,984.0
539.052,968.8
539.596,979.5
540.14,995.8
540.683,946.0
541.227,931.8
541.77,923.3
542.313,921.7
542.856,923.7
543.399,922.9
543.942,934.6
544.485,924.1
545.027,927.2
545.57,933.8
546.112,930.1
546.654,934.1
547.196,936.3
547.738,937.1
548.28,938.5
548.822,937.2
549.363,938.5
549.905,941.3
550.446,954.3
550.988,970.3
551.529,944.1
552.07,954.4
552.611,963.4
553.152,981.6
553.692,963.1
554.233,954.9
554.773,957.0
555.314,978.8
555.854,1031.8
556.394,1052.4
556.934,1052.5
557.474,1219.9
558.014,1084.8
558.553,1077.2
559.093,1022.6
559.632,988.0
560.172,987.5
560.711,986.1
561.25,998.2
561.789,1003.3
562.328,1022.1
562.867,1030.1
563.406,1034.3
563.944,1020.7
564.483,1032.4
565.021,1081.0
565.559,1164.2
566.098,1167.7
566.636,1051.3
567.174,1030.3
567.711,1128.5
568.249,1043.6
568.787,1035.0
569.324,1044.1
569.862,1076.5
570.399,1131.8
570.936,1276.9
571.474,1436.4
572.011,1234.4
572.548,1108.2
573.084,1070.6
573.621,1074.4
574.158,1111.1
574.694,1090.5
575.231,1116.4
575.767,1097.8
576.303,1124.9
576.84,1142.2
577.376,1108.9
577.912,1086.3
578.447,1091.8
578.983,1094.5
579.519,1101.4
580.054,1103.6
580.59,1106.7
581.125,1138.9
581.661,1231.6
582.196,2634.2
582.731,1188.6
583.266,1133.8
583.801,1125.6
584.336,1142.5
584.87,1152.6
585.405,1276.5
585.94,1915.4
586.474,1604.5
587.008,1206.7
587.543,1156.1
588.077,1145.7
588.611,1141.6
589.145,1153.1
589.679,1141.9
590.213,1138.1
590.747,1151.2
591.28,1147.7
591.814,1145.5
592.347,1144.2
592.881,1142.5
593.414,1158.2
593.947,1151.1
594.48,1160.5
595.014,1153.8
595.547,1165.0
596.079,1158.8
596.612,1161.3
597.145,1168.0
597.678,1160.2
598.21,1169.2
598.743,1166.2
599.275,1171.0
599.807,1176.4
600.34,1178.4
600.872,1176.9
601.404,1168.5
601.936,1172.0
602.468,1181.4
603.0,1184.8
603.532,1180.0
604.063,1182.5
604.595,1182.1
605.126,1177.0
605.658,1175.0
606.189,1169.7
606.721,1174.3
607.252,1176.7
607.783,1169.6
608.314,1176.5
608.845,1186.9
609.376,1185.5
609.907,1186.0
610.438,1182.7
610.968,1186.8
611.499,1190.6
612.03,1187.9
612.56,1195.7
613.091,1207.1
613.621,1206.4
614.151,1204.4
614.681,1208.3
615.212,1214.7
615.742,1211.7
616.272,1206.1
616.802,1216.8
617.332,1216.6
617.861,1239.2
618.391,1232.7
618.921,1234.3
619.45,1230.0
619.98,1226.4
620.509,1218.3
621.039,1225.2
621.568,1224.4
622.097,1228.8
622.627,1241.2
623.156,1240.2
623.685,1246.5
624.214,1248.3
624.743,1259.7
625.272,1257.9
625.801,1271.4
626.33,1263.9
626.858,1262.0
627.387,1267.2
627.916,1281.2
628.444,1299.9
628.973,1324.1
629.501,1325.2
630.029,1320.9
630.558,1333.5
631.086,1402.5
631.614,1558.7
632.142,1538.8
632.67,1450.6
633.198,1441.3
633.726,1404.7
634.254,1373.5
634.782,1362.0
635.31,1372.5
635.838,1448.7
636.365,1587.6
636.893,1605.0
637.421,1427.8
637.948,1390.7
638.476,1390.0
639.003,1392.4
639.531,1392.5
640.058,1397.6
640.585,1406.2
641.113,1404.7
641.64,1408.3
642.167,1430.5
642.694,1424.9
643.221,1419.0
643.748,1407.8
644.275,1418.0
644.802,1418.9
645.329,1425.1
645.856,1434.6
646.382,1430.2
646.909,1437.6
647.436,1449.4
647.962,1447.0
648.489,1441.2
649.016,1442.3
649.542,1455.1
650.069,1449.3
650.595,1445.5
651.121,1449.5
651.648,1459.5
652.174,1459.5
652.7,1458.1
653.227,1455.9
653.753,1464.0
654.279,1470.6
654.805,1462.3
655.331,1465.7
655.857,1470.2
656.383,1466.7
656.909,1474.0
657.435,1464.9
657.961,1468.3
658.487,1475.3
659.013,1468.4
659.538,1472.5
660.064,1489.6
660.59,1472.3
661.116,1451.7
661.641,1469.4
662.167,1451.8
662.692,1465.2
663.087,1462.4

File: VLFR_06-PET_nobio_Raman_7527033f.csv
nm,Intensity
526.5,829.6
527.047,829.3
527.594,829.5
528.14,828.9
528.687,830.8
529.233,830.2
529.779,830.5
530.325,828.5
530.871,829.2
531.417,828.0
531.962,834.8
532.508,829.7
533.053,829.2
533.599,836.7
534.144,2071.0
534.689,1722.7
535.234,1382.0
535.778,1171.1
536.323,1041.0
536.867,992.9
537.412,970.4
537.956,961.5
538.5,971.5
539.044,966.6
539.588,979.4
540.132,986.0
540.675,947.6
541.219,934.8
541.762,930.5
542.305,932.5
542.848,930.2
543.391,931.8
543.934,946.1
544.477,934.9
545.02,940.8
545.562,940.6
546.105,939.7
546.647,943.3
547.189,944.4
547.731,948.3
548.273,954.9
548.815,958.6
549.356,955.8
549.898,954.7
550.439,971.8
550.981,990.5
551.522,964.9
552.063,973.6
552.604,982.1
553.145,999.1
553.686,980.2
554.226,980.4
554.767,986.9
555.307,995.0
555.848,1049.0
556.388,1060.4
556.928,1071.6
557.468,1208.0
558.008,1104.5
558.547,1093.0
559.087,1043.9
559.626,1020.5
560.166,1018.0
560.705,1021.4
561.244,1026.3
561.783,1033.2
562.322,1048.6
562.861,1061.2
563.4,1062.7
563.939,1054.2
564.477,1068.2
565.015,1112.2
565.554,1189.3
566.092,1190.3
566.63,1085.8
567.168,1071.0
567.706,1163.8
568.244,1087.1
568.781,1087.6
569.319,1095.6
569.857,1117.4
570.394,1174.2
570.931,1299.8
571.468,1415.6
572.005,1261.2
572.542,1152.4
573.079,1127.9
573.616,1129.1
574.153,1160.7
574.689,1142.3
575.226,1181.5
575.762,1157.4
576.298,1182.5
576.834,1200.0
577.371,1169.1
577.907,1150.8
578.442,1156.2
578.978,1165.3
579.514,1166.3
580.049,1167.1
580.585,1177.5
581.12,1196.5
581.656,1280.7
582.191,2497.7
582.726,1256.7
583.261,1208.1
583.796,1207.5
584.331,1213.4
584.865,1229.9
585.4,1330.5
585.935,1889.0
586.469,1633.6
587.004,1276.7
587.538,1239.5
588.072,1229.4
588.606,1223.3
589.14,1233.1
589.674,1223.9
590.208,1227.4
590.742,1230.6
591.275,1237.0
591.809,1238.3
592.342,1236.9
592.876,1239.0
593.409,1235.5
593.942,1239.2
594.476,1245.4
595.009,1246.1
595.542,1251.8
596.075,1258.1
596.607,1256.9
597.14,1253.1
597.673,1254.7
598.205,1266.6
598.738,1268.4
599.27,1278.4
599.803,1270.9
600.335,1269.8
600.867,1275.1
601.399,1274.2
601.931,1282.3
602.463,1268.7
602.995,1290.1
603.527,1280.3
604.058,1277.9
604.59,1277.6
605.122,1273.2
605.653,1272.3
606.184,1276.4
606.716,1268.8
607.247,1277.0
607.778,1277.0
608.309,1281.4
608.84,1283.7
609.371,1282.6
609.902,1270.5
610.433,1281.7
610.964,1288.9
611.494,1287.4
612.025,1293.5
612.556,1297.0
613.086,1306.4
613.616,1313.7
614.147,1308.3
614.677,1311.3
615.207,1307.4
615.737,1310.5
616.267,1323.1
616.797,1320.1
617.327,1325.6
617.857,1337.2
618.387,1337.3
618.917,1332.2
619.446,1331.4
619.976,1333.5
620.505,1331.8
621.035,1328.1
621.564,1340.3
622.093,1348.7
622.623,1349.2
623.152,1350.6
623.681,1365.1
624.21,1365.2
624.739,1379.4
625.268,1378.8
625.797,1374.1
626.326,1378.9
626.855,1383.5
627.383,1389.8
627.912,1396.3
628.441,1417.5
628.969,1441.0
629.498,1448.5
630.026,1440.6
630.554,1445.8
631.083,1513.6
631.611,1665.4
632.139,1647.9
632.667,1571.7
633.195,1541.1
633.724,1527.9
634.252,1510.9
634.779,1497.8
635.307,1499.9
635.835,1572.8
636.363,1702.6
636.891,1718.6
637.418,1558.6
637.946,1529.6
638.474,1528.6
639.001,1529.2
639.529,1527.3
640.056,1539.0
640.583,1544.5
641.111,1536.0
641.638,1555.0
642.165,1569.3
642.692,1577.4
643.22,1552.4
643.747,1552.2
644.274,1560.5
644.801,1558.0
645.328,1556.2
645.854,1577.3
646.381,1572.8
646.908,1579.7
647.435,1591.7
647.962,1603.9
648.488,1595.6
649.015,1582.5
649.542,1581.3
650.068,1600.4
650.595,1593.8
651.121,1597.4
651.648,1597.7
652.174,1610.0
652.7,1606.1
653.227,1618.5
653.753,1616.4
654.279,1616.7
654.805,1617.7
655.331,1618.2
655.858,1625.9
656.384,1613.1
656.91,1630.6
657.436,1620.1
657.962,1619.0
658.488,1627.3
659.013,1619.3
659.539,1629.4
660.065,1635.0
660.591,1626.8
661.117,1617.6
661.642,1620.9
662.168,1616.1
662.694,1610.3
663.088,1617.9

File: VLFR_06-PET_nobio_Raman_10638762.csv
nm,Intensity
526.508,830.0
527.055,830.2
527.602,829.3
528.149,830.7
528.695,829.6
529.241,829.3
529.787,829.4
530.334,829.5
530.879,830.7
531.425,830.3
531.971,835.2
532.516,830.7
533.062,829.1
533.607,838.6
534.152,1844.6
534.697,1574.4
535.242,1305.2
535.786,1143.5
536.331,1044.9
536.876,994.9
537.42,987.6
537.964,978.8
538.508,986.9
539.052,980.9
539.596,1004.6
540.14,1004.2
540.683,975.2
541.227,966.3
541.77,960.9
542.313,965.4
542.856,970.0
543.399,967.0
543.942,977.6
544.485,975.1
545.027,981.8
545.57,985.3
546.112,989.0
546.654,984.9
547.196,990.5
547.738,993.2
548.28,1000.8
548.822,1003.1
549.363,1001.9
549.905,1000.4
550.446,1022.9
550.988,1027.3
551.529,1021.6
552.07,1026.0
552.611,1029.1
553.152,1051.1
553.692,1030.3
554.233,1032.9
554.773,1037.6
555.314,1047.7
555.854,1088.8
556.394,1094.3
556.934,1111.1
557.474,1222.5
558.014,1134.5
558.553,1122.6
559.093,1098.7
559.632,1076.9
560.172,1078.7
560.711,1084.7
561.25,1089.7
561.789,1090.3
562.328,1105.8
562.867,1121.3
563.406,1121.7
563.944,1117.0
564.483,1124.4
565.021,1171.9
565.559,1229.4
566.098,1225.0
566.636,1161.5
567.174,1141.9
567.711,1216.8
568.249,1151.3
568.787,1158.1
569.324,1170.2
569.862,1189.4
570.399,1236.4
570.936,1334.9
571.474,1423.6
572.011,1313.9
572.548,1223.0
573.084,1202.6
573.621,1210.1
574.158,1243.8
574.694,1227.8
575.231,1259.5
575.767,1235.6
576.303,1253.8
576.84,1274.1
577.376,1252.1
577.912,1249.6
578.447,1255.0
578.983,1256.6
579.519,1271.1
580.054,1263.0
580.59,1270.0
581.125,1296.2
581.661,1370.1
582.196,2368.9
582.731,1345.4
583.266,1317.7
583.801,1304.4
584.336,1316.6
584.87,1336.9
585.405,1411.9
585.94,1870.5
586.474,1667.1
587.008,1390.9
587.543,1350.4
588.077,1344.2
588.611,1340.8
589.145,1336.8
589.679,1342.0
590.213,1337.5
590.747,1345.5
591.28,1353.7
591.814,1345.5
592.347,1348.9
592.881,1363.3
593.414,1359.6
593.947,1352.2
594.48,1363.3
595.014,1376.5
595.547,1383.1
596.079,1382.9
596.612,1383.1
597.145,1390.1
597.678,1390.0
598.21,1401.0
598.743,1391.2
599.275,1404.2
599.807,1412.7
600.34,1399.0
600.872,1398.0
601.404,1392.5
601.936,1403.2
602.468,1408.3
603.0,1412.4
603.532,1417.2
604.063,1415.6
604.595,1410.3
605.126,1410.4
605.658,1403.5
606.189,1401.4
606.721,1408.0
607.252,1405.8
607.783,1409.1
608.314,1412.7
608.845,1418.7
609.376,1420.7
609.907,1413.9
610.438,1429.4
610.968,1424.7
611.499,1420.7
612.03,1423.6
612.56,1441.6
613.091,1454.5
613.621,1443.8
614.151,1456.9
614.681,1455.8
615.212,1452.0
615.742,1460.7
616.272,1456.3
616.802,1460.4
617.332,1461.1
617.861,1480.7
618.391,1487.8
618.921,1492.0
619.45,1485.2
619.98,1490.2
620.509,1485.8
621.039,1482.2
621.568,1485.0
622.097,1489.4
622.627,1501.6
623.156,1501.5
623.685,1525.0
624.214,1516.5
624.743,1536.2
625.272,1542.3
625.801,1535.9
626.33,1541.3
626.858,1549.0
627.387,1557.0
627.916,1557.3
628.444,1584.1
628.973,1621.3
629.501,1602.4
630.029,1609.4
630.558,1614.2
631.086,1680.3
631.614,1809.0
632.142,1787.3
632.67,1730.3
633.198,1713.3
633.726,1699.7
634.254,1685.0
634.782,1674.0
635.31,1703.4
635.838,1753.7
636.365,1869.0
636.893,1886.3
637.421,1758.8
637.948,1728.5
638.476,1735.0
639.003,1727.3
639.531,1738.6
640.058,1748.9
640.585,1753.3
641.113,1760.5
641.64,1765.0
642.167,1772.6
642.694,1783.5
643.221,1774.7
643.748,1769.3
644.275,1765.8
644.802,1776.5
645.329,1774.4
645.856,1782.7
646.382,1784.1
646.909,1808.3
647.436,1813.5
647.962,1818.7
648.489,1805.8
649.016,1813.7
649.542,1817.6
650.069,1812.2
650.595,1818.7
651.121,1819.1
651.648,1822.2
652.174,1837.5
652.7,1830.5
653.227,1836.5
653.753,1842.9
654.279,1842.0
654.805,1855.6
655.331,1853.4
655.857,1847.0
656.383,1847.7
656.909,1858.4
657.435,1854.6
657.961,1854.7
658.487,1878.4
659.013,1870.5
659.538,1864.6
660.064,1855.3
660.59,1852.4
661.116,1854.4
661.641,1844.3
662.167,1850.3
662.692,1851.3
663.087,1846.4