Folder: MPX_specDB/spectra (part 126)

File: VLFR_08-PLA_bio_Raman_2df54897.csv
nm,Intensity
526.508,829.2
527.055,828.2
527.602,829.0
528.149,828.9
528.695,829.2
529.241,829.7
529.787,828.9
530.334,828.7
530.879,827.8
531.425,828.5
531.971,832.4
532.516,831.2
533.062,829.6
533.607,829.1
534.152,913.6
534.697,918.7
535.242,912.5
535.786,916.5
536.331,913.1
536.876,913.1
537.42,908.5
537.964,911.9
538.508,910.5
539.052,914.7
539.596,915.7
540.14,914.4
540.683,913.9
541.227,917.5
541.77,917.2
542.313,920.9
542.856,921.2
543.399,923.7
543.942,924.5
544.485,929.8
545.027,927.8
545.57,929.8
546.112,934.7
546.654,933.0
547.196,932.4
547.738,928.7
548.28,933.6
548.822,934.8
549.363,940.9
549.905,942.8
550.446,942.6
550.988,943.9
551.529,943.1
552.07,943.7
552.611,943.1
553.152,945.5
553.692,943.9
554.233,944.8
554.773,948.5
555.314,943.2
555.854,942.2
556.394,950.6
556.934,950.9
557.474,947.6
558.014,950.2
558.553,951.6
559.093,950.5
559.632,955.4
560.172,961.3
560.711,953.2
561.25,955.3
561.789,956.2
562.328,970.3
562.867,984.5
563.406,963.0
563.944,968.7
564.483,968.0
565.021,971.0
565.559,971.7
566.098,975.8
566.636,971.0
567.174,972.3
567.711,974.7
568.249,974.2
568.787,982.1
569.324,981.5
569.862,987.1
570.399,988.6
570.936,989.1
571.474,986.9
572.011,989.9
572.548,997.9
573.084,999.1
573.621,1003.0
574.158,997.4
574.694,1003.0
575.231,1002.7
575.767,1000.6
576.303,1002.7
576.84,1001.3
577.376,1003.2
577.912,999.5
578.447,1005.7
578.983,1006.7
579.519,1004.8
580.054,1005.4
580.59,1006.8
581.125,1013.6
581.661,1016.7
582.196,1018.3
582.731,1014.8
583.266,1003.4
583.801,1010.4
584.336,1007.3
584.87,1007.8
585.405,1009.5
585.94,1010.0
586.474,1007.7
587.008,1012.9
587.543,1015.1
588.077,1008.4
588.611,1013.5
589.145,1007.1
589.679,1010.7
590.213,1012.8
590.747,1019.7
591.28,1015.0
591.814,1016.6
592.347,1014.4
592.881,1016.0
593.414,1018.6
593.947,1016.2
594.48,1017.8
595.014,1019.7
595.547,1018.8
596.079,1022.7
596.612,1019.2
597.145,1026.2
597.678,1022.6
598.21,1025.1
598.743,1021.0
599.275,1023.8
599.807,1023.6
600.34,1025.0
600.872,1024.3
601.404,1021.2
601.936,1017.7
602.468,1022.4
603.0,1025.5
603.532,1023.5
604.063,1024.0
604.595,1020.1
605.126,1021.2
605.658,1019.6
606.189,1019.6
606.721,1023.0
607.252,1019.2
607.783,1027.2
608.314,1028.1
608.845,1028.8
609.376,1024.6
609.907,1023.2
610.438,1031.1
610.968,1026.9
611.499,1026.6
612.03,1028.4
612.56,1032.5
613.091,1036.7
613.621,1031.1
614.151,1035.8
614.681,1037.1
615.212,1041.4
615.742,1037.2
616.272,1038.1
616.802,1034.1
617.332,1041.5
617.861,1041.2
618.391,1037.1
618.921,1036.9
619.45,1037.2
619.98,1035.2
620.509,1033.6
621.039,1038.0
621.568,1040.3
622.097,1044.0
622.627,1039.1
623.156,1042.8
623.685,1041.3
624.214,1040.2
624.743,1042.5
625.272,1036.6
625.801,1040.2
626.33,1032.0
626.858,1038.2
627.387,1040.1
627.916,1039.0
628.444,1037.0
628.973,1038.7
629.501,1043.5
630.029,1047.5
630.558,1047.7
631.086,1048.3
631.614,1040.9
632.142,1046.0
632.67,1044.2
633.198,1043.3
633.726,1040.3
634.254,1034.5
634.782,1036.2
635.31,1036.8
635.838,1036.0
636.365,1035.1
636.893,1037.3
637.421,1036.1
637.948,1034.9
638.476,1033.9
639.003,1032.2
639.531,1034.6
640.058,1037.2
640.585,1033.6
641.113,1035.5
641.64,1029.4
642.167,1036.6
642.694,1030.9
643.221,1032.1
643.748,1028.5
644.275,1024.5
644.802,1028.3
645.329,1022.6
645.856,1032.9
646.382,1024.4
646.909,1022.6
647.436,1025.1
647.962,1023.7
648.489,1023.6
649.016,1015.9
649.542,1016.2
650.069,1016.9
650.595,1015.8
651.121,1018.2
651.648,1011.2
652.174,1016.7
652.7,1015.2
653.227,1012.6
653.753,1010.6
654.279,1019.9
654.805,1014.1
655.331,1013.7
655.857,1012.3
656.383,1018.1
656.909,1012.2
657.435,1012.8
657.961,1014.3
658.487,1008.4
659.013,1014.3
659.538,1013.7
660.064,1012.7
660.59,1007.6
661.116,1011.5
661.641,1003.0
662.167,1008.6
662.692,1006.3
663.087,1004.9

File: VLFR_08-PLA_bio_Raman_2e1839c6.csv
nm,Intensity
528.626,1864.8
529.132,1864.5
529.637,1865.7
530.143,1863.3
530.648,1863.8
531.153,1867.7
531.658,1911.9
532.164,4559.2
532.669,1868.1
533.174,1867.6
533.679,2259.9
534.184,3392.4
534.689,3073.7
535.194,2852.8
535.699,2668.8
536.203,2590.0
536.708,2585.0
537.213,2493.1
537.717,2505.0
538.222,2404.6
538.726,2339.7
539.231,2329.1
539.735,2229.2
540.239,2300.2
540.744,2424.3
541.248,2411.0
541.752,2311.8
542.256,2244.3
542.76,2300.5
543.264,2474.9
543.768,2651.8
544.272,2428.9
544.776,2241.3
545.28,2204.3
545.784,2177.0
546.287,2175.7
546.791,2200.1
547.294,2211.5
547.798,2193.7
548.301,2206.1
548.805,2213.4
549.308,2221.1
549.811,2214.9
550.315,2225.3
550.818,2243.3
551.321,2280.7
551.824,2307.8
552.327,2316.7
552.83,2304.5
553.333,2267.9
553.835,2350.3
554.338,2318.6
554.841,2262.4
555.343,2191.9
555.846,2182.3
556.349,2188.8
556.851,2214.8
557.353,2402.9
557.856,3440.2
558.358,3074.7
558.86,2406.5
559.362,2352.9
559.864,2303.6
560.366,2267.7
560.868,2249.9
561.37,2215.2
561.872,2224.0
562.374,2249.0
562.876,2388.0
563.377,2708.2
563.879,2484.3
564.38,2356.0
564.882,2529.0
565.383,2569.2
565.885,2785.3
566.386,2718.0
566.887,2306.6
567.388,2279.0
567.889,2390.7
568.391,2320.6
568.892,2341.5
569.392,2299.1
569.893,2275.0
570.394,2297.8
570.895,2331.0
571.395,2542.9
571.896,2570.3
572.397,2463.3
572.897,2454.5
573.397,2497.2
573.898,2473.0
574.398,2543.1
574.898,2373.8
575.398,2299.1
575.898,2316.1
576.398,2781.1
576.898,3198.6
577.398,2489.0
577.898,2314.2
578.398,2286.8
578.897,2270.8
579.397,2262.9
579.896,2265.7
580.396,2257.0
580.895,2261.7
581.395,2269.2
581.894,2255.3
582.393,2271.6
582.892,2283.3
583.391,2273.4
583.89,2268.3
584.389,2295.1
584.888,2286.2
585.387,2274.1
585.886,2290.9
586.384,2399.1
586.883,2796.3
587.381,3070.8
587.88,2744.3
588.378,2341.6
588.876,2285.4
589.375,2275.4
589.873,2266.6
590.371,2263.3
590.869,2262.1
591.367,2260.7
591.865,2274.6
592.363,2275.4
592.86,2266.4
593.358,2247.0
593.856,2257.2
594.353,2253.5
594.851,2259.5
595.348,2261.2
595.845,2260.7
596.342,2235.5
596.84,2259.2
597.337,2254.2
597.834,2261.9
598.331,2261.6
598.828,2273.3
599.324,2278.8
599.821,2264.3
600.318,2268.7
600.814,2277.3
601.311,2253.7
601.807,2275.4
602.304,2260.7
602.8,2263.0
603.296,2266.1
603.792,2261.9
604.288,2266.2
604.784,2263.8
605.28,2267.7
605.776,2255.6
606.272,2252.1
606.767,2273.8
607.263,2267.9
607.759,2280.9
608.254,2275.6
608.749,2277.9
609.245,2266.7
609.74,2272.8
610.235,2268.9
610.73,2273.1
611.225,2273.2
611.72,2265.3
612.215,2254.1
612.71,2280.0
613.204,2276.3
613.699,2250.8
614.194,2264.5
614.688,2264.2
615.182,2268.2
615.677,2282.6
616.171,2284.3
616.665,2273.2
617.159,2284.8
617.653,2285.8
618.147,2259.4
618.641,2260.0
619.135,2252.6
619.628,2265.1
620.122,2280.6
620.615,2272.6
621.109,2269.4
621.602,2275.3
622.095,2294.7
622.589,2382.0
623.082,2432.8
623.575,2370.7
624.068,2327.0
624.561,2292.9
625.053,2270.2
625.546,2273.4
626.039,2275.0
626.531,2267.0
627.024,2287.0
627.516,2322.3
628.008,2560.2
628.501,3135.6
628.993,2931.7
629.485,2968.6
629.977,2973.5
630.469,3674.0
630.96,7017.2
631.452,5394.7
631.944,3764.3
632.435,3406.2
632.927,3996.1
633.418,4259.6
633.91,3508.5
634.401,2714.3
634.892,2410.8
635.383,2306.3
635.874,2280.4
636.365,2234.5
636.856,2239.4
637.346,2220.7
637.837,2197.2
638.327,2196.2
638.818,2199.4
639.308,2205.0
639.799,2192.3
640.289,2194.5
640.779,2192.1
641.269,2199.6
641.759,2184.4
642.249,2206.9
642.738,2182.0
643.228,2171.5
643.718,2179.8
644.207,2160.1
644.697,2143.8
645.186,2149.5
645.675,2143.0
646.164,2140.3
646.653,2128.1
647.142,2127.6
647.631,2131.7
648.12,2119.9
648.609,2114.5
649.098,2112.5
649.586,2109.7
650.075,2096.3
650.563,2107.7
651.051,2107.1
651.539,2097.1
652.027,2104.5
652.515,2100.7
653.003,2092.9
653.491,2087.6
653.979,2080.5
654.467,2077.1
654.954,2075.7
655.442,2079.4
655.929,2081.6
656.416,2073.4
656.904,2082.6
657.391,2071.6
657.878,2074.4
658.365,2060.5
658.851,2062.4
659.338,2044.5
659.825,2042.3
660.311,2043.9
660.798,2052.3
661.041,2047.5

File: VLFR_08-PLA_bio_Raman_3a4b153a.csv
nm,Intensity
526.547,833.1
527.095,832.3
527.642,832.8
528.189,833.1
528.736,832.25
529.283,832.2
529.829,832.4
530.376,832.7
530.922,832.05
531.468,833.65
532.014,834.45
532.56,832.35
533.106,831.35
533.651,832.9
534.196,886.5
534.742,875.7
535.287,870.85
535.832,867.9
536.376,865.85
536.921,865.5
537.465,862.3
538.01,862.1
538.554,861.8
539.098,859.2
539.642,858.4
540.186,857.8
540.729,864.85
541.273,862.8
541.816,861.2
542.36,861.2
542.903,860.45
543.446,866.15
543.988,871.75
544.531,861.8
545.074,860.25
545.616,859.55
546.158,859.8
546.701,860.25
547.243,861.65
547.785,860.9
548.326,861.95
548.868,862.35
549.41,864.0
549.951,864.45
550.492,864.05
551.034,864.3
551.575,864.2
552.116,865.35
552.656,867.4
553.197,867.3
553.738,866.05
554.278,866.6
554.819,864.15
555.359,864.05
555.899,865.35
556.439,864.55
556.979,866.7
557.519,869.5
558.058,899.25
558.598,872.25
559.137,868.4
559.677,867.6
560.216,864.6
560.755,866.2
561.294,866.9
561.833,867.05
562.371,881.2
562.91,869.95
563.449,876.75
563.987,872.45
564.525,868.2
565.064,876.15
565.602,873.2
566.14,883.3
566.678,875.6
567.216,869.0
567.753,870.3
568.291,870.95
568.828,871.65
569.366,873.15
569.903,870.7
570.44,873.3
570.977,872.1
571.514,877.0
572.051,875.0
572.588,874.55
573.125,875.0
573.661,876.95
574.198,875.8
574.734,879.75
575.271,872.7
575.807,874.85
576.343,878.15
576.879,890.4
577.415,878.8
577.951,875.8
578.486,874.95
579.022,874.7
579.557,875.95
580.093,872.05
580.628,873.7
581.164,875.85
581.699,872.6
582.234,875.05
582.769,876.6
583.304,874.45
583.838,876.35
584.373,874.45
584.908,875.9
585.442,875.1
585.977,875.5
586.511,877.7
587.045,885.65
587.58,892.95
588.114,879.0
588.648,875.65
589.182,875.2
589.715,876.3
590.249,873.8
590.783,872.75
591.316,875.6
591.85,873.85
592.383,874.65
592.917,875.5
593.45,874.05
593.983,873.4
594.516,873.2
595.049,874.2
595.582,874.0
596.115,874.25
596.648,873.1
597.18,874.3
597.713,874.5
598.245,874.95
598.778,876.35
599.31,872.2
599.842,875.25
600.375,873.15
600.907,872.7
601.439,872.85
601.971,873.75
602.503,873.85
603.034,872.05
603.566,874.9
604.098,873.75
604.629,872.05
605.161,872.4
605.692,871.4
606.224,871.45
606.755,871.15
607.286,871.1
607.817,870.55
608.348,873.45
608.879,872.95
609.41,870.95
609.941,872.3
610.472,870.3
611.002,872.05
611.533,870.3
612.063,871.8
612.594,871.75
613.124,871.1
613.655,871.3
614.185,872.45
614.715,871.4
615.245,871.15
615.775,872.0
616.305,871.4
616.835,871.6
617.365,871.6
617.895,871.75
618.425,872.25
618.954,871.65
619.484,871.05
620.013,868.8
620.543,871.1
621.072,870.75
621.602,870.55
622.131,870.8
622.66,871.75
623.189,874.35
623.718,872.3
624.247,871.1
624.776,869.4
625.305,870.6
625.834,869.2
626.363,870.65
626.891,870.7
627.42,869.05
627.949,872.25
628.477,885.75
629.006,882.65
629.534,882.2
630.062,884.35
630.591,900.1
631.119,981.2
631.647,924.45
632.175,894.15
632.703,888.75
633.231,909.6
633.759,899.45
634.287,879.95
634.815,871.4
635.343,870.65
635.871,868.55
636.398,865.9
636.926,867.0
637.454,865.25
637.981,865.75
638.509,865.1
639.036,864.25
639.564,864.85
640.091,865.9
640.618,866.1
641.146,866.8
641.673,864.15
642.2,864.2
642.727,863.25
643.254,864.7
643.781,862.35
644.308,862.6
644.835,862.2
645.362,864.1
645.889,862.4
646.416,862.3
646.942,861.05
647.469,862.05
647.996,862.0
648.522,860.95
649.049,863.25
649.576,861.6
650.102,862.55
650.629,860.75
651.155,860.4
651.682,860.85
652.208,860.3
652.734,860.15
653.261,860.45
653.787,861.6
654.313,857.95
654.839,858.25
655.365,858.45
655.892,859.75
656.418,858.95
656.944,860.25
657.47,860.3
657.996,857.9
658.522,858.85
659.048,856.9
659.574,857.65
660.099,858.45
660.625,858.2
661.151,856.65
661.677,857.7
662.203,855.85
662.728,856.05
663.123,858.2

File: VLFR_08-PLA_bio_Raman_3c1c2dac.csv
nm,Intensity
528.65,1826.25
529.155,1826.65
529.66,1828.45
530.165,1828.05
530.67,1827.1
531.175,1830.4
531.68,1873.85
532.185,4366.2
532.69,1828.95
533.194,1829.1
533.699,1969.3
534.204,2427.8
534.708,2405.15
535.213,2398.9
535.717,2374.25
536.222,2378.15
536.726,2410.75
537.231,2406.55
537.735,2409.05
538.239,2410.8
538.743,2396.25
539.247,2430.8
539.751,2414.8
540.255,2454.4
540.759,2482.35
541.263,2481.35
541.767,2472.3
542.271,2486.05
542.775,2506.6
543.279,2557.95
543.782,2583.6
544.286,2572.0
544.789,2523.75
545.293,2551.7
545.796,2566.5
546.3,2592.5
546.803,2601.6
547.306,2614.0
547.81,2613.8
548.313,2657.3
548.816,2659.25
549.319,2659.3
549.822,2670.65
550.325,2689.75
550.828,2714.25
551.331,2715.6
551.834,2746.5
552.337,2736.15
552.839,2762.2
553.342,2753.2
553.844,2752.85
554.347,2795.1
554.849,2781.4
555.352,2763.2
555.854,2780.0
556.357,2784.5
556.859,2788.9
557.361,2822.05
557.863,2973.45
558.365,2935.55
558.867,2846.5
559.369,2835.0
559.871,2824.6
560.373,2833.75
560.875,2861.05
561.377,2872.5
561.878,2873.9
562.38,2857.0
562.881,2920.7
563.383,2949.0
563.884,2933.0
564.386,2908.85
564.887,2974.35
565.388,2997.65
565.89,3025.55
566.391,3046.5
566.892,2961.45
567.393,2989.05
567.894,2995.9
568.395,3010.0
568.896,3018.7
569.396,2992.6
569.897,3031.4
570.398,3025.5
570.898,3036.85
571.399,3099.1
571.9,3113.15
572.4,3094.0
572.9,3076.8
573.401,3122.45
573.901,3074.15
574.401,3092.75
574.901,3076.7
575.401,3089.55
575.901,3118.7
576.401,3192.55
576.901,3236.6
577.401,3137.15
577.901,3085.9
578.4,3063.45
578.9,3090.15
579.399,3082.8
579.899,3127.95
580.398,3115.2
580.898,3087.8
581.397,3093.5
581.896,3087.45
582.395,3087.35
582.895,3064.15
583.394,3110.5
583.893,3055.2
584.391,3089.15
584.89,3091.05
585.389,3091.2
585.888,3069.4
586.386,3081.85
586.885,3161.6
587.384,3186.75
587.882,3110.9
588.38,3080.3
588.879,3067.35
589.377,3035.8
589.875,3046.55
590.373,3067.35
590.871,3050.95
591.369,3046.5
591.867,3030.6
592.365,3024.75
592.863,3007.15
593.361,3019.8
593.858,2998.75
594.356,3044.1
594.853,3051.4
595.351,3016.8
595.848,3035.1
596.345,3018.3
596.843,3043.95
597.34,3021.95
597.837,3019.55
598.334,3031.55
598.831,3008.1
599.328,3032.4
599.824,3042.25
600.321,3016.25
600.818,3027.9
601.314,3040.1
601.811,3018.25
602.307,3031.95
602.804,3029.9
603.3,3035.85
603.796,3000.7
604.293,3028.3
604.789,3009.9
605.285,3002.6
605.781,2970.85
606.277,3019.15
606.772,3004.5
607.268,3002.75
607.764,2992.8
608.259,2989.35
608.755,2994.3
609.25,2974.3
609.746,2984.85
610.241,3012.25
610.736,2997.15
611.231,3000.2
611.727,2963.8
612.222,2993.75
612.716,2967.4
613.211,2995.5
613.706,2950.75
614.201,2978.4
614.695,2966.05
615.19,2982.45
615.684,2947.65
616.179,2962.85
616.673,2940.1
617.168,2978.2
617.662,2952.25
618.156,2961.0
618.65,2919.75
619.144,2959.95
619.638,2933.15
620.131,2907.25
620.625,2930.55
621.119,2922.9
621.612,2909.85
622.106,2889.2
622.599,2931.25
623.093,2912.65
623.586,2923.6
624.079,2871.15
624.572,2875.55
625.065,2886.25
625.558,2881.85
626.051,2867.2
626.544,2835.45
627.037,2858.25
627.529,2825.15
628.022,2863.05
628.514,2963.55
629.007,2925.15
629.499,2928.55
629.991,2906.05
630.483,3044.75
630.976,3516.5
631.468,3358.15
631.959,3061.45
632.451,2971.8
632.943,3068.6
633.435,3068.8
633.926,2927.65
634.418,2786.9
634.909,2755.8
635.401,2706.15
635.892,2697.4
636.383,2697.3
636.874,2701.0
637.365,2647.8
637.856,2670.85
638.347,2676.05
638.838,2648.05
639.329,2654.45
639.819,2631.95
640.31,2627.8
640.8,2627.85
641.291,2591.55
641.781,2603.65
642.271,2587.8
642.761,2567.4
643.251,2566.25
643.741,2545.65
644.231,2553.9
644.721,2529.75
645.211,2519.15
645.7,2534.2
646.19,2520.15
646.679,2501.55
647.169,2499.05
647.658,2483.15
648.147,2476.75
648.636,2444.2
649.125,2457.15
649.614,2478.3
650.103,2418.45
650.592,2412.05
651.08,2415.2
651.569,2407.8
652.058,2420.25
652.546,2385.2
653.034,2392.35
653.523,2381.5
654.011,2357.2
654.499,2359.85
654.987,2342.1
655.475,2361.25
655.963,2340.35
656.45,2320.8
656.938,2318.0
657.425,2309.0
657.913,2296.1
658.4,2288.65
658.888,2281.55
659.375,2286.55
659.862,2273.7
660.349,2262.55
660.836,2247.8
661.079,2257.9

File: VLFR_08-PLA_bio_Raman_4ab6e509.csv
nm,Intensity
526.508,830.7
527.055,830.1
527.602,831.2
528.149,830.2
528.695,830.8
529.241,828.2
529.787,829.0
530.334,830.0
530.879,828.2
531.425,830.3
531.971,835.0
532.516,830.6
533.062,830.6
533.607,830.4
534.152,1119.2
534.697,1057.7
535.242,1001.7
535.786,978.2
536.331,971.9
536.876,975.2
537.42,958.6
537.964,960.5
538.508,950.2
539.052,944.2
539.596,941.9
540.14,930.7
540.683,955.4
541.227,959.1
541.77,947.4
542.313,940.7
542.856,939.2
543.399,966.9
543.942,986.9
544.485,958.5
545.027,938.4
545.57,935.7
546.112,937.1
546.654,939.2
547.196,939.5
547.738,939.8
548.28,939.4
548.822,945.0
549.363,946.8
549.905,947.4
550.446,942.5
550.988,952.6
551.529,956.2
552.07,959.2
552.611,961.8
553.152,963.4
553.692,960.7
554.233,968.7
554.773,959.4
555.314,952.7
555.854,949.4
556.394,949.9
556.934,954.3
557.474,978.4
558.014,1124.3
558.553,1002.1
559.093,972.2
559.632,970.8
560.172,961.1
560.711,961.4
561.25,955.3
561.789,960.3
562.328,960.5
562.867,975.6
563.406,1013.0
563.944,986.4
564.483,973.3
565.021,1004.9
565.559,999.5
566.098,1028.7
566.636,995.5
567.174,966.6
567.711,975.5
568.249,977.6
568.787,980.0
569.324,980.1
569.862,977.8
570.399,978.9
570.936,978.2
571.474,995.9
572.011,1004.6
572.548,991.9
573.084,993.8
573.621,998.1
574.158,996.9
574.694,1007.4
575.231,982.1
575.767,986.1
576.303,1003.0
576.84,1083.0
577.376,1011.6
577.912,988.6
578.447,986.3
578.983,986.1
579.519,984.6
580.054,985.1
580.59,982.2
581.125,983.4
581.661,979.2
582.196,982.9
582.731,992.4
583.266,988.1
583.801,988.8
584.336,991.7
584.87,992.6
585.405,990.8
585.94,987.9
586.474,1006.6
587.008,1053.4
587.543,1086.2
588.077,1024.0
588.611,994.7
589.145,992.8
589.679,991.8
590.213,989.2
590.747,984.8
591.28,991.5
591.814,987.0
592.347,988.1
592.881,988.1
593.414,985.9
593.947,984.6
594.48,986.2
595.014,987.5
595.547,991.7
596.079,988.9
596.612,991.5
597.145,990.9
597.678,988.6
598.21,991.4
598.743,991.4
599.275,993.0
599.807,990.7
600.34,986.3
600.872,987.3
601.404,986.7
601.936,989.2
602.468,988.2
603.0,987.5
603.532,990.0
604.063,986.5
604.595,988.3
605.126,985.7
605.658,985.4
606.189,982.3
606.721,980.2
607.252,978.4
607.783,983.0
608.314,981.8
608.845,980.1
609.376,985.5
609.907,987.1
610.438,978.9
610.968,981.3
611.499,983.6
612.03,979.6
612.56,979.8
613.091,985.8
613.621,985.0
614.151,987.4
614.681,985.3
615.212,983.0
615.742,984.7
616.272,985.8
616.802,985.5
617.332,983.0
617.861,982.0
618.391,986.8
618.921,984.9
619.45,987.4
619.98,986.9
620.509,981.1
621.039,982.4
621.568,982.1
622.097,984.9
622.627,997.5
623.156,1002.6
623.685,996.7
624.214,988.8
624.743,994.1
625.272,984.2
625.801,981.3
626.33,980.1
626.858,981.5
627.387,981.9
627.916,992.8
628.444,1076.1
628.973,1061.3
629.501,1059.6
630.029,1064.2
630.558,1140.7
631.086,1618.0
631.614,1309.4
632.142,1141.7
632.67,1119.9
633.198,1230.0
633.726,1191.6
634.254,1071.2
634.782,1009.1
635.31,984.1
635.838,977.6
636.365,972.7
636.893,970.0
637.421,966.4
637.948,968.1
638.476,966.5
639.003,968.3
639.531,965.5
640.058,966.1
640.585,965.1
641.113,970.1
641.64,967.6
642.167,965.9
642.694,967.1
643.221,960.3
643.748,961.4
644.275,957.9
644.802,959.3
645.329,955.2
645.856,954.2
646.382,955.6
646.909,954.8
647.436,953.1
647.962,953.7
648.489,949.2
649.016,946.2
649.542,950.5
650.069,947.7
650.595,946.3
651.121,944.8
651.648,946.1
652.174,948.1
652.7,946.4
653.227,943.4
653.753,948.7
654.279,944.7
654.805,945.4
655.331,943.6
655.857,942.2
656.383,943.7
656.909,944.7
657.435,943.0
657.961,940.0
658.487,942.3
659.013,941.2
659.538,939.3
660.064,939.0
660.59,939.1
661.116,940.0
661.641,934.9
662.167,932.1
662.692,934.3
663.087,932.7

File: VLFR_08-PLA_bio_Raman_4de8b64a.csv
nm,Intensity
526.508,830.4
527.055,829.5
527.602,829.9
528.149,830.3
528.695,830.1
529.241,831.1
529.787,828.6
530.334,829.3
530.879,829.2
531.425,829.8
531.971,837.0
532.516,831.4
533.062,830.4
533.607,832.2
534.152,964.3
534.697,938.4
535.242,923.3
535.786,919.2
536.331,916.3
536.876,914.2
537.42,911.9
537.964,912.1
538.508,910.4
539.052,908.6
539.596,909.8
540.14,906.9
540.683,913.0
541.227,917.7
541.77,914.4
542.313,910.1
542.856,912.9
543.399,921.9
543.942,925.0
544.485,918.8
545.027,914.0
545.57,913.7
546.112,913.1
546.654,912.9
547.196,919.8
547.738,917.1
548.28,917.7
548.822,920.4
549.363,923.4
549.905,923.5
550.446,922.1
550.988,922.7
551.529,927.4
552.07,928.4
552.611,930.3
553.152,931.9
553.692,930.3
554.233,932.0
554.773,931.5
555.314,926.4
555.854,928.1
556.394,931.0
556.934,933.0
557.474,933.0
558.014,985.7
558.553,948.2
559.093,935.4
559.632,937.9
560.172,934.9
560.711,938.4
561.25,932.0
561.789,932.3
562.328,935.0
562.867,941.3
563.406,951.4
563.944,946.7
564.483,940.1
565.021,951.3
565.559,949.0
566.098,961.5
566.636,946.9
567.174,941.0
567.711,943.8
568.249,945.2
568.787,947.0
569.324,942.3
569.862,945.3
570.399,943.2
570.936,945.9
571.474,949.7
572.011,952.4
572.548,948.8
573.084,952.9
573.621,953.1
574.158,950.2
574.694,959.5
575.231,949.4
575.767,952.5
576.303,960.5
576.84,983.9
577.376,966.1
577.912,948.0
578.447,949.9
578.983,952.1
579.519,951.1
580.054,949.6
580.59,951.3
581.125,952.1
581.661,949.1
582.196,951.3
582.731,956.2
583.266,953.0
583.801,947.8
584.336,954.1
584.87,947.7
585.405,949.4
585.94,953.8
586.474,955.5
587.008,970.8
587.543,984.2
588.077,962.0
588.611,952.8
589.145,953.5
589.679,949.9
590.213,949.4
590.747,950.6
591.28,954.7
591.814,950.2
592.347,949.1
592.881,946.0
593.414,953.3
593.947,947.7
594.48,949.0
595.014,947.8
595.547,949.2
596.079,948.2
596.612,951.5
597.145,948.4
597.678,950.6
598.21,951.1
598.743,952.7
599.275,947.8
599.807,951.3
600.34,946.0
600.872,944.8
601.404,949.0
601.936,948.7
602.468,945.9
603.0,944.8
603.532,950.3
604.063,946.6
604.595,940.9
605.126,939.5
605.658,941.8
606.189,939.0
606.721,939.9
607.252,938.7
607.783,942.9
608.314,939.4
608.845,940.1
609.376,942.7
609.907,937.6
610.438,938.0
610.968,937.2
611.499,937.9
612.03,940.5
612.56,935.6
613.091,938.4
613.621,940.8
614.151,939.2
614.681,937.5
615.212,936.7
615.742,938.8
616.272,936.1
616.802,941.2
617.332,938.8
617.861,935.7
618.391,934.3
618.921,940.5
619.45,934.3
619.98,935.7
620.509,932.9
621.039,931.1
621.568,930.6
622.097,931.8
622.627,935.5
623.156,936.5
623.685,933.7
624.214,936.6
624.743,936.4
625.272,930.7
625.801,932.4
626.33,929.0
626.858,929.8
627.387,930.4
627.916,932.6
628.444,956.1
628.973,953.4
629.501,952.6
630.029,949.1
630.558,974.9
631.086,1104.4
631.614,1016.2
632.142,969.5
632.67,962.2
633.198,993.4
633.726,980.6
634.254,942.9
634.782,931.6
635.31,924.7
635.838,921.8
636.365,923.5
636.893,919.5
637.421,917.7
637.948,919.4
638.476,918.1
639.003,917.8
639.531,919.8
640.058,917.3
640.585,914.3
641.113,916.0
641.64,917.6
642.167,913.6
642.694,910.7
643.221,911.6
643.748,912.9
644.275,909.5
644.802,911.8
645.329,907.6
645.856,905.4
646.382,907.8
646.909,907.7
647.436,905.0
647.962,906.8
648.489,903.3
649.016,907.1
649.542,904.3
650.069,906.1
650.595,900.5
651.121,903.3
651.648,903.9
652.174,901.7
652.7,903.1
653.227,900.5
653.753,902.2
654.279,900.5
654.805,898.6
655.331,897.9
655.857,899.9
656.383,900.0
656.909,897.2
657.435,898.6
657.961,897.0
658.487,898.9
659.013,897.6
659.538,899.9
660.064,894.5
660.59,894.3
661.116,896.6
661.641,891.7
662.167,891.0
662.692,893.0
663.087,893.0